Trial,Order,Block,Type,Stimuli_File1,Stimuli_File2,Stimuli_File3,Stimuli_File4,Cue_File1,Cue_File2,Response_File_Yes,Response_File_No,Match,Cue_Dimension,Pair1_Dimension,Pair2_Dimension,Key,Cue1_Duration,Cue1_Onset,Cue2_Duration,Cue2_Onset,ResponseYes_Duration,ResponseYes_Onset,ResponseNo_Duration,ResponseNo_Onset,ITI_Within,ITI_Between,Image1_Duration,Image1_Onset,Image2_Duration,Image2_Onset,Image3_Duration,Image3_Onset,Image4_Duration,Image4_Onset,Sound1_Duration,Sound1_Onset,Sound2_Duration,Sound2_Onset,Sound3_Duration,Sound3_Onset,Sound4_Duration,Sound4_Onset,Fixation_Duration,trials_2.thisRepN,trials_2.thisTrialN,trials_2.thisN,trials_2.thisIndex,trials.thisRepN,trials.thisTrialN,trials.thisN,trials.thisIndex,text_start.started,key_resp_start.started,key_resp_start.keys,key_resp_start.rt,text2.started,key_resp_2.started,key_resp_2.keys,key_resp_2.rt,cue_file1.started,cue_file1.stopped,image_1.started,image_1.stopped,image_2.started,image_2.stopped,sound_icon1.started,sound_icon1.stopped,sound_1.started,sound_1.stopped,sound_icon2.started,sound_icon2.stopped,sound_2.started,sound_2.stopped,image_blank_1.started,image_blank_1.stopped,key_press.started,key_press.stopped,fixation_text.started,cue_file2.started,cue_file2.stopped,image_3.started,image_3.stopped,image_4.started,image_4.stopped,sound_icon3.started,sound_icon3.stopped,sound_3.started,sound_3.stopped,sound_icon4.started,sound_icon4.stopped,sound_4.started,sound_4.stopped,response_yes.started,response_yes.stopped,response_no.started,response_no.stopped,iti_blank.started,iti_blank.stopped,fixation_text.stopped,key_press.keys,key_press.corr,key_press.rt,participant,session,date,expName,psychopyVersion,frameRate,
,,,,,,,,,,,,,,,,,,,,,,,,,,,,,,,,,,,,,,,,,,,,,,,,,,,,13.882538458972704,13.882538458972704,2,2.4639205830171704,,,,,,,,,,,,,,,,,,,,,,,,,,,,,,,,,,,,,,,,,,,,,,,,reldom2_s028,001,2025-03-04_12h35.02.838,Vis-A-Scan_AC,2022.2.5,None,
,,,,,,,,,,,,,,,,,,,,,,,,,,,,,,,,,,,,,,,,,,,,0,0,0,0,,,,,,,,,16.388610124995466,16.388610124995466,5,17.37026916607283,,,,,,,,,,,,,,,,,,,,,,,,,,,,,,,,,,,,,,,,,,,,reldom2_s028,001,2025-03-04_12h35.02.838,Vis-A-Scan_AC,2022.2.5,None,
,,,,,,,,,,,,,,,,,,,,,,,,,,,,,,,,,,,,,,,,,,,,1,0,1,0,,,,,,,,,33.77273474994581,33.77273474994581,5,1.984376291045919,,,,,,,,,,,,,,,,,,,,,,,,,,,,,,,,,,,,,,,,,,,,reldom2_s028,001,2025-03-04_12h35.02.838,Vis-A-Scan_AC,2022.2.5,None,
,,,,,,,,,,,,,,,,,,,,,,,,,,,,,,,,,,,,,,,,,,,,2,0,2,0,,,,,,,,,35.77846620895434,35.77846620895434,5,1.9782283320091665,,,,,,,,,,,,,,,,,,,,,,,,,,,,,,,,,,,,,,,,,,,,reldom2_s028,001,2025-03-04_12h35.02.838,Vis-A-Scan_AC,2022.2.5,None,
,,,,,,,,,,,,,,,,,,,,,,,,,,,,,,,,,,,,,,,,,,,,3,0,3,0,,,,,,,,,37.774846541986335,37.774846541986335,5,1.9819367490126751,,,,,,,,,,,,,,,,,,,,,,,,,,,,,,,,,,,,,,,,,,,,reldom2_s028,001,2025-03-04_12h35.02.838,Vis-A-Scan_AC,2022.2.5,None,
0,0.0,None,fixation,stimulus/viswhat_stim/blank_white.png,stimulus/viswhat_stim/blank_white.png,stimulus/viswhere_stim/blank_white.png,stimulus/viswhere_stim/blank_white.png,stimulus/viswhat_stim/blank_white.png,stimulus/viswhat_stim/blank_white.png,stimulus/viswhat_stim/blank_white.png,stimulus/viswhat_stim/blank_white.png,0.0,0.0,0.0,0.0,0,0.0,0,0.0,0,0.0,0,0.0,0,0.0,0.0,0,0.0,0,0.0,0,0.0,0,0.0,0,0,0,0,0,0,0,0,16,,,,,0,0,0,0,,,,,,,,,39.969282708945684,39.969282708945684,39.969282708945684,39.969282708945684,39.969282708945684,39.969282708945684,39.969282708945684,39.969282708945684,39.87394354163359,39.969282708945684,39.969282708945684,39.969282708945684,39.87394354163359,39.969282708945684,39.969282708945684,39.969282708945684,39.969282708945684,39.969282708945684,39.969282708945684,39.969282708945684,39.969282708945684,39.969282708945684,39.969282708945684,39.969282708945684,39.969282708945684,39.969282708945684,39.969282708945684,39.923943541633584,39.969282708945684,39.969282708945684,39.969282708945684,39.923943541633584,39.969282708945684,39.969282708945684,39.969282708945684,39.969282708945684,39.969282708945684,45.15578012500191,45.15578012500191,56.20280266698683,None,0,,reldom2_s028,001,2025-03-04_12h35.02.838,Vis-A-Scan_AC,2022.2.5,None,
1,First_Order,1.0,viswhat,stimulus/viswhat_stim/blank_white.png,stimulus/viswhat_stim/blank_white.png,stimulus/viswhat_stim/land_animal-moose.png,stimulus/viswhat_stim/water_animal-seaturtle.png,stimulus/viswhat_stim/blank_white.png,stimulus/viswhat_stim/type_box.png,stimulus/viswhat_stim/type_yes.png,stimulus/viswhat_stim/type_no.png,None,Type,None,Type,1,0.0,0,5.125,0,5.125,0,5.125,0,0.0,0.625,0,0.0,0,0.0,1,0.5,1,2.125,0,0,0,0,0,0,0,0,0,,,,,0,1,1,1,,,,,,,,,56.20280266698683,56.20280266698683,56.20280266698683,56.20280266698683,56.20280266698683,56.20280266698683,56.20280266698683,56.20280266698683,56.103779124945866,56.20280266698683,56.20280266698683,56.20280266698683,56.103779124945866,56.20280266698683,56.20280266698683,56.20280266698683,58.25882341695251,62.28425999998581,56.20280266698683,56.20280266698683,61.41358304198366,56.65851916698739,57.74466804199619,58.25882341695251,59.34907958394615,56.20280266698683,56.20280266698683,56.15377912494586,56.20280266698683,56.20280266698683,56.20280266698683,56.15377912494586,56.20280266698683,56.20280266698683,61.41358304198366,56.20280266698683,61.41358304198366,61.41358304198366,62.090712249977514,56.20280266698683,1,1,1.3879799580317922,reldom2_s028,001,2025-03-04_12h35.02.838,Vis-A-Scan_AC,2022.2.5,None,
2,First_Order,1.0,viswhat,stimulus/viswhat_stim/blank_white.png,stimulus/viswhat_stim/blank_white.png,stimulus/viswhat_stim/water_vehicle-submarine.png,stimulus/viswhat_stim/land_vehicle-firetruck.png,stimulus/viswhat_stim/blank_white.png,stimulus/viswhat_stim/type_box.png,stimulus/viswhat_stim/type_yes.png,stimulus/viswhat_stim/type_no.png,None,Type,None,Type,1,0.0,0,5.125,0,5.125,0,5.125,0,0.0,0.625,0,0.0,0,0.0,1,0.5,1,2.125,0,0,0,0,0,0,0,0,0,,,,,0,2,2,2,,,,,,,,,62.28425999998581,62.28425999998581,62.28425999998581,62.28425999998581,62.28425999998581,62.28425999998581,62.28425999998581,62.28425999998581,62.24071224997751,62.28425999998581,62.28425999998581,62.28425999998581,62.24071224997751,62.28425999998581,62.28425999998581,62.28425999998581,64.38702533399919,68.38434883399168,62.28425999998581,62.28425999998581,67.41529195895419,62.76556841697311,63.77868824999314,64.38702533399919,65.40792762499768,62.28425999998581,62.28425999998581,62.274045583310844,62.28425999998581,62.28425999998581,62.28425999998581,62.274045583310844,62.28425999998581,62.28425999998581,67.41529195895419,62.28425999998581,67.41529195895419,67.49520770896925,68.13360612496035,62.28425999998581,1,1,0.7929588740225881,reldom2_s028,001,2025-03-04_12h35.02.838,Vis-A-Scan_AC,2022.2.5,None,
3,First_Order,1.0,viswhat,stimulus/viswhat_stim/blank_white.png,stimulus/viswhat_stim/blank_white.png,stimulus/viswhat_stim/water_vehicle-kayak.png,stimulus/viswhat_stim/land_vehicle-vespa.png,stimulus/viswhat_stim/blank_white.png,stimulus/viswhat_stim/location_box.png,stimulus/viswhat_stim/location_yes.png,stimulus/viswhat_stim/location_no.png,None,Location,None,Type,2,0.0,0,5.125,0,5.125,0,5.125,0,0.0,0.625,0,0.0,0,0.0,1,0.5,1,2.125,0,0,0,0,0,0,0,0,0,,,,,0,3,3,3,,,,,,,,,68.38434883399168,68.38434883399168,68.38434883399168,68.38434883399168,68.38434883399168,68.38434883399168,68.38434883399168,68.38434883399168,68.33293029196793,68.38434883399168,68.38434883399168,68.38434883399168,68.33293029196793,68.38434883399168,68.38434883399168,68.38434883399168,70.48676862497814,74.47834020899609,68.38434883399168,68.38434883399168,73.54140770895174,68.85495424998226,69.90942404197995,70.48676862497814,71.50806545896921,68.38434883399168,68.38434883399168,68.34959695863459,68.38434883399168,68.38434883399168,68.38434883399168,68.34959695863459,68.38434883399168,68.38434883399168,73.54140770895174,68.38434883399168,73.54140770895174,73.6030505419476,74.2500662090024,68.38434883399168,2,1,0.6024121240479872,reldom2_s028,001,2025-03-04_12h35.02.838,Vis-A-Scan_AC,2022.2.5,None,
4,First_Order,1.0,viswhat,stimulus/viswhat_stim/blank_white.png,stimulus/viswhat_stim/blank_white.png,stimulus/viswhat_stim/water_vehicle-pirateship.png,stimulus/viswhat_stim/land_vehicle-buldozer.png,stimulus/viswhat_stim/blank_white.png,stimulus/viswhat_stim/location_box.png,stimulus/viswhat_stim/location_yes.png,stimulus/viswhat_stim/location_no.png,None,Location,None,Type,2,0.0,0,5.125,0,5.125,0,5.125,0,0.0,0.625,0,0.0,0,0.0,1,0.5,1,2.125,0,0,0,0,0,0,0,0,0,,,,,0,4,4,4,,,,,,,,,74.47834020899609,74.47834020899609,74.47834020899609,74.47834020899609,74.47834020899609,74.47834020899609,74.47834020899609,74.47834020899609,74.42794841664532,74.47834020899609,74.47834020899609,74.47834020899609,74.42794841664532,74.47834020899609,74.47834020899609,74.47834020899609,76.58906566695077,,74.47834020899609,74.47834020899609,79.62378208397422,74.95480733399745,75.97721412498504,76.58906566695077,77.61279420898063,74.47834020899609,74.47834020899609,74.44461508331199,74.47834020899609,74.47834020899609,74.47834020899609,74.44461508331199,74.47834020899609,74.47834020899609,79.62378208397422,74.47834020899609,79.62378208397422,79.68060316698393,80.33720349997748,74.47834020899609,2,1,1.5892522910726257,reldom2_s028,001,2025-03-04_12h35.02.838,Vis-A-Scan_AC,2022.2.5,None,
0,0.0,None,fixation,stimulus/viswhat_stim/blank_white.png,stimulus/viswhat_stim/blank_white.png,stimulus/viswhere_stim/blank_white.png,stimulus/viswhere_stim/blank_white.png,stimulus/viswhat_stim/blank_white.png,stimulus/viswhat_stim/blank_white.png,stimulus/viswhat_stim/blank_white.png,stimulus/viswhat_stim/blank_white.png,0.0,0.0,0.0,0.0,0,0.0,0,0.0,0,0.0,0,0.0,0,0.0,0.0,0,0.0,0,0.0,0,0.0,0,0.0,0,0,0,0,0,0,0,0,9,,,,,0,5,5,5,,,,,,,,,80.59997383394511,80.59997383394511,80.59997383394511,80.59997383394511,80.59997383394511,80.59997383394511,80.59997383394511,80.59997383394511,80.50971987566832,80.59997383394511,80.59997383394511,80.59997383394511,80.50971987566832,80.59997383394511,80.59997383394511,80.59997383394511,80.59997383394511,80.59997383394511,80.59997383394511,80.59997383394511,80.59997383394511,80.59997383394511,80.59997383394511,80.59997383394511,80.59997383394511,80.59997383394511,80.59997383394511,80.55971987566834,80.59997383394511,80.59997383394511,80.59997383394511,80.55971987566834,80.59997383394511,80.59997383394511,80.59997383394511,80.59997383394511,80.59997383394511,85.7964897089987,85.7964897089987,89.78565220895689,None,0,,reldom2_s028,001,2025-03-04_12h35.02.838,Vis-A-Scan_AC,2022.2.5,None,
5,Second_Order,1.0,viswhat,stimulus/viswhat_stim/water_vehicle-cruiser.png,stimulus/viswhat_stim/land_vehicle-pickuptruck.png,stimulus/viswhat_stim/land_animal-snake.png,stimulus/viswhat_stim/land_vehicle-trolley.png,stimulus/viswhat_stim/match_blank.png,stimulus/viswhat_stim/match_box.png,stimulus/viswhat_stim/match_yes.png,stimulus/viswhat_stim/match_no.png,2.0,Match,Type,Location,2,5.125,0,5.125,0,5.125,0,5.125,0,0.75,0.75,1,0.5,1,2.125,1,0.5,1,2.125,0,0,0,0,0,0,0,0,0,,,,,0,6,6,6,,,,,,,,,89.78565220895689,94.90288845897885,90.2054866249673,91.19261620898033,91.84024612494977,92.83001112495549,89.78565220895689,89.78565220895689,89.79952729229893,89.78565220895689,89.78565220895689,89.78565220895689,89.79952729229893,89.78565220895689,94.90288845897885,95.70724295894615,97.772620291973,101.63822520896792,95.70724295894615,95.70724295894615,100.84192654199433,96.15757408394711,97.16602995898575,97.772620291973,98.79085362498881,95.70724295894615,95.70724295894615,95.68647412497084,95.70724295894615,95.70724295894615,95.70724295894615,95.68647412497084,95.70724295894615,95.70724295894615,100.84192654199433,95.70724295894615,100.84192654199433,100.89272349997191,101.68718837498454,95.70724295894615,2,1,0.5816840820480138,reldom2_s028,001,2025-03-04_12h35.02.838,Vis-A-Scan_AC,2022.2.5,None,
6,Second_Order,1.0,viswhat,stimulus/viswhat_stim/land_vehicle-firetruck.png,stimulus/viswhat_stim/land_animal-dog.png,stimulus/viswhat_stim/water_animal-seaturtle.png,stimulus/viswhat_stim/water_vehicle-sailboat.png,stimulus/viswhat_stim/match_blank.png,stimulus/viswhat_stim/match_box.png,stimulus/viswhat_stim/match_yes.png,stimulus/viswhat_stim/match_no.png,1.0,Match,Location,Location,1,5.125,0,5.125,0,5.125,0,5.125,0,0.625,0.625,1,0.5,1,2.125,1,0.5,1,2.125,0,0,0,0,0,0,0,0,0,,,,,0,7,7,7,,,,,,,,,101.68718837498454,106.80801829195116,102.16817574994639,103.16617804195266,103.78972683398752,104.78663479199167,101.68718837498454,101.68718837498454,101.68822520896792,101.68718837498454,101.68718837498454,101.68718837498454,101.68822520896792,101.68718837498454,106.80801829195116,107.55689129198436,109.63494045898551,113.66359349997947,107.55689129198436,107.55689129198436,112.7198864169768,107.97205462498823,109.01060987496749,109.63494045898551,110.6847874999512,107.55689129198436,107.55689129198436,107.5098393333222,107.55689129198436,107.55689129198436,107.55689129198436,107.5098393333222,107.55689129198436,107.55689129198436,112.7198864169768,107.55689129198436,112.7198864169768,112.7198864169768,113.41622849996202,107.55689129198436,1,1,0.8117775410646573,reldom2_s028,001,2025-03-04_12h35.02.838,Vis-A-Scan_AC,2022.2.5,None,
0,0.0,None,fixation,stimulus/viswhat_stim/blank_white.png,stimulus/viswhat_stim/blank_white.png,stimulus/viswhere_stim/blank_white.png,stimulus/viswhere_stim/blank_white.png,stimulus/viswhat_stim/blank_white.png,stimulus/viswhat_stim/blank_white.png,stimulus/viswhat_stim/blank_white.png,stimulus/viswhat_stim/blank_white.png,0.0,0.0,0.0,0.0,0,0.0,0,0.0,0,0.0,0,0.0,0,0.0,0.0,0,0.0,0,0.0,0,0.0,0,0.0,0,0,0,0,0,0,0,0,9,,,,,0,8,8,8,,,,,,,,,113.66359349997947,113.66359349997947,113.66359349997947,113.66359349997947,113.66359349997947,113.66359349997947,113.66359349997947,113.66359349997947,113.56622849996202,113.66359349997947,113.66359349997947,113.66359349997947,113.56622849996202,113.66359349997947,113.66359349997947,113.66359349997947,113.66359349997947,113.66359349997947,113.66359349997947,113.66359349997947,113.66359349997947,113.66359349997947,113.66359349997947,113.66359349997947,113.66359349997947,113.66359349997947,113.66359349997947,113.61622849996202,113.66359349997947,113.66359349997947,113.66359349997947,113.61622849996202,113.66359349997947,113.66359349997947,113.66359349997947,113.66359349997947,113.66359349997947,118.87381024996284,118.87381024996284,122.95563549996587,None,0,,reldom2_s028,001,2025-03-04_12h35.02.838,Vis-A-Scan_AC,2022.2.5,None,
7,First_Order,2.0,viswhat,stimulus/viswhat_stim/blank_white.png,stimulus/viswhat_stim/blank_white.png,stimulus/viswhat_stim/water_vehicle-ship.png,stimulus/viswhat_stim/water_animal-stingray.png,stimulus/viswhat_stim/blank_white.png,stimulus/viswhat_stim/type_box.png,stimulus/viswhat_stim/type_yes.png,stimulus/viswhat_stim/type_no.png,None,Type,None,Location,2,0.0,0,5.125,0,5.125,0,5.125,0,0.0,0.625,0,0.0,0,0.0,1,0.5,1,2.125,0,0,0,0,0,0,0,0,0,,,,,0,9,9,9,,,,,,,,,122.95563549996587,122.95563549996587,122.95563549996587,122.95563549996587,122.95563549996587,122.95563549996587,122.95563549996587,122.95563549996587,122.86432687563745,122.95563549996587,122.95563549996587,122.95563549996587,122.86432687563745,122.95563549996587,122.95563549996587,122.95563549996587,125.04982291697524,129.0195387089625,122.95563549996587,122.95563549996587,128.14262079197215,123.39595824998105,124.44678474997636,125.04982291697524,126.10112579195993,122.95563549996587,122.95563549996587,122.91432687563744,122.95563549996587,122.95563549996587,122.95563549996587,122.91432687563744,122.95563549996587,122.95563549996587,128.14262079197215,122.95563549996587,128.14262079197215,128.14262079197215,128.83734474994708,122.95563549996587,2,1,2.561202999029774,reldom2_s028,001,2025-03-04_12h35.02.838,Vis-A-Scan_AC,2022.2.5,None,
8,First_Order,2.0,viswhat,stimulus/viswhat_stim/blank_white.png,stimulus/viswhat_stim/blank_white.png,stimulus/viswhat_stim/land_vehicle-train.png,stimulus/viswhat_stim/land_animal-fox.png,stimulus/viswhat_stim/blank_white.png,stimulus/viswhat_stim/type_box.png,stimulus/viswhat_stim/type_yes.png,stimulus/viswhat_stim/type_no.png,None,Type,None,Location,2,0.0,0,5.125,0,5.125,0,5.125,0,0.0,0.625,0,0.0,0,0.0,1,0.5,1,2.125,0,0,0,0,0,0,0,0,0,,,,,0,10,10,10,,,,,,,,,129.0195387089625,129.0195387089625,129.0195387089625,129.0195387089625,129.0195387089625,129.0195387089625,129.0195387089625,129.0195387089625,128.98734474994708,129.0195387089625,129.0195387089625,129.0195387089625,128.98734474994708,129.0195387089625,129.0195387089625,129.0195387089625,131.1147368749953,135.1233895419864,129.0195387089625,129.0195387089625,134.14782304194523,129.49311324994778,130.51026070897933,131.1147368749953,132.13722483394668,129.0195387089625,129.0195387089625,129.00401141661376,129.0195387089625,129.0195387089625,129.0195387089625,129.00401141661376,129.0195387089625,129.0195387089625,134.14782304194523,129.0195387089625,134.14782304194523,134.24452379194554,134.87453474994982,129.0195387089625,2,1,1.0705582069931552,reldom2_s028,001,2025-03-04_12h35.02.838,Vis-A-Scan_AC,2022.2.5,None,
9,First_Order,2.0,viswhat,stimulus/viswhat_stim/blank_white.png,stimulus/viswhat_stim/blank_white.png,stimulus/viswhat_stim/land_animal-lion.png,stimulus/viswhat_stim/land_vehicle-bus.png,stimulus/viswhat_stim/blank_white.png,stimulus/viswhat_stim/location_box.png,stimulus/viswhat_stim/location_yes.png,stimulus/viswhat_stim/location_no.png,None,Location,None,Location,1,0.0,0,5.125,0,5.125,0,5.125,0,0.0,0.625,0,0.0,0,0.0,1,0.5,1,2.125,0,0,0,0,0,0,0,0,0,,,,,0,11,11,11,,,,,,,,,135.1233895419864,135.1233895419864,135.1233895419864,135.1233895419864,135.1233895419864,135.1233895419864,135.1233895419864,135.1233895419864,135.0580743752847,135.1233895419864,135.1233895419864,135.1233895419864,135.0580743752847,135.1233895419864,135.1233895419864,135.1233895419864,137.22502154199174,141.28290058398852,135.1233895419864,135.1233895419864,140.29446149995783,135.58016599999974,136.6133143339539,137.22502154199174,138.26549762499053,135.1233895419864,135.1233895419864,135.09140770861802,135.1233895419864,135.1233895419864,135.1233895419864,135.09140770861802,135.1233895419864,135.1233895419864,140.29446149995783,135.1233895419864,140.29446149995783,140.32744308398105,140.9784167499747,135.1233895419864,1,1,0.6539009159896523,reldom2_s028,001,2025-03-04_12h35.02.838,Vis-A-Scan_AC,2022.2.5,None,
10,First_Order,2.0,viswhat,stimulus/viswhat_stim/blank_white.png,stimulus/viswhat_stim/blank_white.png,stimulus/viswhat_stim/land_animal-elephant.png,stimulus/viswhat_stim/land_vehicle-motorcycle.png,stimulus/viswhat_stim/blank_white.png,stimulus/viswhat_stim/location_box.png,stimulus/viswhat_stim/location_yes.png,stimulus/viswhat_stim/location_no.png,None,Location,None,Location,1,0.0,0,5.125,0,5.125,0,5.125,0,0.0,0.625,0,0.0,0,0.0,1,0.5,1,2.125,0,0,0,0,0,0,0,0,0,,,,,0,12,12,12,,,,,,,,,141.28290058398852,141.28290058398852,141.28290058398852,141.28290058398852,141.28290058398852,141.28290058398852,141.28290058398852,141.28290058398852,141.1599331256274,141.28290058398852,141.28290058398852,141.28290058398852,141.1599331256274,141.28290058398852,141.28290058398852,141.28290058398852,143.36593320895918,147.41604962496785,141.28290058398852,141.28290058398852,146.4619679999887,141.750627374975,142.8285927089746,143.36593320895918,144.44552899996052,141.28290058398852,141.28290058398852,141.22659979229405,141.28290058398852,141.28290058398852,141.28290058398852,141.22659979229405,141.28290058398852,141.28290058398852,146.4619679999887,141.28290058398852,146.4619679999887,146.4619679999887,147.13849595899228,141.28290058398852,1,1,0.6701053740107454,reldom2_s028,001,2025-03-04_12h35.02.838,Vis-A-Scan_AC,2022.2.5,None,
0,0.0,None,fixation,stimulus/viswhat_stim/blank_white.png,stimulus/viswhat_stim/blank_white.png,stimulus/viswhere_stim/blank_white.png,stimulus/viswhere_stim/blank_white.png,stimulus/viswhat_stim/blank_white.png,stimulus/viswhat_stim/blank_white.png,stimulus/viswhat_stim/blank_white.png,stimulus/viswhat_stim/blank_white.png,0.0,0.0,0.0,0.0,0,0.0,0,0.0,0,0.0,0,0.0,0,0.0,0.0,0,0.0,0,0.0,0,0.0,0,0.0,0,0,0,0,0,0,0,0,10,,,,,0,13,13,13,,,,,,,,,147.41604962496785,147.41604962496785,147.41604962496785,147.41604962496785,147.41604962496785,147.41604962496785,147.41604962496785,147.41604962496785,147.32182929232562,147.41604962496785,147.41604962496785,147.41604962496785,147.32182929232562,147.41604962496785,147.41604962496785,147.41604962496785,147.41604962496785,147.41604962496785,147.41604962496785,147.41604962496785,147.41604962496785,147.41604962496785,147.41604962496785,147.41604962496785,147.41604962496785,147.41604962496785,147.41604962496785,147.37182929232563,147.41604962496785,147.41604962496785,147.41604962496785,147.37182929232563,147.41604962496785,147.41604962496785,147.41604962496785,147.41604962496785,147.41604962496785,152.64327479194617,152.64327479194617,157.5734158749692,None,0,,reldom2_s028,001,2025-03-04_12h35.02.838,Vis-A-Scan_AC,2022.2.5,None,
11,Second_Order,2.0,viswhat,stimulus/viswhat_stim/water_vehicle-cabincruiser.png,stimulus/viswhat_stim/land_vehicle-scooter.png,stimulus/viswhat_stim/land_animal-giraffe.png,stimulus/viswhat_stim/water_animal-squid.png,stimulus/viswhat_stim/match_blank.png,stimulus/viswhat_stim/match_box.png,stimulus/viswhat_stim/match_yes.png,stimulus/viswhat_stim/match_no.png,1.0,Match,Type,Type,1,5.125,0,5.125,0,5.125,0,5.125,0,0.75,0.75,1,0.5,1,2.125,1,0.5,1,2.125,0,0,0,0,0,0,0,0,0,,,,,0,14,14,14,,,,,,,,,157.5734158749692,162.69195508398116,158.02888004196575,159.0150736249634,159.66806649998762,160.6658881669864,157.5734158749692,157.5734158749692,157.57288262530543,157.5734158749692,157.5734158749692,157.5734158749692,157.57288262530543,157.5734158749692,162.69195508398116,163.55610341695137,165.59306254197145,,163.55610341695137,163.55610341695137,168.73829566698987,163.99588129197946,165.04363799997373,165.59306254197145,166.64893383398885,163.55610341695137,163.55610341695137,163.5092823333301,163.55610341695137,163.55610341695137,163.55610341695137,163.5092823333301,163.55610341695137,163.55610341695137,168.73829566698987,163.55610341695137,168.73829566698987,168.73829566698987,,163.55610341695137,1,1,0.7347260000533424,reldom2_s028,001,2025-03-04_12h35.02.838,Vis-A-Scan_AC,2022.2.5,None,
12,Second_Order,2.0,viswhat,stimulus/viswhat_stim/land_animal-bunny.png,stimulus/viswhat_stim/land_vehicle-shortbus.png,stimulus/viswhat_stim/water_vehicle-sailboat.png,stimulus/viswhat_stim/water_animal-whale.png,stimulus/viswhat_stim/match_blank.png,stimulus/viswhat_stim/match_box.png,stimulus/viswhat_stim/match_yes.png,stimulus/viswhat_stim/match_no.png,1.0,Match,Location,Location,1,5.125,0,5.125,0,5.125,0,5.125,0,0.625,0.625,1,0.5,1,2.125,1,0.5,1,2.125,0,0,0,0,0,0,0,0,0,,,,,0,15,15,15,,,,,,,,,169.52637624996714,174.64825420896523,169.9730831249617,170.96000004198868,171.595293166989,172.59383841697127,169.52637624996714,169.52637624996714,169.53043891696726,169.52637624996714,169.52637624996714,169.52637624996714,169.53043891696726,169.52637624996714,174.64825420896523,175.3974224999547,177.4657223749673,181.5176467919955,175.3974224999547,175.3974224999547,180.57568712497596,175.81062237499282,176.89563641697168,177.4657223749673,178.507297833974,175.3974224999547,175.3974224999547,175.34952566728074,175.3974224999547,175.3974224999547,175.3974224999547,175.34952566728074,175.3974224999547,175.3974224999547,180.57568712497596,175.3974224999547,180.57568712497596,180.57568712497596,181.2683420839603,175.3974224999547,1,1,0.6027668740716763,reldom2_s028,001,2025-03-04_12h35.02.838,Vis-A-Scan_AC,2022.2.5,None,
0,0.0,None,fixation,stimulus/viswhat_stim/blank_white.png,stimulus/viswhat_stim/blank_white.png,stimulus/viswhere_stim/blank_white.png,stimulus/viswhere_stim/blank_white.png,stimulus/viswhat_stim/blank_white.png,stimulus/viswhat_stim/blank_white.png,stimulus/viswhat_stim/blank_white.png,stimulus/viswhat_stim/blank_white.png,0.0,0.0,0.0,0.0,0,0.0,0,0.0,0,0.0,0,0.0,0,0.0,0.0,0,0.0,0,0.0,0,0.0,0,0.0,0,0,0,0,0,0,0,0,9,,,,,0,16,16,16,,,,,,,,,181.5176467919955,181.5176467919955,181.5176467919955,181.5176467919955,181.5176467919955,181.5176467919955,181.5176467919955,181.5176467919955,181.4183420839603,181.5176467919955,181.5176467919955,181.5176467919955,181.4183420839603,181.5176467919955,181.5176467919955,181.5176467919955,181.5176467919955,181.5176467919955,181.5176467919955,181.5176467919955,181.5176467919955,181.5176467919955,181.5176467919955,181.5176467919955,181.5176467919955,181.5176467919955,181.5176467919955,181.46834208396032,181.5176467919955,181.5176467919955,181.5176467919955,181.46834208396032,181.5176467919955,181.5176467919955,181.5176467919955,181.5176467919955,181.5176467919955,186.7313192919828,186.7313192919828,190.72750679199817,None,0,,reldom2_s028,001,2025-03-04_12h35.02.838,Vis-A-Scan_AC,2022.2.5,None,
13,First_Order,3.0,viswhere,stimulus/viswhere_stim/blank_white.png,stimulus/viswhere_stim/blank_white.png,stimulus/viswhere_stim/90-deg_dot-left_slateblue.png,stimulus/viswhere_stim/120-deg_dot-left_slateblue.png,stimulus/viswhere_stim/blank_white.png,stimulus/viswhere_stim/dot_box.png,stimulus/viswhere_stim/dot_yes.png,stimulus/viswhere_stim/dot_no.png,None,Dot,None,Dot,1,0.0,0,5.125,0,5.125,0,5.125,0,0.0,0.625,0,0.0,0,0.0,1,0.5,1,2.125,0,0,0,0,0,0,0,0,0,,,,,0,17,17,17,,,,,,,,,190.72750679199817,190.72750679199817,190.72750679199817,190.72750679199817,190.72750679199817,190.72750679199817,190.72750679199817,190.72750679199817,190.7084668336126,190.72750679199817,190.72750679199817,190.72750679199817,190.7084668336126,190.72750679199817,190.72750679199817,190.72750679199817,192.82514224998886,196.78293495898833,190.72750679199817,190.72750679199817,195.86654358397936,191.20329079194926,192.21517904195935,192.82514224998886,193.8414024169906,190.72750679199817,190.72750679199817,190.7084668336126,190.72750679199817,190.72750679199817,190.72750679199817,190.7084668336126,190.72750679199817,190.72750679199817,195.86654358397936,190.72750679199817,195.86654358397936,195.95425862498814,196.58137987495866,190.72750679199817,1,1,1.028460541041568,reldom2_s028,001,2025-03-04_12h35.02.838,Vis-A-Scan_AC,2022.2.5,None,
14,First_Order,3.0,viswhere,stimulus/viswhere_stim/blank_white.png,stimulus/viswhere_stim/blank_white.png,stimulus/viswhere_stim/30-deg_dot-left_royalblue.png,stimulus/viswhere_stim/30-deg_dot-right_peru.png,stimulus/viswhere_stim/blank_white.png,stimulus/viswhere_stim/dot_box.png,stimulus/viswhere_stim/dot_yes.png,stimulus/viswhere_stim/dot_no.png,None,Dot,None,Line,2,0.0,0,5.125,0,5.125,0,5.125,0,0.0,0.625,0,0.0,0,0.0,1,0.5,1,2.125,0,0,0,0,0,0,0,0,0,,,,,0,18,18,18,,,,,,,,,196.78293495898833,196.78293495898833,196.78293495898833,196.78293495898833,196.78293495898833,196.78293495898833,196.78293495898833,196.78293495898833,196.7617526673324,196.78293495898833,196.78293495898833,196.78293495898833,196.7617526673324,196.78293495898833,196.78293495898833,196.78293495898833,198.89758541696938,202.8505525419605,196.78293495898833,196.78293495898833,201.91974624997238,197.25901895895367,198.27017412497662,198.89758541696938,199.91516895894893,196.78293495898833,196.78293495898833,196.77841933399907,196.78293495898833,196.78293495898833,196.78293495898833,196.77841933399907,196.78293495898833,196.78293495898833,201.91974624997238,196.78293495898833,201.91974624997238,202.00133462494705,202.63132849999238,196.78293495898833,2,1,1.3072843320551328,reldom2_s028,001,2025-03-04_12h35.02.838,Vis-A-Scan_AC,2022.2.5,None,
15,First_Order,3.0,viswhere,stimulus/viswhere_stim/blank_white.png,stimulus/viswhere_stim/blank_white.png,stimulus/viswhere_stim/150-deg_dot-right_turquoise.png,stimulus/viswhere_stim/150-deg_dot-left_cyan.png,stimulus/viswhere_stim/blank_white.png,stimulus/viswhere_stim/line_box.png,stimulus/viswhere_stim/line_yes.png,stimulus/viswhere_stim/line_no.png,None,Line,None,Line,1,0.0,0,5.125,0,5.125,0,5.125,0,0.0,0.625,0,0.0,0,0.0,1,0.5,1,2.125,0,0,0,0,0,0,0,0,0,,,,,0,19,19,19,,,,,,,,,202.8505525419605,202.8505525419605,202.8505525419605,202.8505525419605,202.8505525419605,202.8505525419605,202.8505525419605,202.8505525419605,202.82901912527936,202.8505525419605,202.8505525419605,202.8505525419605,202.82901912527936,202.8505525419605,202.8505525419605,202.8505525419605,204.95967316697352,208.91532983398065,202.8505525419605,202.8505525419605,207.98380516696488,203.3330716670025,204.34189416695153,204.95967316697352,205.97153145895572,202.8505525419605,202.8505525419605,202.84568579194604,202.8505525419605,202.8505525419605,202.8505525419605,202.84568579194604,202.8505525419605,202.8505525419605,207.98380516696488,202.8505525419605,207.98380516696488,208.07208841695683,208.69738204195164,202.8505525419605,1,1,1.3919567500124685,reldom2_s028,001,2025-03-04_12h35.02.838,Vis-A-Scan_AC,2022.2.5,None,
16,First_Order,3.0,viswhere,stimulus/viswhere_stim/blank_white.png,stimulus/viswhere_stim/blank_white.png,stimulus/viswhere_stim/120-deg_dot-right_mediumslateblue.png,stimulus/viswhere_stim/150-deg_dot-right_royalblue.png,stimulus/viswhere_stim/blank_white.png,stimulus/viswhere_stim/line_box.png,stimulus/viswhere_stim/line_yes.png,stimulus/viswhere_stim/line_no.png,None,Line,None,Dot,2,0.0,0,5.125,0,5.125,0,5.125,0,0.0,0.625,0,0.0,0,0.0,1,0.5,1,2.125,0,0,0,0,0,0,0,0,0,,,,,0,20,20,20,,,,,,,,,208.91532983398065,208.91532983398065,208.91532983398065,208.91532983398065,208.91532983398065,208.91532983398065,208.91532983398065,208.91532983398065,208.89299716732543,208.91532983398065,208.91532983398065,208.91532983398065,208.89299716732543,208.91532983398065,208.91532983398065,208.91532983398065,211.0283190839691,215.05993849999504,208.91532983398065,208.91532983398065,214.05523245898075,209.39441395900212,210.39627145900158,211.0283190839691,212.03343495895388,208.91532983398065,208.91532983398065,208.9096638339921,208.91532983398065,208.91532983398065,208.91532983398065,208.9096638339921,208.91532983398065,208.91532983398065,214.05523245898075,208.91532983398065,214.05523245898075,214.1385859999573,214.76721712498693,208.91532983398065,2,1,1.4290608320734464,reldom2_s028,001,2025-03-04_12h35.02.838,Vis-A-Scan_AC,2022.2.5,None,
0,0.0,None,fixation,stimulus/viswhat_stim/blank_white.png,stimulus/viswhat_stim/blank_white.png,stimulus/viswhere_stim/blank_white.png,stimulus/viswhere_stim/blank_white.png,stimulus/viswhat_stim/blank_white.png,stimulus/viswhat_stim/blank_white.png,stimulus/viswhat_stim/blank_white.png,stimulus/viswhat_stim/blank_white.png,0.0,0.0,0.0,0.0,0,0.0,0,0.0,0,0.0,0,0.0,0,0.0,0.0,0,0.0,0,0.0,0,0.0,0,0.0,0,0,0,0,0,0,0,0,8,,,,,0,21,21,21,,,,,,,,,215.05993849999504,215.05993849999504,215.05993849999504,215.05993849999504,215.05993849999504,215.05993849999504,215.05993849999504,215.05993849999504,214.96100254230745,215.05993849999504,215.05993849999504,215.05993849999504,214.96100254230745,215.05993849999504,215.05993849999504,215.05993849999504,215.05993849999504,215.05993849999504,215.05993849999504,215.05993849999504,215.05993849999504,215.05993849999504,215.05993849999504,215.05993849999504,215.05993849999504,215.05993849999504,215.05993849999504,215.01100254230747,215.05993849999504,215.05993849999504,215.05993849999504,215.01100254230747,215.05993849999504,215.05993849999504,215.05993849999504,215.05993849999504,215.05993849999504,220.2504072499578,220.2504072499578,223.2074936249992,None,0,,reldom2_s028,001,2025-03-04_12h35.02.838,Vis-A-Scan_AC,2022.2.5,None,
17,Second_Order,3.0,viswhere,stimulus/viswhere_stim/60-deg_dot-right_seagreen.png,stimulus/viswhere_stim/150-deg_dot-right_seagreen.png,stimulus/viswhere_stim/90-deg_dot-right_salmon.png,stimulus/viswhere_stim/90-deg_dot-left_seagreen.png,stimulus/viswhat_stim/match_blank.png,stimulus/viswhat_stim/match_box.png,stimulus/viswhat_stim/match_yes.png,stimulus/viswhat_stim/match_no.png,2.0,Match,Dot,Line,2,5.125,0,5.125,0,5.125,0,5.125,0,0.75,0.75,1,0.5,1,2.125,1,0.5,1,2.125,0,0,0,0,0,0,0,0,0,,,,,0,22,22,22,,,,,,,,,223.2074936249992,228.32678770896746,223.68152949999785,224.6804835840012,225.315287958947,226.30479454196757,223.2074936249992,223.2074936249992,223.22101066730298,223.2074936249992,223.2074936249992,223.2074936249992,223.22101066730298,223.2074936249992,228.32678770896746,229.1215004589758,231.20253699994646,235.05804129195167,229.1215004589758,229.1215004589758,234.25183229194954,229.56739620899316,230.5693743749871,231.20253699994646,232.21050079195993,229.1215004589758,229.1215004589758,229.1104684999562,229.1215004589758,229.1215004589758,229.1215004589758,229.1104684999562,229.1215004589758,229.1215004589758,234.25183229194954,229.1215004589758,234.25183229194954,234.3210921669961,235.0951517499634,229.1215004589758,2,1,0.6569646240677685,reldom2_s028,001,2025-03-04_12h35.02.838,Vis-A-Scan_AC,2022.2.5,None,
18,Second_Order,3.0,viswhere,stimulus/viswhere_stim/150-deg_dot-right_goldenrod.png,stimulus/viswhere_stim/150-deg_dot-left_cyan.png,stimulus/viswhere_stim/120-deg_dot-left_royalblue.png,stimulus/viswhere_stim/60-deg_dot-left_royalblue.png,stimulus/viswhat_stim/match_blank.png,stimulus/viswhat_stim/match_box.png,stimulus/viswhat_stim/match_yes.png,stimulus/viswhat_stim/match_no.png,2.0,Match,Line,Dot,2,5.125,0,5.125,0,5.125,0,5.125,0,0.625,0.625,1,0.5,1,2.125,1,0.5,1,2.125,0,0,0,0,0,0,0,0,0,,,,,0,23,23,23,,,,,,,,,235.0951517499634,240.2164531669696,235.57475145894568,236.56139079196146,237.19690679199994,238.1946877919836,235.0951517499634,235.0951517499634,235.10804129195168,235.0951517499634,235.0951517499634,235.0951517499634,235.10804129195168,235.0951517499634,240.2164531669696,240.89215462497668,242.97435820900137,247.01375487499172,240.89215462497668,240.89215462497668,246.02290841698414,241.35277979198145,242.36603712500073,242.97435820900137,243.99459741695318,240.89215462497668,240.89215462497668,240.86788962531915,240.89215462497668,240.89215462497668,240.89215462497668,240.86788962531915,240.89215462497668,240.89215462497668,246.02290841698414,240.89215462497668,246.02290841698414,246.09299441694748,246.71765870897798,240.89215462497668,2,1,0.8628762500011362,reldom2_s028,001,2025-03-04_12h35.02.838,Vis-A-Scan_AC,2022.2.5,None,
0,0.0,None,fixation,stimulus/viswhat_stim/blank_white.png,stimulus/viswhat_stim/blank_white.png,stimulus/viswhere_stim/blank_white.png,stimulus/viswhere_stim/blank_white.png,stimulus/viswhat_stim/blank_white.png,stimulus/viswhat_stim/blank_white.png,stimulus/viswhat_stim/blank_white.png,stimulus/viswhat_stim/blank_white.png,0.0,0.0,0.0,0.0,0,0.0,0,0.0,0,0.0,0,0.0,0,0.0,0.0,0,0.0,0,0.0,0,0.0,0,0.0,0,0,0,0,0,0,0,0,10,,,,,0,24,24,24,,,,,,,,,247.01375487499172,247.01375487499172,247.01375487499172,247.01375487499172,247.01375487499172,247.01375487499172,247.01375487499172,247.01375487499172,246.91420008331383,247.01375487499172,247.01375487499172,247.01375487499172,246.91420008331383,247.01375487499172,247.01375487499172,247.01375487499172,247.01375487499172,247.01375487499172,247.01375487499172,247.01375487499172,247.01375487499172,247.01375487499172,247.01375487499172,247.01375487499172,247.01375487499172,247.01375487499172,247.01375487499172,246.96420008331384,247.01375487499172,247.01375487499172,247.01375487499172,246.96420008331384,247.01375487499172,247.01375487499172,247.01375487499172,247.01375487499172,247.01375487499172,252.22839412494795,252.22839412494795,257.209786374995,None,0,,reldom2_s028,001,2025-03-04_12h35.02.838,Vis-A-Scan_AC,2022.2.5,None,
19,First_Order,4.0,viswhere,stimulus/viswhere_stim/blank_white.png,stimulus/viswhere_stim/blank_white.png,stimulus/viswhere_stim/90-deg_dot-right_royalblue.png,stimulus/viswhere_stim/120-deg_dot-right_goldenrod.png,stimulus/viswhere_stim/blank_white.png,stimulus/viswhere_stim/dot_box.png,stimulus/viswhere_stim/dot_yes.png,stimulus/viswhere_stim/dot_no.png,None,Dot,None,Dot,1,0.0,0,5.125,0,5.125,0,5.125,0,0.0,0.625,0,0.0,0,0.0,1,0.5,1,2.125,0,0,0,0,0,0,0,0,0,,,,,0,25,25,25,,,,,,,,,257.209786374995,257.209786374995,257.209786374995,257.209786374995,257.209786374995,257.209786374995,257.209786374995,257.209786374995,257.19059854161844,257.209786374995,257.209786374995,257.209786374995,257.19059854161844,257.209786374995,257.209786374995,257.209786374995,259.30735879199347,263.2758327499614,257.209786374995,257.209786374995,262.3332310419646,257.6874259589822,258.699637083977,259.30735879199347,260.32610041694716,257.209786374995,257.209786374995,257.19059854161844,257.209786374995,257.209786374995,257.209786374995,257.19059854161844,257.209786374995,257.209786374995,262.3332310419646,257.209786374995,262.3332310419646,262.4303419999778,263.06206579197897,257.209786374995,1,1,1.0947376660187729,reldom2_s028,001,2025-03-04_12h35.02.838,Vis-A-Scan_AC,2022.2.5,None,
20,First_Order,4.0,viswhere,stimulus/viswhere_stim/blank_white.png,stimulus/viswhere_stim/blank_white.png,stimulus/viswhere_stim/90-deg_dot-left_peru.png,stimulus/viswhere_stim/90-deg_dot-right_royalblue.png,stimulus/viswhere_stim/blank_white.png,stimulus/viswhere_stim/dot_box.png,stimulus/viswhere_stim/dot_yes.png,stimulus/viswhere_stim/dot_no.png,None,Dot,None,Line,2,0.0,0,5.125,0,5.125,0,5.125,0,0.0,0.625,0,0.0,0,0.0,1,0.5,1,2.125,0,0,0,0,0,0,0,0,0,,,,,0,26,26,26,,,,,,,,,263.2758327499614,263.2758327499614,263.2758327499614,263.2758327499614,263.2758327499614,263.2758327499614,263.2758327499614,263.2758327499614,263.25583137533005,263.2758327499614,263.2758327499614,263.2758327499614,263.25583137533005,263.2758327499614,263.2758327499614,263.2758327499614,265.38146241696086,269.33931137499167,263.2758327499614,263.2758327499614,268.4140595419449,263.7534684999846,264.7707764589577,265.38146241696086,266.3860679999925,263.2758327499614,263.2758327499614,263.2724980419967,263.2758327499614,263.2758327499614,263.2758327499614,263.2724980419967,263.2758327499614,263.2758327499614,268.4140595419449,263.2758327499614,268.4140595419449,268.4974449169822,269.12276037497213,263.2758327499614,2,1,0.49816162401111796,reldom2_s028,001,2025-03-04_12h35.02.838,Vis-A-Scan_AC,2022.2.5,None,
21,First_Order,4.0,viswhere,stimulus/viswhere_stim/blank_white.png,stimulus/viswhere_stim/blank_white.png,stimulus/viswhere_stim/120-deg_dot-left_cyan.png,stimulus/viswhere_stim/150-deg_dot-left_seagreen.png,stimulus/viswhere_stim/blank_white.png,stimulus/viswhere_stim/line_box.png,stimulus/viswhere_stim/line_yes.png,stimulus/viswhere_stim/line_no.png,None,Line,None,Dot,2,0.0,0,5.125,0,5.125,0,5.125,0,0.0,0.625,0,0.0,0,0.0,1,0.5,1,2.125,0,0,0,0,0,0,0,0,0,,,,,0,27,27,27,,,,,,,,,269.33931137499167,269.33931137499167,269.33931137499167,269.33931137499167,269.33931137499167,269.33931137499167,269.33931137499167,269.33931137499167,269.3182302083199,269.33931137499167,269.33931137499167,269.33931137499167,269.3182302083199,269.33931137499167,269.33931137499167,269.33931137499167,271.4380482089473,275.4085356669966,269.33931137499167,269.33931137499167,274.4696568339714,269.8231674999697,270.84327637497336,271.4380482089473,272.4485282919486,269.33931137499167,269.33931137499167,269.33489687498655,269.33931137499167,269.33931137499167,269.33931137499167,269.33489687498655,269.33931137499167,269.33931137499167,274.4696568339714,269.33931137499167,274.4696568339714,274.5664993339451,275.1933160419576,269.33931137499167,2,1,0.6709407080779783,reldom2_s028,001,2025-03-04_12h35.02.838,Vis-A-Scan_AC,2022.2.5,None,
22,First_Order,4.0,viswhere,stimulus/viswhere_stim/blank_white.png,stimulus/viswhere_stim/blank_white.png,stimulus/viswhere_stim/150-deg_dot-right_seagreen.png,stimulus/viswhere_stim/150-deg_dot-left_slateblue.png,stimulus/viswhere_stim/blank_white.png,stimulus/viswhere_stim/line_box.png,stimulus/viswhere_stim/line_yes.png,stimulus/viswhere_stim/line_no.png,None,Line,None,Line,1,0.0,0,5.125,0,5.125,0,5.125,0,0.0,0.625,0,0.0,0,0.0,1,0.5,1,2.125,0,0,0,0,0,0,0,0,0,,,,,0,28,28,28,,,,,,,,,275.4085356669966,275.4085356669966,275.4085356669966,275.4085356669966,275.4085356669966,275.4085356669966,275.4085356669966,275.4085356669966,275.38740225033445,275.4085356669966,275.4085356669966,275.4085356669966,275.38740225033445,275.4085356669966,275.4085356669966,275.4085356669966,277.51609570899745,281.5496972919791,275.4085356669966,275.4085356669966,280.542018749984,275.8933624170022,276.89879866695264,277.51609570899745,278.52880562498467,275.4085356669966,275.4085356669966,275.4040689170011,275.4085356669966,275.4085356669966,275.4085356669966,275.4040689170011,275.4085356669966,275.4085356669966,280.542018749984,275.4085356669966,280.542018749984,280.64239079196705,281.2711053339881,275.4085356669966,1,1,0.8834431660361588,reldom2_s028,001,2025-03-04_12h35.02.838,Vis-A-Scan_AC,2022.2.5,None,
0,0.0,None,fixation,stimulus/viswhat_stim/blank_white.png,stimulus/viswhat_stim/blank_white.png,stimulus/viswhere_stim/blank_white.png,stimulus/viswhere_stim/blank_white.png,stimulus/viswhat_stim/blank_white.png,stimulus/viswhat_stim/blank_white.png,stimulus/viswhat_stim/blank_white.png,stimulus/viswhat_stim/blank_white.png,0.0,0.0,0.0,0.0,0,0.0,0,0.0,0,0.0,0,0.0,0,0.0,0.0,0,0.0,0,0.0,0,0.0,0,0.0,0,0,0,0,0,0,0,0,9,,,,,0,29,29,29,,,,,,,,,281.5496972919791,281.5496972919791,281.5496972919791,281.5496972919791,281.5496972919791,281.5496972919791,281.5496972919791,281.5496972919791,281.45151187528,281.5496972919791,281.5496972919791,281.5496972919791,281.45151187528,281.5496972919791,281.5496972919791,281.5496972919791,281.5496972919791,281.5496972919791,281.5496972919791,281.5496972919791,281.5496972919791,281.5496972919791,281.5496972919791,281.5496972919791,281.5496972919791,281.5496972919791,281.5496972919791,281.50151187528,281.5496972919791,281.5496972919791,281.5496972919791,281.50151187528,281.5496972919791,281.5496972919791,281.5496972919791,281.5496972919791,281.5496972919791,286.7588294589659,286.7588294589659,290.68465291697066,None,0,,reldom2_s028,001,2025-03-04_12h35.02.838,Vis-A-Scan_AC,2022.2.5,None,
23,Second_Order,4.0,viswhere,stimulus/viswhere_stim/90-deg_dot-right_salmon.png,stimulus/viswhere_stim/150-deg_dot-right_seagreen.png,stimulus/viswhere_stim/150-deg_dot-right_mediumslateblue.png,stimulus/viswhere_stim/150-deg_dot-left_lightsseagreen.png,stimulus/viswhat_stim/match_blank.png,stimulus/viswhat_stim/match_box.png,stimulus/viswhat_stim/match_yes.png,stimulus/viswhat_stim/match_no.png,2.0,Match,Dot,Line,2,5.125,0,5.125,0,5.125,0,5.125,0,0.75,0.75,1,0.5,1,2.125,1,0.5,1,2.125,0,0,0,0,0,0,0,0,0,,,,,0,30,30,30,,,,,,,,,290.68465291697066,295.8002392919734,291.1675085419556,292.15689387498423,292.79223941697273,293.79008129198337,290.68465291697066,290.68465291697066,290.69884816729075,290.68465291697066,290.68465291697066,290.68465291697066,290.69884816729075,290.68465291697066,295.8002392919734,296.5939262089669,298.6704386670026,302.5603032919462,296.5939262089669,296.5939262089669,301.72716383397346,297.0426947089727,298.0516912919702,298.6704386670026,299.68437454197556,296.5939262089669,296.5939262089669,296.58336479194696,296.5939262089669,296.5939262089669,296.5939262089669,296.58336479194696,296.5939262089669,296.5939262089669,301.72716383397346,296.5939262089669,301.72716383397346,301.7836533339578,302.5603032919462,296.5939262089669,2,1,0.9845830830163322,reldom2_s028,001,2025-03-04_12h35.02.838,Vis-A-Scan_AC,2022.2.5,None,
24,Second_Order,4.0,viswhere,stimulus/viswhere_stim/90-deg_dot-left_cyan.png,stimulus/viswhere_stim/60-deg_dot-left_slateblue.png,stimulus/viswhere_stim/120-deg_dot-right_goldenrod.png,stimulus/viswhere_stim/90-deg_dot-right_seagreen.png,stimulus/viswhat_stim/match_blank.png,stimulus/viswhat_stim/match_box.png,stimulus/viswhat_stim/match_yes.png,stimulus/viswhat_stim/match_no.png,1.0,Match,Dot,Dot,1,5.125,0,5.125,0,5.125,0,5.125,0,0.625,0.625,1,0.5,1,2.125,1,0.5,1,2.125,0,0,0,0,0,0,0,0,0,,,,,0,31,31,31,,,,,,,,,302.5603032919462,307.6772629999905,303.0446959169931,304.0342371669831,304.6712576249847,305.66758020897396,302.5603032919462,302.5603032919462,302.57328783395934,302.5603032919462,302.5603032919462,302.5603032919462,302.57328783395934,302.5603032919462,307.6772629999905,308.3468956669676,310.41982529195957,314.46968074998586,308.3468956669676,308.3468956669676,313.47981516696746,308.8106150419917,309.82687724998686,310.41982529195957,311.423747874971,308.3468956669676,308.3468956669676,308.3236835833018,308.3468956669676,308.3468956669676,308.3468956669676,308.3236835833018,308.3468956669676,308.3468956669676,313.47981516696746,308.3468956669676,313.47981516696746,313.54881687497254,314.1736997089465,308.3468956669676,1,1,0.7791178320767358,reldom2_s028,001,2025-03-04_12h35.02.838,Vis-A-Scan_AC,2022.2.5,None,
0,0.0,None,fixation,stimulus/viswhat_stim/blank_white.png,stimulus/viswhat_stim/blank_white.png,stimulus/viswhere_stim/blank_white.png,stimulus/viswhere_stim/blank_white.png,stimulus/viswhat_stim/blank_white.png,stimulus/viswhat_stim/blank_white.png,stimulus/viswhat_stim/blank_white.png,stimulus/viswhat_stim/blank_white.png,0.0,0.0,0.0,0.0,0,0.0,0,0.0,0,0.0,0,0.0,0,0.0,0.0,0,0.0,0,0.0,0,0.0,0,0.0,0,0,0,0,0,0,0,0,10,,,,,0,32,32,32,,,,,,,,,314.46968074998586,314.46968074998586,314.46968074998586,314.46968074998586,314.46968074998586,314.46968074998586,314.46968074998586,314.46968074998586,314.3699893753122,314.46968074998586,314.46968074998586,314.46968074998586,314.3699893753122,314.46968074998586,314.46968074998586,314.46968074998586,314.46968074998586,314.46968074998586,314.46968074998586,314.46968074998586,314.46968074998586,314.46968074998586,314.46968074998586,314.46968074998586,314.46968074998586,314.46968074998586,314.46968074998586,314.4199893753122,314.46968074998586,314.46968074998586,314.46968074998586,314.4199893753122,314.46968074998586,314.46968074998586,314.46968074998586,314.46968074998586,314.46968074998586,319.6950428339769,319.6950428339769,324.70973229198717,None,0,,reldom2_s028,001,2025-03-04_12h35.02.838,Vis-A-Scan_AC,2022.2.5,None,
25,First_Order,5.0,viswhat,stimulus/viswhat_stim/blank_white.png,stimulus/viswhat_stim/blank_white.png,stimulus/viswhat_stim/land_vehicle-shortbus.png,stimulus/viswhat_stim/land_animal-pig.png,stimulus/viswhat_stim/blank_white.png,stimulus/viswhat_stim/location_box.png,stimulus/viswhat_stim/location_yes.png,stimulus/viswhat_stim/location_no.png,None,Location,None,Location,1,0.0,0,5.125,0,5.125,0,5.125,0,0.0,0.625,0,0.0,0,0.0,1,0.5,1,2.125,0,0,0,0,0,0,0,0,0,,,,,0,33,33,33,,,,,,,,,324.70973229198717,324.70973229198717,324.70973229198717,324.70973229198717,324.70973229198717,324.70973229198717,324.70973229198717,324.70973229198717,324.6710437086682,324.70973229198717,324.70973229198717,324.70973229198717,324.6710437086682,324.70973229198717,324.70973229198717,324.70973229198717,326.813592624967,330.83670520898886,324.70973229198717,324.70973229198717,329.8561845419463,325.17666041699704,326.20185354194837,326.813592624967,327.8415588339558,324.70973229198717,324.70973229198717,324.6877103753349,324.70973229198717,324.70973229198717,324.70973229198717,324.6877103753349,324.70973229198717,324.70973229198717,329.8561845419463,324.70973229198717,329.8561845419463,329.9265727089951,330.560209208983,324.70973229198717,1,1,0.7752327490597963,reldom2_s028,001,2025-03-04_12h35.02.838,Vis-A-Scan_AC,2022.2.5,None,
26,First_Order,5.0,viswhat,stimulus/viswhat_stim/blank_white.png,stimulus/viswhat_stim/blank_white.png,stimulus/viswhat_stim/land_vehicle-rv.png,stimulus/viswhat_stim/land_animal-bunny.png,stimulus/viswhat_stim/blank_white.png,stimulus/viswhat_stim/type_box.png,stimulus/viswhat_stim/type_yes.png,stimulus/viswhat_stim/type_no.png,None,Type,None,Location,2,0.0,0,5.125,0,5.125,0,5.125,0,0.0,0.625,0,0.0,0,0.0,1,0.5,1,2.125,0,0,0,0,0,0,0,0,0,,,,,0,34,34,34,,,,,,,,,330.83670520898886,330.83670520898886,330.83670520898886,330.83670520898886,330.83670520898886,330.83670520898886,330.83670520898886,330.83670520898886,330.7538178749615,330.83670520898886,330.83670520898886,330.83670520898886,330.7538178749615,330.83670520898886,330.83670520898886,330.83670520898886,332.93447120895144,,330.83670520898886,330.83670520898886,335.99358349997783,331.3135319589637,332.3636072499794,332.93447120895144,333.98948058398673,330.83670520898886,330.83670520898886,330.8038178749615,330.83670520898886,330.83670520898886,330.83670520898886,330.8038178749615,330.83670520898886,330.83670520898886,335.99358349997783,330.83670520898886,335.99358349997783,336.0357716669678,336.70841204194585,330.83670520898886,2,1,1.0052342080161907,reldom2_s028,001,2025-03-04_12h35.02.838,Vis-A-Scan_AC,2022.2.5,None,
27,First_Order,5.0,viswhat,stimulus/viswhat_stim/blank_white.png,stimulus/viswhat_stim/blank_white.png,stimulus/viswhat_stim/land_animal-zebra.png,stimulus/viswhat_stim/land_vehicle-oldcar.png,stimulus/viswhat_stim/blank_white.png,stimulus/viswhat_stim/location_box.png,stimulus/viswhat_stim/location_yes.png,stimulus/viswhat_stim/location_no.png,None,Location,None,Location,1,0.0,0,5.125,0,5.125,0,5.125,0,0.0,0.625,0,0.0,0,0.0,1,0.5,1,2.125,0,0,0,0,0,0,0,0,0,,,,,0,35,35,35,,,,,,,,,336.918956458976,336.918956458976,336.918956458976,336.918956458976,336.918956458976,336.918956458976,336.918956458976,336.918956458976,336.8417453752792,336.918956458976,336.918956458976,336.918956458976,336.8417453752792,336.918956458976,336.918956458976,336.918956458976,339.03490241698455,,336.918956458976,336.918956458976,342.0830769169843,337.40262274997076,338.4616816669586,339.03490241698455,340.1015624589636,336.918956458976,336.918956458976,336.8750787086125,336.918956458976,336.918956458976,336.918956458976,336.8750787086125,336.918956458976,336.918956458976,342.0830769169843,336.918956458976,342.0830769169843,342.12188445898937,342.77573875000235,336.918956458976,1,1,0.7825860410230234,reldom2_s028,001,2025-03-04_12h35.02.838,Vis-A-Scan_AC,2022.2.5,None,
28,First_Order,5.0,viswhat,stimulus/viswhat_stim/blank_white.png,stimulus/viswhat_stim/blank_white.png,stimulus/viswhat_stim/water_vehicle-canoe.png,stimulus/viswhat_stim/land_vehicle-trolley.png,stimulus/viswhat_stim/blank_white.png,stimulus/viswhat_stim/type_box.png,stimulus/viswhat_stim/type_yes.png,stimulus/viswhat_stim/type_no.png,None,Type,None,Type,1,0.0,0,5.125,0,5.125,0,5.125,0,0.0,0.625,0,0.0,0,0.0,1,0.5,1,2.125,0,0,0,0,0,0,0,0,0,,,,,0,36,36,36,,,,,,,,,342.9817415839643,342.9817415839643,342.9817415839643,342.9817415839643,342.9817415839643,342.9817415839643,342.9817415839643,342.9817415839643,342.9472861673295,342.9817415839643,342.9817415839643,342.9817415839643,342.9472861673295,342.9817415839643,342.9817415839643,342.9817415839643,345.0927238749573,349.13236616697395,342.9817415839643,342.9817415839643,348.1130719999783,343.4701486249687,344.50167845899705,345.0927238749573,346.10197887499817,342.9817415839643,342.9817415839643,342.96395283399613,342.9817415839643,342.9817415839643,342.9817415839643,342.96395283399613,342.9817415839643,342.9817415839643,348.1130719999783,342.9817415839643,348.1130719999783,348.19337179197464,348.8377070419956,342.9817415839643,1,1,1.4661815410363488,reldom2_s028,001,2025-03-04_12h35.02.838,Vis-A-Scan_AC,2022.2.5,None,
0,0.0,None,fixation,stimulus/viswhat_stim/blank_white.png,stimulus/viswhat_stim/blank_white.png,stimulus/viswhere_stim/blank_white.png,stimulus/viswhere_stim/blank_white.png,stimulus/viswhat_stim/blank_white.png,stimulus/viswhat_stim/blank_white.png,stimulus/viswhat_stim/blank_white.png,stimulus/viswhat_stim/blank_white.png,0.0,0.0,0.0,0.0,0,0.0,0,0.0,0,0.0,0,0.0,0,0.0,0.0,0,0.0,0,0.0,0,0.0,0,0.0,0,0,0,0,0,0,0,0,9,,,,,0,37,37,37,,,,,,,,,349.13236616697395,349.13236616697395,349.13236616697395,349.13236616697395,349.13236616697395,349.13236616697395,349.13236616697395,349.13236616697395,349.0373933339957,349.13236616697395,349.13236616697395,349.13236616697395,349.0373933339957,349.13236616697395,349.13236616697395,349.13236616697395,349.13236616697395,349.13236616697395,349.13236616697395,349.13236616697395,349.13236616697395,349.13236616697395,349.13236616697395,349.13236616697395,349.13236616697395,349.13236616697395,349.13236616697395,349.0873933339957,349.13236616697395,349.13236616697395,349.13236616697395,349.0873933339957,349.13236616697395,349.13236616697395,349.13236616697395,349.13236616697395,349.13236616697395,354.34208833397133,354.34208833397133,358.2795372499968,None,0,,reldom2_s028,001,2025-03-04_12h35.02.838,Vis-A-Scan_AC,2022.2.5,None,
29,Second_Order,5.0,viswhat,stimulus/viswhat_stim/land_vehicle-schoolbus.png,stimulus/viswhat_stim/land_animal-snake.png,stimulus/viswhat_stim/water_vehicle-cruiser.png,stimulus/viswhat_stim/water_animal-whale.png,stimulus/viswhat_stim/match_blank.png,stimulus/viswhat_stim/match_box.png,stimulus/viswhat_stim/match_yes.png,stimulus/viswhat_stim/match_no.png,1.0,Match,Location,Location,1,5.125,0,5.125,0,5.125,0,5.125,0,0.75,0.75,1,0.5,1,2.125,1,0.5,1,2.125,0,0,0,0,0,0,0,0,0,,,,,0,38,38,38,,,,,,,,,358.2795372499968,363.40078641695436,358.7567749169539,359.7465522089624,360.3819326669909,361.3796992919524,358.2795372499968,358.2795372499968,358.287480458299,358.2795372499968,358.2795372499968,358.2795372499968,358.287480458299,358.2795372499968,363.40078641695436,364.30258524999954,366.37143004196696,,364.30258524999954,364.30258524999954,369.54100199998356,364.71652104199165,365.82075887499377,366.37143004196696,367.47846808395116,364.30258524999954,364.30258524999954,364.23593712495637,364.30258524999954,364.30258524999954,364.30258524999954,364.23593712495637,364.30258524999954,364.30258524999954,369.54100199998356,364.30258524999954,369.54100199998356,369.4774503749795,,364.30258524999954,1,1,0.7203994570299983,reldom2_s028,001,2025-03-04_12h35.02.838,Vis-A-Scan_AC,2022.2.5,None,
30,Second_Order,5.0,viswhat,stimulus/viswhat_stim/land_vehicle-tank.png,stimulus/viswhat_stim/water_vehicle-cabincruiser.png,stimulus/viswhat_stim/land_animal-pig.png,stimulus/viswhat_stim/water_animal-stingray.png,stimulus/viswhat_stim/match_blank.png,stimulus/viswhat_stim/match_box.png,stimulus/viswhat_stim/match_yes.png,stimulus/viswhat_stim/match_no.png,1.0,Match,Type,Type,1,5.125,0,5.125,0,5.125,0,5.125,0,0.625,0.625,1,0.5,1,2.125,1,0.5,1,2.125,0,0,0,0,0,0,0,0,0,,,,,0,39,39,39,,,,,,,,,370.26110191695625,375.38381983397994,370.71981979196426,371.7074780839612,372.35956758394605,373.35737845895346,370.26110191695625,370.26110191695625,370.26113354197,370.26110191695625,370.26110191695625,370.26110191695625,370.26113354197,370.26110191695625,375.38381983397994,376.0624617499998,378.1371782499482,382.18469933397137,376.0624617499998,376.0624617499998,381.202707083954,376.5191138339578,377.5255729169585,378.1371782499482,379.1480762089486,376.0624617499998,376.0624617499998,376.04692237499404,376.0624617499998,376.0624617499998,376.0624617499998,376.04692237499404,376.0624617499998,376.0624617499998,381.202707083954,376.0624617499998,381.202707083954,381.25162016699323,381.87857158394763,376.0624617499998,1,1,0.7122857080539688,reldom2_s028,001,2025-03-04_12h35.02.838,Vis-A-Scan_AC,2022.2.5,None,
0,0.0,None,fixation,stimulus/viswhat_stim/blank_white.png,stimulus/viswhat_stim/blank_white.png,stimulus/viswhere_stim/blank_white.png,stimulus/viswhere_stim/blank_white.png,stimulus/viswhat_stim/blank_white.png,stimulus/viswhat_stim/blank_white.png,stimulus/viswhat_stim/blank_white.png,stimulus/viswhat_stim/blank_white.png,0.0,0.0,0.0,0.0,0,0.0,0,0.0,0,0.0,0,0.0,0,0.0,0.0,0,0.0,0,0.0,0,0.0,0,0.0,0,0,0,0,0,0,0,0,10,,,,,0,40,40,40,,,,,,,,,382.18469933397137,382.18469933397137,382.18469933397137,382.18469933397137,382.18469933397137,382.18469933397137,382.18469933397137,382.18469933397137,382.07873408329516,382.18469933397137,382.18469933397137,382.18469933397137,382.07873408329516,382.18469933397137,382.18469933397137,382.18469933397137,382.18469933397137,382.18469933397137,382.18469933397137,382.18469933397137,382.18469933397137,382.18469933397137,382.18469933397137,382.18469933397137,382.18469933397137,382.18469933397137,382.18469933397137,382.1454007499618,382.18469933397137,382.18469933397137,382.18469933397137,382.1454007499618,382.18469933397137,382.18469933397137,382.18469933397137,382.18469933397137,382.18469933397137,387.41374958399683,387.41374958399683,392.3636176249711,None,0,,reldom2_s028,001,2025-03-04_12h35.02.838,Vis-A-Scan_AC,2022.2.5,None,
31,First_Order,6.0,viswhat,stimulus/viswhat_stim/blank_white.png,stimulus/viswhat_stim/blank_white.png,stimulus/viswhat_stim/land_vehicle-rv.png,stimulus/viswhat_stim/land_animal-ostrich.png,stimulus/viswhat_stim/blank_white.png,stimulus/viswhat_stim/type_box.png,stimulus/viswhat_stim/type_yes.png,stimulus/viswhat_stim/type_no.png,None,Type,None,Location,2,0.0,0,5.125,0,5.125,0,5.125,0,0.0,0.625,0,0.0,0,0.0,1,0.5,1,2.125,0,0,0,0,0,0,0,0,0,,,,,0,41,41,41,,,,,,,,,392.3636176249711,392.3636176249711,392.3636176249711,392.3636176249711,392.3636176249711,392.3636176249711,392.3636176249711,392.3636176249711,392.3350875006678,392.3636176249711,392.3636176249711,392.3636176249711,392.3350875006678,392.3636176249711,392.3636176249711,392.3636176249711,394.45520574995317,398.50159124995116,392.3636176249711,392.3636176249711,397.51196908397833,392.84463229199173,393.8551439169678,394.45520574995317,395.46936579199973,392.3636176249711,392.3636176249711,392.3517541673345,392.3636176249711,392.3636176249711,392.3636176249711,392.3517541673345,392.3636176249711,392.3636176249711,397.51196908397833,392.3636176249711,397.51196908397833,397.5859280839795,398.21688570897095,392.3636176249711,2,1,1.2144889160408638,reldom2_s028,001,2025-03-04_12h35.02.838,Vis-A-Scan_AC,2022.2.5,None,
32,First_Order,6.0,viswhat,stimulus/viswhat_stim/blank_white.png,stimulus/viswhat_stim/blank_white.png,stimulus/viswhat_stim/land_animal-moose.png,stimulus/viswhat_stim/water_animal-dolphin.png,stimulus/viswhat_stim/blank_white.png,stimulus/viswhat_stim/type_box.png,stimulus/viswhat_stim/type_yes.png,stimulus/viswhat_stim/type_no.png,None,Type,None,Type,1,0.0,0,5.125,0,5.125,0,5.125,0,0.0,0.625,0,0.0,0,0.0,1,0.5,1,2.125,0,0,0,0,0,0,0,0,0,,,,,0,42,42,42,,,,,,,,,398.50159124995116,398.50159124995116,398.50159124995116,398.50159124995116,398.50159124995116,398.50159124995116,398.50159124995116,398.50159124995116,398.40775691696905,398.50159124995116,398.50159124995116,398.50159124995116,398.40775691696905,398.50159124995116,398.50159124995116,398.50159124995116,400.6104849589756,,398.50159124995116,398.50159124995116,403.71173404197907,398.96948816697113,400.02677050000057,400.6104849589756,401.6667551249848,398.50159124995116,398.50159124995116,398.45775691696906,398.50159124995116,398.50159124995116,398.50159124995116,398.45775691696906,398.50159124995116,398.50159124995116,403.71173404197907,398.50159124995116,403.71173404197907,403.71173404197907,404.5662052499829,398.50159124995116,1,1,1.0079325820552185,reldom2_s028,001,2025-03-04_12h35.02.838,Vis-A-Scan_AC,2022.2.5,None,
33,First_Order,6.0,viswhat,stimulus/viswhat_stim/blank_white.png,stimulus/viswhat_stim/blank_white.png,stimulus/viswhat_stim/land_vehicle-buldozer.png,stimulus/viswhat_stim/water_vehicle-canoe.png,stimulus/viswhat_stim/blank_white.png,stimulus/viswhat_stim/location_box.png,stimulus/viswhat_stim/location_yes.png,stimulus/viswhat_stim/location_no.png,None,Location,None,Type,2,0.0,0,5.125,0,5.125,0,5.125,0,0.0,0.625,0,0.0,0,0.0,1,0.5,1,2.125,0,0,0,0,0,0,0,0,0,,,,,0,43,43,43,,,,,,,,,404.5662052499829,404.5662052499829,404.5662052499829,404.5662052499829,404.5662052499829,404.5662052499829,404.5662052499829,404.5662052499829,404.51543487565743,404.5662052499829,404.5662052499829,404.5662052499829,404.51543487565743,404.5662052499829,404.5662052499829,404.5662052499829,406.6687532919459,,404.5662052499829,404.5662052499829,409.71905491699,405.0376121669542,406.09082816698356,406.6687532919459,407.72265399998287,404.5662052499829,404.5662052499829,404.53210154232414,404.5662052499829,404.5662052499829,404.5662052499829,404.53210154232414,404.5662052499829,404.5662052499829,409.71905491699,404.5662052499829,409.71905491699,409.78126191697083,410.4226037499611,404.5662052499829,2,1,1.8222967910114676,reldom2_s028,001,2025-03-04_12h35.02.838,Vis-A-Scan_AC,2022.2.5,None,
34,First_Order,6.0,viswhat,stimulus/viswhat_stim/blank_white.png,stimulus/viswhat_stim/blank_white.png,stimulus/viswhat_stim/land_vehicle-scooter.png,stimulus/viswhat_stim/water_vehicle-motorboatraft.png,stimulus/viswhat_stim/blank_white.png,stimulus/viswhat_stim/location_box.png,stimulus/viswhat_stim/location_yes.png,stimulus/viswhat_stim/location_no.png,None,Location,None,Type,2,0.0,0,5.125,0,5.125,0,5.125,0,0.0,0.625,0,0.0,0,0.0,1,0.5,1,2.125,0,0,0,0,0,0,0,0,0,,,,,0,44,44,44,,,,,,,,,410.6253026249469,410.6253026249469,410.6253026249469,410.6253026249469,410.6253026249469,410.6253026249469,410.6253026249469,410.6253026249469,410.60026145863037,410.6253026249469,410.6253026249469,410.6253026249469,410.60026145863037,410.6253026249469,410.6253026249469,410.6253026249469,412.7253436249448,416.7599472919828,410.6253026249469,410.6253026249469,415.76539358397713,411.10422654199647,412.12417912494857,412.7253436249448,413.7491849169601,410.6253026249469,410.6253026249469,410.616928125297,410.6253026249469,410.6253026249469,410.6253026249469,410.616928125297,410.6253026249469,410.6253026249469,415.76539358397713,410.6253026249469,415.76539358397713,415.8412261669873,416.4697971249698,410.6253026249469,2,1,0.7458447910612449,reldom2_s028,001,2025-03-04_12h35.02.838,Vis-A-Scan_AC,2022.2.5,None,
0,0.0,None,fixation,stimulus/viswhat_stim/blank_white.png,stimulus/viswhat_stim/blank_white.png,stimulus/viswhere_stim/blank_white.png,stimulus/viswhere_stim/blank_white.png,stimulus/viswhat_stim/blank_white.png,stimulus/viswhat_stim/blank_white.png,stimulus/viswhat_stim/blank_white.png,stimulus/viswhat_stim/blank_white.png,0.0,0.0,0.0,0.0,0,0.0,0,0.0,0,0.0,0,0.0,0,0.0,0.0,0,0.0,0,0.0,0,0.0,0,0.0,0,0,0,0,0,0,0,0,8,,,,,0,45,45,45,,,,,,,,,416.7599472919828,416.7599472919828,416.7599472919828,416.7599472919828,416.7599472919828,416.7599472919828,416.7599472919828,416.7599472919828,416.65864870833076,416.7599472919828,416.7599472919828,416.7599472919828,416.65864870833076,416.7599472919828,416.7599472919828,416.7599472919828,416.7599472919828,416.7599472919828,416.7599472919828,416.7599472919828,416.7599472919828,416.7599472919828,416.7599472919828,416.7599472919828,416.7599472919828,416.7599472919828,416.7599472919828,416.70864870833077,416.7599472919828,416.7599472919828,416.7599472919828,416.70864870833077,416.7599472919828,416.7599472919828,416.7599472919828,416.7599472919828,416.7599472919828,421.97352124995086,421.97352124995086,424.9239308749675,None,0,,reldom2_s028,001,2025-03-04_12h35.02.838,Vis-A-Scan_AC,2022.2.5,None,
35,Second_Order,6.0,viswhat,stimulus/viswhat_stim/land_vehicle-train.png,stimulus/viswhat_stim/land_animal-moose.png,stimulus/viswhat_stim/land_vehicle-schoolbus.png,stimulus/viswhat_stim/water_vehicle-sailboat.png,stimulus/viswhat_stim/match_blank.png,stimulus/viswhat_stim/match_box.png,stimulus/viswhat_stim/match_yes.png,stimulus/viswhat_stim/match_no.png,2.0,Match,Location,Type,2,5.125,0,5.125,0,5.125,0,5.125,0,0.75,0.75,1,0.5,1,2.125,1,0.5,1,2.125,0,0,0,0,0,0,0,0,0,,,,,0,46,46,46,,,,,,,,,424.9239308749675,430.04258049995406,425.3645078339614,426.3629837499466,426.9977114999783,427.9868756669457,424.9239308749675,424.9239308749675,424.9356058336367,424.9239308749675,424.9239308749675,424.9239308749675,424.9356058336367,424.9239308749675,430.04258049995406,430.90447374997893,432.96684029197786,,430.90447374997893,430.90447374997893,436.0583345419727,431.3157128749881,432.3997399589862,432.96684029197786,434.0024793749908,430.90447374997893,430.90447374997893,430.8600649582998,430.90447374997893,430.90447374997893,430.90447374997893,430.8600649582998,430.90447374997893,430.90447374997893,436.0583345419727,430.90447374997893,436.0583345419727,436.0583345419727,,430.90447374997893,2,1,0.7167766240308993,reldom2_s028,001,2025-03-04_12h35.02.838,Vis-A-Scan_AC,2022.2.5,None,
36,Second_Order,6.0,viswhat,stimulus/viswhat_stim/land_animal-moose.png,stimulus/viswhat_stim/land_vehicle-schoolbus.png,stimulus/viswhat_stim/land_vehicle-pickuptruck.png,stimulus/viswhat_stim/water_vehicle-canoe(1).png,stimulus/viswhat_stim/match_blank.png,stimulus/viswhat_stim/match_box.png,stimulus/viswhat_stim/match_yes.png,stimulus/viswhat_stim/match_no.png,2.0,Match,Location,Type,2,5.125,0,5.125,0,5.125,0,5.125,0,0.625,0.625,1,0.5,1,2.125,1,0.5,1,2.125,0,0,0,0,0,0,0,0,0,,,,,0,47,47,47,,,,,,,,,436.8875450839987,442.0037734169746,437.32363237498794,438.31124158395687,438.9588153339573,439.9477454169537,436.8875450839987,436.8875450839987,436.89646458396453,436.8875450839987,436.8875450839987,436.8875450839987,436.89646458396453,436.8875450839987,442.0037734169746,442.6841295839986,444.7573265839601,448.80563195899595,442.6841295839986,442.6841295839986,447.84529158397345,443.13846295897383,444.15375449997373,444.7573265839601,445.7796199589502,442.6841295839986,442.6841295839986,442.6672413749737,442.6841295839986,442.6841295839986,442.6841295839986,442.6672413749737,442.6841295839986,442.6841295839986,447.84529158397345,442.6841295839986,447.84529158397345,447.87800595897716,448.5160441249609,442.6841295839986,2,1,0.6142273750738241,reldom2_s028,001,2025-03-04_12h35.02.838,Vis-A-Scan_AC,2022.2.5,None,
0,0.0,None,fixation,stimulus/viswhat_stim/blank_white.png,stimulus/viswhat_stim/blank_white.png,stimulus/viswhere_stim/blank_white.png,stimulus/viswhere_stim/blank_white.png,stimulus/viswhat_stim/blank_white.png,stimulus/viswhat_stim/blank_white.png,stimulus/viswhat_stim/blank_white.png,stimulus/viswhat_stim/blank_white.png,0.0,0.0,0.0,0.0,0,0.0,0,0.0,0,0.0,0,0.0,0,0.0,0.0,0,0.0,0,0.0,0,0.0,0,0.0,0,0,0,0,0,0,0,0,8,,,,,0,48,48,48,,,,,,,,,448.80563195899595,448.80563195899595,448.80563195899595,448.80563195899595,448.80563195899595,448.80563195899595,448.80563195899595,448.80563195899595,448.6996083752795,448.80563195899595,448.80563195899595,448.80563195899595,448.6996083752795,448.80563195899595,448.80563195899595,448.80563195899595,448.80563195899595,448.80563195899595,448.80563195899595,448.80563195899595,448.80563195899595,448.80563195899595,448.80563195899595,448.80563195899595,448.80563195899595,448.80563195899595,448.80563195899595,448.7662750419462,448.80563195899595,448.80563195899595,448.80563195899595,448.7662750419462,448.80563195899595,448.80563195899595,448.80563195899595,448.80563195899595,448.80563195899595,454.03897595894523,454.03897595894523,457.00180595897837,None,0,,reldom2_s028,001,2025-03-04_12h35.02.838,Vis-A-Scan_AC,2022.2.5,None,
37,First_Order,7.0,viswhere,stimulus/viswhere_stim/blank_white.png,stimulus/viswhere_stim/blank_white.png,stimulus/viswhere_stim/120-deg_dot-right_turquoise.png,stimulus/viswhere_stim/120-deg_dot-left_slateblue.png,stimulus/viswhere_stim/blank_white.png,stimulus/viswhere_stim/line_box.png,stimulus/viswhere_stim/line_yes.png,stimulus/viswhere_stim/line_no.png,None,Line,None,Line,1,0.0,0,5.125,0,5.125,0,5.125,0,0.0,0.625,0,0.0,0,0.0,1,0.5,1,2.125,0,0,0,0,0,0,0,0,0,,,,,0,49,49,49,,,,,,,,,457.00180595897837,457.00180595897837,457.00180595897837,457.00180595897837,457.00180595897837,457.00180595897837,457.00180595897837,457.00180595897837,456.98231066662504,457.00180595897837,457.00180595897837,457.00180595897837,456.98231066662504,457.00180595897837,457.00180595897837,457.00180595897837,459.1032807089505,463.0582894999534,457.00180595897837,457.00180595897837,462.1283688749536,457.47953004197916,458.4938161249738,459.1032807089505,460.10642754199216,457.00180595897837,457.00180595897837,456.98231066662504,457.00180595897837,457.00180595897837,457.00180595897837,456.98231066662504,457.00180595897837,457.00180595897837,462.1283688749536,457.00180595897837,462.1283688749536,462.2254453339847,462.8535562089528,457.00180595897837,1,1,0.7555361240520142,reldom2_s028,001,2025-03-04_12h35.02.838,Vis-A-Scan_AC,2022.2.5,None,
38,First_Order,7.0,viswhere,stimulus/viswhere_stim/blank_white.png,stimulus/viswhere_stim/blank_white.png,stimulus/viswhere_stim/30-deg_dot-right_royalblue.png,stimulus/viswhere_stim/30-deg_dot-left_royalblue.png,stimulus/viswhere_stim/blank_white.png,stimulus/viswhere_stim/dot_box.png,stimulus/viswhere_stim/dot_yes.png,stimulus/viswhere_stim/dot_no.png,None,Dot,None,Line,2,0.0,0,5.125,0,5.125,0,5.125,0,0.0,0.625,0,0.0,0,0.0,1,0.5,1,2.125,0,0,0,0,0,0,0,0,0,,,,,0,50,50,50,,,,,,,,,463.0582894999534,463.0582894999534,463.0582894999534,463.0582894999534,463.0582894999534,463.0582894999534,463.0582894999534,463.0582894999534,463.0374101672981,463.0582894999534,463.0582894999534,463.0582894999534,463.0374101672981,463.0582894999534,463.0582894999534,463.0582894999534,465.1605088340002,469.11849475000054,463.0582894999534,463.0582894999534,468.19246895896504,463.53776587499306,464.5508886669995,465.1605088340002,466.1802594589535,463.0582894999534,463.0582894999534,463.05407683396476,463.0582894999534,463.0582894999534,463.0582894999534,463.05407683396476,463.0582894999534,463.0582894999534,468.19246895896504,463.0582894999534,468.19246895896504,468.2894054169883,468.91791029198794,463.0582894999534,2,1,0.752085333049763,reldom2_s028,001,2025-03-04_12h35.02.838,Vis-A-Scan_AC,2022.2.5,None,
39,First_Order,7.0,viswhere,stimulus/viswhere_stim/blank_white.png,stimulus/viswhere_stim/blank_white.png,stimulus/viswhere_stim/150-deg_dot-left_peru.png,stimulus/viswhere_stim/30-deg_dot-left_goldenrod.png,stimulus/viswhere_stim/blank_white.png,stimulus/viswhere_stim/line_box.png,stimulus/viswhere_stim/line_yes.png,stimulus/viswhere_stim/line_no.png,None,Line,None,Dot,2,0.0,0,5.125,0,5.125,0,5.125,0,0.0,0.625,0,0.0,0,0.0,1,0.5,1,2.125,0,0,0,0,0,0,0,0,0,,,,,0,51,51,51,,,,,,,,,469.11849475000054,469.11849475000054,469.11849475000054,469.11849475000054,469.11849475000054,469.11849475000054,469.11849475000054,469.11849475000054,469.09770950030844,469.11849475000054,469.11849475000054,469.11849475000054,469.09770950030844,469.11849475000054,469.11849475000054,469.11849475000054,471.2188020419562,475.17816933395807,469.11849475000054,469.11849475000054,474.25002058397513,469.6001808339497,470.60382070898777,471.2188020419562,472.22627966699656,469.11849475000054,469.11849475000054,469.1143761669751,469.11849475000054,469.11849475000054,469.11849475000054,469.1143761669751,469.11849475000054,469.11849475000054,474.25002058397513,469.11849475000054,474.25002058397513,474.347553708998,474.97714470897336,469.11849475000054,2,1,1.0760689160670154,reldom2_s028,001,2025-03-04_12h35.02.838,Vis-A-Scan_AC,2022.2.5,None,
40,First_Order,7.0,viswhere,stimulus/viswhere_stim/blank_white.png,stimulus/viswhere_stim/blank_white.png,stimulus/viswhere_stim/120-deg_dot-left_royalblue.png,stimulus/viswhere_stim/120-deg_dot-right_slateblue.png,stimulus/viswhere_stim/blank_white.png,stimulus/viswhere_stim/dot_box.png,stimulus/viswhere_stim/dot_yes.png,stimulus/viswhere_stim/dot_no.png,None,Dot,None,Line,2,0.0,0,5.125,0,5.125,0,5.125,0,0.0,0.625,0,0.0,0,0.0,1,0.5,1,2.125,0,0,0,0,0,0,0,0,0,,,,,0,52,52,52,,,,,,,,,475.17816933395807,475.17816933395807,475.17816933395807,475.17816933395807,475.17816933395807,475.17816933395807,475.17816933395807,475.17816933395807,475.1580838753337,475.17816933395807,475.17816933395807,475.17816933395807,475.1580838753337,475.17816933395807,475.17816933395807,475.17816933395807,477.27763545897324,481.32261912495596,475.17816933395807,475.17816933395807,480.30360874999315,475.6540037499508,476.66718674998265,477.27763545897324,478.29340220894665,475.17816933395807,475.17816933395807,475.17475054200037,475.17816933395807,475.17816933395807,475.17816933395807,475.17475054200037,475.17816933395807,475.17816933395807,480.30360874999315,475.17816933395807,480.30360874999315,480.4009169169585,481.02558783395216,475.17816933395807,2,1,1.153879958030302,reldom2_s028,001,2025-03-04_12h35.02.838,Vis-A-Scan_AC,2022.2.5,None,
0,0.0,None,fixation,stimulus/viswhat_stim/blank_white.png,stimulus/viswhat_stim/blank_white.png,stimulus/viswhere_stim/blank_white.png,stimulus/viswhere_stim/blank_white.png,stimulus/viswhat_stim/blank_white.png,stimulus/viswhat_stim/blank_white.png,stimulus/viswhat_stim/blank_white.png,stimulus/viswhat_stim/blank_white.png,0.0,0.0,0.0,0.0,0,0.0,0,0.0,0,0.0,0,0.0,0,0.0,0.0,0,0.0,0,0.0,0,0.0,0,0.0,0,0,0,0,0,0,0,0,9,,,,,0,53,53,53,,,,,,,,,481.32261912495596,481.32261912495596,481.32261912495596,481.32261912495596,481.32261912495596,481.32261912495596,481.32261912495596,481.32261912495596,481.2246820833146,481.32261912495596,481.32261912495596,481.32261912495596,481.2246820833146,481.32261912495596,481.32261912495596,481.32261912495596,481.32261912495596,481.32261912495596,481.32261912495596,481.32261912495596,481.32261912495596,481.32261912495596,481.32261912495596,481.32261912495596,481.32261912495596,481.32261912495596,481.32261912495596,481.2746820833146,481.32261912495596,481.32261912495596,481.32261912495596,481.2746820833146,481.32261912495596,481.32261912495596,481.32261912495596,481.32261912495596,481.32261912495596,486.52618591696955,486.52618591696955,490.4575915419846,None,0,,reldom2_s028,001,2025-03-04_12h35.02.838,Vis-A-Scan_AC,2022.2.5,None,
41,Second_Order,7.0,viswhere,stimulus/viswhere_stim/90-deg_dot-right_seagreen.png,stimulus/viswhere_stim/90-deg_dot-left_salmon.png,stimulus/viswhere_stim/60-deg_dot-left_slateblue.png,stimulus/viswhere_stim/60-deg_dot-right_lightsseagreen.png,stimulus/viswhat_stim/match_blank.png,stimulus/viswhat_stim/match_box.png,stimulus/viswhat_stim/match_yes.png,stimulus/viswhat_stim/match_no.png,1.0,Match,Line,Line,1,5.125,0,5.125,0,5.125,0,5.125,0,0.75,0.75,1,0.5,1,2.125,1,0.5,1,2.125,0,0,0,0,0,0,0,0,0,,,,,0,54,54,54,,,,,,,,,490.4575915419846,495.57743687496986,490.9331654169946,491.9309958340018,492.56617083394667,493.5553117090021,490.4575915419846,490.4575915419846,490.471090875306,490.4575915419846,490.4575915419846,490.4575915419846,490.471090875306,490.4575915419846,495.57743687496986,496.37275341694476,498.4470854999963,502.3404294999782,496.37275341694476,496.37275341694476,501.5052486669738,496.81683008396067,497.8352382919984,498.4470854999963,499.450422083959,496.37275341694476,496.37275341694476,496.3618321669754,496.37275341694476,496.37275341694476,496.37275341694476,496.3618321669754,496.37275341694476,496.37275341694476,501.5052486669738,496.37275341694476,501.5052486669738,501.5606276249746,502.3404294999782,496.37275341694476,1,1,0.7892627490218729,reldom2_s028,001,2025-03-04_12h35.02.838,Vis-A-Scan_AC,2022.2.5,None,
42,Second_Order,7.0,viswhere,stimulus/viswhere_stim/150-deg_dot-left_cyan.png,stimulus/viswhere_stim/60-deg_dot-left_royalblue.png,stimulus/viswhere_stim/30-deg_dot-right_mediumslateblue.png,stimulus/viswhere_stim/90-deg_dot-right_peru.png,stimulus/viswhat_stim/match_blank.png,stimulus/viswhat_stim/match_box.png,stimulus/viswhat_stim/match_yes.png,stimulus/viswhat_stim/match_no.png,1.0,Match,Dot,Dot,1,5.125,0,5.125,0,5.125,0,5.125,0,0.625,0.625,1,0.5,1,2.125,1,0.5,1,2.125,0,0,0,0,0,0,0,0,0,,,,,0,55,55,55,,,,,,,,,502.3404294999782,507.4552749999566,502.8268279999611,503.8253440419794,504.44842849997804,505.44594916695496,502.3404294999782,502.3404294999782,502.3543172499747,502.3404294999782,502.3404294999782,502.3404294999782,502.3543172499747,502.3404294999782,507.4552749999566,508.12427266698796,510.20345912495395,514.2419871669845,508.12427266698796,508.12427266698796,513.2655974999652,508.5898010839592,509.6077727499651,510.20345912495395,511.2059174589813,508.12427266698796,508.12427266698796,508.10181929230066,508.12427266698796,508.12427266698796,508.12427266698796,508.10181929230066,508.12427266698796,508.12427266698796,513.2655974999652,508.12427266698796,513.2655974999652,513.3210811669705,513.9478836249909,508.12427266698796,1,1,1.4481916660442948,reldom2_s028,001,2025-03-04_12h35.02.838,Vis-A-Scan_AC,2022.2.5,None,
0,0.0,None,fixation,stimulus/viswhat_stim/blank_white.png,stimulus/viswhat_stim/blank_white.png,stimulus/viswhere_stim/blank_white.png,stimulus/viswhere_stim/blank_white.png,stimulus/viswhat_stim/blank_white.png,stimulus/viswhat_stim/blank_white.png,stimulus/viswhat_stim/blank_white.png,stimulus/viswhat_stim/blank_white.png,0.0,0.0,0.0,0.0,0,0.0,0,0.0,0,0.0,0,0.0,0,0.0,0.0,0,0.0,0,0.0,0,0.0,0,0.0,0,0,0,0,0,0,0,0,8,,,,,0,56,56,56,,,,,,,,,514.2419871669845,514.2419871669845,514.2419871669845,514.2419871669845,514.2419871669845,514.2419871669845,514.2419871669845,514.2419871669845,514.14187695833,514.2419871669845,514.2419871669845,514.2419871669845,514.14187695833,514.2419871669845,514.2419871669845,514.2419871669845,514.2419871669845,514.2419871669845,514.2419871669845,514.2419871669845,514.2419871669845,514.2419871669845,514.2419871669845,514.2419871669845,514.2419871669845,514.2419871669845,514.2419871669845,514.19187695833,514.2419871669845,514.2419871669845,514.2419871669845,514.19187695833,514.2419871669845,514.2419871669845,514.2419871669845,514.2419871669845,514.2419871669845,519.425974208978,519.425974208978,522.4515820419765,None,0,,reldom2_s028,001,2025-03-04_12h35.02.838,Vis-A-Scan_AC,2022.2.5,None,
43,First_Order,8.0,viswhere,stimulus/viswhere_stim/blank_white.png,stimulus/viswhere_stim/blank_white.png,stimulus/viswhere_stim/150-deg_dot-left_lightsseagreen.png,stimulus/viswhere_stim/30-deg_dot-left_salmon.png,stimulus/viswhere_stim/blank_white.png,stimulus/viswhere_stim/dot_box.png,stimulus/viswhere_stim/dot_yes.png,stimulus/viswhere_stim/dot_no.png,None,Dot,None,Dot,1,0.0,0,5.125,0,5.125,0,5.125,0,0.0,0.625,0,0.0,0,0.0,1,0.5,1,2.125,0,0,0,0,0,0,0,0,0,,,,,0,57,57,57,,,,,,,,,522.4515820419765,522.4515820419765,522.4515820419765,522.4515820419765,522.4515820419765,522.4515820419765,522.4515820419765,522.4515820419765,522.4324343336435,522.4515820419765,522.4515820419765,522.4515820419765,522.4324343336435,522.4515820419765,522.4515820419765,522.4515820419765,524.5621993339737,528.5170180839486,522.4515820419765,522.4515820419765,527.5961879999959,522.9316197089502,523.9508935839985,524.5621993339737,525.582387249975,522.4515820419765,522.4515820419765,522.4324343336435,522.4515820419765,522.4515820419765,522.4515820419765,522.4324343336435,522.4515820419765,522.4515820419765,527.5961879999959,522.4515820419765,527.5961879999959,527.6676907090005,528.2947625419474,522.4515820419765,1,1,2.030410332023166,reldom2_s028,001,2025-03-04_12h35.02.838,Vis-A-Scan_AC,2022.2.5,None,
44,First_Order,8.0,viswhere,stimulus/viswhere_stim/blank_white.png,stimulus/viswhere_stim/blank_white.png,stimulus/viswhere_stim/150-deg_dot-right_seagreen.png,stimulus/viswhere_stim/150-deg_dot-left_goldenrod.png,stimulus/viswhere_stim/blank_white.png,stimulus/viswhere_stim/line_box.png,stimulus/viswhere_stim/line_yes.png,stimulus/viswhere_stim/line_no.png,None,Line,None,Line,1,0.0,0,5.125,0,5.125,0,5.125,0,0.0,0.625,0,0.0,0,0.0,1,0.5,1,2.125,0,0,0,0,0,0,0,0,0,,,,,0,58,58,58,,,,,,,,,528.5170180839486,528.5170180839486,528.5170180839486,528.5170180839486,528.5170180839486,528.5170180839486,528.5170180839486,528.5170180839486,528.4952577923153,528.5170180839486,528.5170180839486,528.5170180839486,528.4952577923153,528.5170180839486,528.5170180839486,528.5170180839486,530.6251706669573,534.5858769170009,528.5170180839486,528.5170180839486,533.6497225419735,529.0014791249996,530.0068932499853,530.6251706669573,531.637362666952,528.5170180839486,528.5170180839486,528.511924458982,528.5170180839486,528.5170180839486,528.5170180839486,528.511924458982,528.5170180839486,528.5170180839486,533.6497225419735,528.5170180839486,533.6497225419735,533.7354508749559,534.3695511249825,528.5170180839486,2,0,0.8435401660390198,reldom2_s028,001,2025-03-04_12h35.02.838,Vis-A-Scan_AC,2022.2.5,None,
45,First_Order,8.0,viswhere,stimulus/viswhere_stim/blank_white.png,stimulus/viswhere_stim/blank_white.png,stimulus/viswhere_stim/150-deg_dot-left_seagreen.png,stimulus/viswhere_stim/60-deg_dot-left_turquoise.png,stimulus/viswhere_stim/blank_white.png,stimulus/viswhere_stim/dot_box.png,stimulus/viswhere_stim/dot_yes.png,stimulus/viswhere_stim/dot_no.png,None,Dot,None,Dot,1,0.0,0,5.125,0,5.125,0,5.125,0,0.0,0.625,0,0.0,0,0.0,1,0.5,1,2.125,0,0,0,0,0,0,0,0,0,,,,,0,59,59,59,,,,,,,,,534.5858769170009,534.5858769170009,534.5858769170009,534.5858769170009,534.5858769170009,534.5858769170009,534.5858769170009,534.5858769170009,534.5646187922879,534.5858769170009,534.5858769170009,534.5858769170009,534.5646187922879,534.5858769170009,534.5858769170009,534.5858769170009,536.6950015839539,540.6574134999537,534.5858769170009,534.5858769170009,539.7137997499667,535.064847208967,536.0824128339882,536.6950015839539,537.6974572920008,534.5858769170009,534.5858769170009,534.5812854589545,534.5858769170009,534.5858769170009,534.5858769170009,534.5812854589545,534.5858769170009,534.5858769170009,539.7137997499667,534.5858769170009,539.7137997499667,539.8156352919759,540.4425017089816,534.5858769170009,1,1,1.1449570819968358,reldom2_s028,001,2025-03-04_12h35.02.838,Vis-A-Scan_AC,2022.2.5,None,
46,First_Order,8.0,viswhere,stimulus/viswhere_stim/blank_white.png,stimulus/viswhere_stim/blank_white.png,stimulus/viswhere_stim/150-deg_dot-left_lightsseagreen.png,stimulus/viswhere_stim/60-deg_dot-left_royalblue.png,stimulus/viswhere_stim/blank_white.png,stimulus/viswhere_stim/line_box.png,stimulus/viswhere_stim/line_yes.png,stimulus/viswhere_stim/line_no.png,None,Line,None,Dot,2,0.0,0,5.125,0,5.125,0,5.125,0,0.0,0.625,0,0.0,0,0.0,1,0.5,1,2.125,0,0,0,0,0,0,0,0,0,,,,,0,60,60,60,,,,,,,,,540.6574134999537,540.6574134999537,540.6574134999537,540.6574134999537,540.6574134999537,540.6574134999537,540.6574134999537,540.6574134999537,540.6364427923303,540.6574134999537,540.6574134999537,540.6574134999537,540.6364427923303,540.6574134999537,540.6574134999537,540.6574134999537,542.7734237499535,546.7993881249567,540.6574134999537,540.6574134999537,545.7826691669761,541.1386006249813,542.140232042002,542.7734237499535,543.7795186669682,540.6574134999537,540.6574134999537,540.6531094589969,540.6574134999537,540.6574134999537,540.6574134999537,540.6531094589969,540.6574134999537,540.6574134999537,545.7826691669761,540.6574134999537,545.7826691669761,545.8797833339777,546.5064461249858,540.6574134999537,2,1,1.0239719990058802,reldom2_s028,001,2025-03-04_12h35.02.838,Vis-A-Scan_AC,2022.2.5,None,
0,0.0,None,fixation,stimulus/viswhat_stim/blank_white.png,stimulus/viswhat_stim/blank_white.png,stimulus/viswhere_stim/blank_white.png,stimulus/viswhere_stim/blank_white.png,stimulus/viswhat_stim/blank_white.png,stimulus/viswhat_stim/blank_white.png,stimulus/viswhat_stim/blank_white.png,stimulus/viswhat_stim/blank_white.png,0.0,0.0,0.0,0.0,0,0.0,0,0.0,0,0.0,0,0.0,0,0.0,0.0,0,0.0,0,0.0,0,0.0,0,0.0,0,0,0,0,0,0,0,0,9,,,,,0,61,61,61,,,,,,,,,546.7993881249567,546.7993881249567,546.7993881249567,546.7993881249567,546.7993881249567,546.7993881249567,546.7993881249567,546.7993881249567,546.7005365423005,546.7993881249567,546.7993881249567,546.7993881249567,546.7005365423005,546.7993881249567,546.7993881249567,546.7993881249567,546.7993881249567,546.7993881249567,546.7993881249567,546.7993881249567,546.7993881249567,546.7993881249567,546.7993881249567,546.7993881249567,546.7993881249567,546.7993881249567,546.7993881249567,546.7505365423004,546.7993881249567,546.7993881249567,546.7993881249567,546.7505365423004,546.7993881249567,546.7993881249567,546.7993881249567,546.7993881249567,546.7993881249567,552.008465833962,552.008465833962,555.9426766249817,None,0,,reldom2_s028,001,2025-03-04_12h35.02.838,Vis-A-Scan_AC,2022.2.5,None,
47,Second_Order,8.0,viswhere,stimulus/viswhere_stim/120-deg_dot-left_goldenrod.png,stimulus/viswhere_stim/120-deg_dot-right_seagreen.png,stimulus/viswhere_stim/90-deg_dot-left_peru.png,stimulus/viswhere_stim/90-deg_dot-right_turquoise.png,stimulus/viswhat_stim/match_blank.png,stimulus/viswhat_stim/match_box.png,stimulus/viswhat_stim/match_yes.png,stimulus/viswhat_stim/match_no.png,1.0,Match,Line,Line,1,5.125,0,5.125,0,5.125,0,5.125,0,0.75,0.75,1,0.5,1,2.125,1,0.5,1,2.125,0,0,0,0,0,0,0,0,0,,,,,0,62,62,62,,,,,,,,,555.9426766249817,561.0625118339667,556.4151696669869,557.4030152919586,558.0508350419695,559.0400863749674,555.9426766249817,555.9426766249817,555.9568040832838,555.9426766249817,555.9426766249817,555.9426766249817,555.9568040832838,555.9426766249817,561.0625118339667,561.8496990419808,563.9357764999731,567.7950178749743,561.8496990419808,561.8496990419808,566.9871471669758,562.3154595419765,563.318053749972,563.9357764999731,564.9454013749491,561.8496990419808,561.8496990419808,561.8304541673356,561.8496990419808,561.8496990419808,561.8496990419808,561.8304541673356,561.8496990419808,561.8496990419808,566.9871471669758,561.8496990419808,566.9871471669758,567.0562979169772,567.8311813749606,561.8496990419808,1,1,0.4775119160185568,reldom2_s028,001,2025-03-04_12h35.02.838,Vis-A-Scan_AC,2022.2.5,None,
48,Second_Order,8.0,viswhere,stimulus/viswhere_stim/150-deg_dot-right_salmon.png,stimulus/viswhere_stim/90-deg_dot-right_cyan.png,stimulus/viswhere_stim/60-deg_dot-left_mediumslateblue.png,stimulus/viswhere_stim/30-deg_dot-left_turquoise.png,stimulus/viswhat_stim/match_blank.png,stimulus/viswhat_stim/match_box.png,stimulus/viswhat_stim/match_yes.png,stimulus/viswhat_stim/match_no.png,1.0,Match,Dot,Dot,1,5.125,0,5.125,0,5.125,0,5.125,0,0.625,0.625,1,0.5,1,2.125,1,0.5,1,2.125,0,0,0,0,0,0,0,0,0,,,,,0,63,63,63,,,,,,,,,567.8311813749606,572.9559038339648,568.3117063749814,569.3100102919852,569.9323865419719,570.9306415839819,567.8311813749606,567.8311813749606,567.8450178749742,567.8311813749606,567.8311813749606,567.8311813749606,567.8450178749742,567.8311813749606,572.9559038339648,573.6267746249796,575.6997133339755,579.7462927919696,573.6267746249796,573.6267746249796,578.7545659999596,574.0737942499691,575.0882150419638,575.6997133339755,576.7037957089487,573.6267746249796,573.6267746249796,573.6035287503114,573.6267746249796,573.6267746249796,573.6267746249796,573.6035287503114,573.6267746249796,573.6267746249796,578.7545659999596,573.6267746249796,578.7545659999596,578.8250652499846,579.4520559169468,573.6267746249796,1,1,0.8010622499859892,reldom2_s028,001,2025-03-04_12h35.02.838,Vis-A-Scan_AC,2022.2.5,None,
0,0.0,None,fixation,stimulus/viswhat_stim/blank_white.png,stimulus/viswhat_stim/blank_white.png,stimulus/viswhere_stim/blank_white.png,stimulus/viswhere_stim/blank_white.png,stimulus/viswhat_stim/blank_white.png,stimulus/viswhat_stim/blank_white.png,stimulus/viswhat_stim/blank_white.png,stimulus/viswhat_stim/blank_white.png,0.0,0.0,0.0,0.0,0,0.0,0,0.0,0,0.0,0,0.0,0,0.0,0.0,0,0.0,0,0.0,0,0.0,0,0.0,0,0,0,0,0,0,0,0,16,,,,,0,64,64,64,,,,,,,,,579.7462927919696,579.7462927919696,579.7462927919696,579.7462927919696,579.7462927919696,579.7462927919696,579.7462927919696,579.7462927919696,579.6462620832802,579.7462927919696,579.7462927919696,579.7462927919696,579.6462620832802,579.7462927919696,579.7462927919696,579.7462927919696,579.7462927919696,579.7462927919696,579.7462927919696,579.7462927919696,579.7462927919696,579.7462927919696,579.7462927919696,579.7462927919696,579.7462927919696,579.7462927919696,579.7462927919696,579.6962620832802,579.7462927919696,579.7462927919696,579.7462927919696,579.6962620832802,579.7462927919696,579.7462927919696,579.7462927919696,579.7462927919696,579.7462927919696,584.9410877499613,584.9410877499613,595.9091425839579,None,0,,reldom2_s028,001,2025-03-04_12h35.02.838,Vis-A-Scan_AC,2022.2.5,None,
