Trial,Order,Block,Type,Stimuli_File1,Stimuli_File2,Stimuli_File3,Stimuli_File4,Cue_File1,Cue_File2,Response_File_Yes,Response_File_No,Match,Cue_Dimension,Pair1_Dimension,Pair2_Dimension,Key,Cue1_Duration,Cue1_Onset,Cue2_Duration,Cue2_Onset,ResponseYes_Duration,ResponseYes_Onset,ResponseNo_Duration,ResponseNo_Onset,ITI_Within,ITI_Between,Image1_Duration,Image1_Onset,Image2_Duration,Image2_Onset,Image3_Duration,Image3_Onset,Image4_Duration,Image4_Onset,Sound1_Duration,Sound1_Onset,Sound2_Duration,Sound2_Onset,Sound3_Duration,Sound3_Onset,Sound4_Duration,Sound4_Onset,Fixation_Duration,trials_2.thisRepN,trials_2.thisTrialN,trials_2.thisN,trials_2.thisIndex,trials.thisRepN,trials.thisTrialN,trials.thisN,trials.thisIndex,text_start.started,key_resp_start.started,key_resp_start.keys,key_resp_start.rt,text2.started,key_resp_2.started,key_resp_2.keys,key_resp_2.rt,cue_file1.started,cue_file1.stopped,image_1.started,image_1.stopped,image_2.started,image_2.stopped,sound_icon1.started,sound_icon1.stopped,sound_1.started,sound_1.stopped,sound_icon2.started,sound_icon2.stopped,sound_2.started,sound_2.stopped,image_blank_1.started,image_blank_1.stopped,key_press.started,key_press.stopped,fixation_text.started,cue_file2.started,cue_file2.stopped,image_3.started,image_3.stopped,image_4.started,image_4.stopped,sound_icon3.started,sound_icon3.stopped,sound_3.started,sound_3.stopped,sound_icon4.started,sound_icon4.stopped,sound_4.started,sound_4.stopped,response_yes.started,response_yes.stopped,response_no.started,response_no.stopped,iti_blank.started,iti_blank.stopped,fixation_text.stopped,key_press.keys,key_press.corr,key_press.rt,participant,session,date,expName,psychopyVersion,frameRate,
,,,,,,,,,,,,,,,,,,,,,,,,,,,,,,,,,,,,,,,,,,,,,,,,,,,,7.534489207959268,7.534489207959268,2,1.016783166967798,,,,,,,,,,,,,,,,,,,,,,,,,,,,,,,,,,,,,,,,,,,,,,,,reldom2_s028,001,2025-03-04_12h12.25.599,Where-A-Scan_AC,2022.2.5,None,
,,,,,,,,,,,,,,,,,,,,,,,,,,,,,,,,,,,,,,,,,,,,0,0,0,0,,,,,,,,,8.581954624969512,8.581954624969512,5,17.474942874978296,,,,,,,,,,,,,,,,,,,,,,,,,,,,,,,,,,,,,,,,,,,,reldom2_s028,001,2025-03-04_12h12.25.599,Where-A-Scan_AC,2022.2.5,None,
,,,,,,,,,,,,,,,,,,,,,,,,,,,,,,,,,,,,,,,,,,,,1,0,1,0,,,,,,,,,26.07113987498451,26.07113987498451,5,1.9842352499836124,,,,,,,,,,,,,,,,,,,,,,,,,,,,,,,,,,,,,,,,,,,,reldom2_s028,001,2025-03-04_12h12.25.599,Where-A-Scan_AC,2022.2.5,None,
,,,,,,,,,,,,,,,,,,,,,,,,,,,,,,,,,,,,,,,,,,,,2,0,2,0,,,,,,,,,28.07630983297713,28.07630983297713,5,1.9786252499907278,,,,,,,,,,,,,,,,,,,,,,,,,,,,,,,,,,,,,,,,,,,,reldom2_s028,001,2025-03-04_12h12.25.599,Where-A-Scan_AC,2022.2.5,None,
,,,,,,,,,,,,,,,,,,,,,,,,,,,,,,,,,,,,,,,,,,,,3,0,3,0,,,,,,,,,30.072617665980943,30.072617665980943,5,1.9816425410099328,,,,,,,,,,,,,,,,,,,,,,,,,,,,,,,,,,,,,,,,,,,,reldom2_s028,001,2025-03-04_12h12.25.599,Where-A-Scan_AC,2022.2.5,None,
0,0.0,None,fixation,stimulus/viswhere_stim/blank_white.png,stimulus/viswhere_stim/blank_white.png,stimulus/audwhere_stim/blank_white.png,stimulus/audwhere_stim/blank_white.png,stimulus/viswhere_stim/blank_white.png,stimulus/viswhere_stim/blank_white.png,stimulus/viswhere_stim/blank_white.png,stimulus/viswhere_stim/blank_white.png,0.0,0.0,0.0,0.0,0,0.0,0,0.0,0,0.0,0,0.0,0,0.0,0.0,0,0.0,0,0.0,0,0.0,0,0.0,0,0.0,0,0.0,0,0.0,0,0.0,16,,,,,0,0,0,0,,,,,,,,,32.2658066250151,32.2658066250151,32.2658066250151,32.2658066250151,32.2658066250151,32.2658066250151,32.2658066250151,32.2658066250151,32.17263495767644,32.2658066250151,32.2658066250151,32.2658066250151,32.17263495767644,32.2658066250151,32.2658066250151,32.2658066250151,32.2658066250151,32.2658066250151,32.2658066250151,32.2658066250151,32.2658066250151,32.2658066250151,32.2658066250151,32.2658066250151,32.2658066250151,32.2658066250151,32.2658066250151,32.22263495767644,32.2658066250151,32.2658066250151,32.2658066250151,32.22263495767644,32.2658066250151,32.2658066250151,32.2658066250151,32.2658066250151,32.2658066250151,37.44000004098052,37.44000004098052,48.42456274997676,None,0,,reldom2_s028,001,2025-03-04_12h12.25.599,Where-A-Scan_AC,2022.2.5,None,
1,First_Order,1.0,viswhere,stimulus/viswhere_stim/blank_white.png,stimulus/viswhere_stim/blank_white.png,stimulus/viswhere_stim/60-deg_dot-left_peru.png,stimulus/viswhere_stim/60-deg_dot-right_turquoise.png,stimulus/viswhere_stim/blank_white.png,stimulus/viswhere_stim/dot_box.png,stimulus/viswhere_stim/dot_yes.png,stimulus/viswhere_stim/dot_no.png,None,Dot,None,Line,2,0.0,0,5.125,0,5.125,0,5.125,0,0.0,0.625,0,0.0,0,0.0,1,0.5,1,2.125,0,0.0,0,0.0,0,0.0,0,0.0,0,,,,,0,1,1,1,,,,,,,,,48.42456274997676,48.42456274997676,48.42456274997676,48.42456274997676,48.42456274997676,48.42456274997676,48.42456274997676,48.42456274997676,48.40514491600916,48.42456274997676,48.42456274997676,48.42456274997676,48.40514491600916,48.42456274997676,48.42456274997676,48.42456274997676,50.53185674996348,54.49290941597428,48.42456274997676,48.42456274997676,53.550531540997326,48.91415841598064,49.928463666001335,50.53185674996348,51.53528216597624,48.42456274997676,48.42456274997676,48.42181158267582,48.42456274997676,48.42456274997676,48.42456274997676,48.42181158267582,48.42456274997676,48.42456274997676,53.550531540997326,48.42456274997676,53.550531540997326,53.65085708297556,54.28204604098573,48.42456274997676,2,1,1.0498662079917267,reldom2_s028,001,2025-03-04_12h12.25.599,Where-A-Scan_AC,2022.2.5,None,
2,First_Order,1.0,viswhere,stimulus/viswhere_stim/blank_white.png,stimulus/viswhere_stim/blank_white.png,stimulus/viswhere_stim/60-deg_dot-right_turquoise.png,stimulus/viswhere_stim/60-deg_dot-left_turquoise.png,stimulus/viswhere_stim/blank_white.png,stimulus/viswhere_stim/line_box.png,stimulus/viswhere_stim/line_yes.png,stimulus/viswhere_stim/line_no.png,None,Line,None,Line,1,0.0,0,5.125,0,5.125,0,5.125,0,0.0,0.625,0,0.0,0,0.0,1,0.5,1,2.125,0,0.0,0,0.0,0,0.0,0,0.0,0,,,,,0,2,2,2,,,,,,,,,54.49290941597428,54.49290941597428,54.49290941597428,54.49290941597428,54.49290941597428,54.49290941597428,54.49290941597428,54.49290941597428,54.471671583324984,54.49290941597428,54.49290941597428,54.49290941597428,54.471671583324984,54.49290941597428,54.49290941597428,54.49290941597428,56.59471112501342,60.5485224580043,54.49290941597428,54.49290941597428,59.627545750001445,54.96732299996074,55.971134207968134,56.59471112501342,57.6023927910137,54.49290941597428,54.49290941597428,54.48833824999165,54.49290941597428,54.49290941597428,54.49290941597428,54.48833824999165,54.49290941597428,54.49290941597428,59.627545750001445,54.49290941597428,59.627545750001445,59.721513999975286,60.366224790981505,54.49290941597428,1,1,1.8858917910256423,reldom2_s028,001,2025-03-04_12h12.25.599,Where-A-Scan_AC,2022.2.5,None,
3,First_Order,1.0,viswhere,stimulus/viswhere_stim/blank_white.png,stimulus/viswhere_stim/blank_white.png,stimulus/viswhere_stim/30-deg_dot-left_salmon.png,stimulus/viswhere_stim/120-deg_dot-left_royalblue.png,stimulus/viswhere_stim/blank_white.png,stimulus/viswhere_stim/line_box.png,stimulus/viswhere_stim/line_yes.png,stimulus/viswhere_stim/line_no.png,None,Line,None,Dot,2,0.0,0,5.125,0,5.125,0,5.125,0,0.0,0.625,0,0.0,0,0.0,1,0.5,1,2.125,0,0.0,0,0.0,0,0.0,0,0.0,0,,,,,0,3,3,3,,,,,,,,,60.5485224580043,60.5485224580043,60.5485224580043,60.5485224580043,60.5485224580043,60.5485224580043,60.5485224580043,60.5485224580043,60.529774833315365,60.5485224580043,60.5485224580043,60.5485224580043,60.529774833315365,60.5485224580043,60.5485224580043,60.5485224580043,62.64836108300369,66.61343450000277,60.5485224580043,60.5485224580043,65.68668658297975,61.03863525000634,62.04161949997069,62.64836108300369,63.65867683297256,60.5485224580043,60.5485224580043,60.529774833315365,60.5485224580043,60.5485224580043,60.5485224580043,60.529774833315365,60.5485224580043,60.5485224580043,65.68668658297975,60.5485224580043,65.68668658297975,65.76924324996071,66.4134917909978,60.5485224580043,2,1,0.8995519159943797,reldom2_s028,001,2025-03-04_12h12.25.599,Where-A-Scan_AC,2022.2.5,None,
4,First_Order,1.0,viswhere,stimulus/viswhere_stim/blank_white.png,stimulus/viswhere_stim/blank_white.png,stimulus/viswhere_stim/150-deg_dot-right_salmon.png,stimulus/viswhere_stim/90-deg_dot-right_goldenrod.png,stimulus/viswhere_stim/blank_white.png,stimulus/viswhere_stim/line_box.png,stimulus/viswhere_stim/line_yes.png,stimulus/viswhere_stim/line_no.png,None,Line,None,Dot,2,0.0,0,5.125,0,5.125,0,5.125,0,0.0,0.625,0,0.0,0,0.0,1,0.5,1,2.125,0,0.0,0,0.0,0,0.0,0,0.0,0,,,,,0,4,4,4,,,,,,,,,66.61343450000277,66.61343450000277,66.61343450000277,66.61343450000277,66.61343450000277,66.61343450000277,66.61343450000277,66.61343450000277,66.59359870829697,66.61343450000277,66.61343450000277,66.61343450000277,66.59359870829697,66.61343450000277,66.61343450000277,66.61343450000277,68.71639866597252,72.76112416596152,66.61343450000277,66.61343450000277,71.7469467499759,67.09127545799129,68.1056160829612,68.71639866597252,69.71897354099201,66.61343450000277,66.61343450000277,66.59359870829697,66.61343450000277,66.61343450000277,66.61343450000277,66.59359870829697,66.61343450000277,66.61343450000277,71.7469467499759,66.61343450000277,71.7469467499759,71.83086329099024,72.45446454099147,66.61343450000277,2,1,0.7732738750055432,reldom2_s028,001,2025-03-04_12h12.25.599,Where-A-Scan_AC,2022.2.5,None,
0,0.0,None,fixation,stimulus/viswhere_stim/blank_white.png,stimulus/viswhere_stim/blank_white.png,stimulus/audwhere_stim/blank_white.png,stimulus/audwhere_stim/blank_white.png,stimulus/viswhere_stim/blank_white.png,stimulus/viswhere_stim/blank_white.png,stimulus/viswhere_stim/blank_white.png,stimulus/viswhere_stim/blank_white.png,0.0,0.0,0.0,0.0,0,0.0,0,0.0,0,0.0,0,0.0,0,0.0,0.0,0,0.0,0,0.0,0,0.0,0,0.0,0,0.0,0,0.0,0,0.0,0,0.0,9,,,,,0,5,5,5,,,,,,,,,72.76112416596152,72.76112416596152,72.76112416596152,72.76112416596152,72.76112416596152,72.76112416596152,72.76112416596152,72.76112416596152,72.66376529129532,72.76112416596152,72.76112416596152,72.76112416596152,72.66376529129532,72.76112416596152,72.76112416596152,72.76112416596152,72.76112416596152,72.76112416596152,72.76112416596152,72.76112416596152,72.76112416596152,72.76112416596152,72.76112416596152,72.76112416596152,72.76112416596152,72.76112416596152,72.76112416596152,72.71376529129532,72.76112416596152,72.76112416596152,72.76112416596152,72.71376529129532,72.76112416596152,72.76112416596152,72.76112416596152,72.76112416596152,72.76112416596152,77.98001912498148,77.98001912498148,81.8968464579666,None,0,,reldom2_s028,001,2025-03-04_12h12.25.599,Where-A-Scan_AC,2022.2.5,None,
5,Second_Order,1.0,viswhere,stimulus/viswhere_stim/90-deg_dot-right_mediumslateblue.png,stimulus/viswhere_stim/90-deg_dot-left_peru.png,stimulus/viswhere_stim/150-deg_dot-left_seagreen.png,stimulus/viswhere_stim/120-deg_dot-left_mediumslateblue.png,stimulus/viswhere_stim/match_blank.png,stimulus/viswhere_stim/match_box.png,stimulus/viswhere_stim/match_yes.png,stimulus/viswhere_stim/match_no.png,2.0,Match,Line,Dot,2,5.125,0,5.125,0,5.125,0,5.125,0,0.75,0.75,1,0.5,1,2.125,1,0.5,1,2.125,0,0.0,0,0.0,0,0.0,0,0.0,0,,,,,0,6,6,6,,,,,,,,,81.8968464579666,87.01623054099036,82.37070974998642,83.35664241597988,84.00523533299565,84.99452937499154,81.8968464579666,81.8968464579666,81.89607174965009,81.8968464579666,81.8968464579666,81.8968464579666,81.89607174965009,81.8968464579666,87.01623054099036,87.81246504100272,89.88252887496492,93.77997291600332,87.81246504100272,87.81246504100272,92.93603104096837,88.25719845801359,89.27153916598763,89.88252887496492,90.88550658297027,87.81246504100272,87.81246504100272,87.80153274997137,87.81246504100272,87.81246504100272,87.81246504100272,87.80153274997137,87.81246504100272,87.81246504100272,92.93603104096837,87.81246504100272,92.93603104096837,93.00573520798935,93.77997291600332,87.81246504100272,2,1,0.8297662910190411,reldom2_s028,001,2025-03-04_12h12.25.599,Where-A-Scan_AC,2022.2.5,None,
6,Second_Order,1.0,viswhere,stimulus/viswhere_stim/60-deg_dot-right_salmon.png,stimulus/viswhere_stim/150-deg_dot-right_cyan.png,stimulus/viswhere_stim/120-deg_dot-left_lightsseagreen.png,stimulus/viswhere_stim/90-deg_dot-left_goldenrod.png,stimulus/viswhere_stim/match_blank.png,stimulus/viswhere_stim/match_box.png,stimulus/viswhere_stim/match_yes.png,stimulus/viswhere_stim/match_no.png,1.0,Match,Dot,Dot,1,5.125,0,5.125,0,5.125,0,5.125,0,0.625,0.625,1,0.5,1,2.125,1,0.5,1,2.125,0,0.0,0,0.0,0,0.0,0,0.0,0,,,,,0,7,7,7,,,,,,,,,93.77997291600332,98.89427716599312,94.26619079097873,95.26491245796205,95.88651350000873,96.88494429097045,93.77997291600332,93.77997291600332,93.79331104097655,93.77997291600332,93.77997291600332,93.77997291600332,93.79331104097655,93.77997291600332,98.89427716599312,99.56418758298969,101.63700616598362,105.67628299997887,99.56418758298969,99.56418758298969,104.6946327079786,100.023076457961,101.02939395798603,101.63700616598362,102.65322400000878,99.56418758298969,99.56418758298969,99.54066104134156,99.56418758298969,99.56418758298969,99.56418758298969,99.54066104134156,99.56418758298969,99.56418758298969,104.6946327079786,99.56418758298969,104.6946327079786,104.762564790959,105.38358029100345,99.56418758298969,1,1,1.4735953329945914,reldom2_s028,001,2025-03-04_12h12.25.599,Where-A-Scan_AC,2022.2.5,None,
0,0.0,None,fixation,stimulus/viswhere_stim/blank_white.png,stimulus/viswhere_stim/blank_white.png,stimulus/audwhere_stim/blank_white.png,stimulus/audwhere_stim/blank_white.png,stimulus/viswhere_stim/blank_white.png,stimulus/viswhere_stim/blank_white.png,stimulus/viswhere_stim/blank_white.png,stimulus/viswhere_stim/blank_white.png,0.0,0.0,0.0,0.0,0,0.0,0,0.0,0,0.0,0,0.0,0,0.0,0.0,0,0.0,0,0.0,0,0.0,0,0.0,0,0.0,0,0.0,0,0.0,0,0.0,8,,,,,0,8,8,8,,,,,,,,,105.67628299997887,105.67628299997887,105.67628299997887,105.67628299997887,105.67628299997887,105.67628299997887,105.67628299997887,105.67628299997887,105.58038687434357,105.67628299997887,105.67628299997887,105.67628299997887,105.58038687434357,105.67628299997887,105.67628299997887,105.67628299997887,105.67628299997887,105.67628299997887,105.67628299997887,105.67628299997887,105.67628299997887,105.67628299997887,105.67628299997887,105.67628299997887,105.67628299997887,105.67628299997887,105.67628299997887,105.63038687434357,105.67628299997887,105.67628299997887,105.67628299997887,105.63038687434357,105.67628299997887,105.67628299997887,105.67628299997887,105.67628299997887,105.67628299997887,110.90672120801173,110.90672120801173,113.87284941598773,None,0,,reldom2_s028,001,2025-03-04_12h12.25.599,Where-A-Scan_AC,2022.2.5,None,
7,First_Order,2.0,viswhere,stimulus/viswhere_stim/blank_white.png,stimulus/viswhere_stim/blank_white.png,stimulus/viswhere_stim/30-deg_dot-right_cyan.png,stimulus/viswhere_stim/30-deg_dot-left_cyan.png,stimulus/viswhere_stim/blank_white.png,stimulus/viswhere_stim/line_box.png,stimulus/viswhere_stim/line_yes.png,stimulus/viswhere_stim/line_no.png,None,Line,None,Line,1,0.0,0,5.125,0,5.125,0,5.125,0,0.0,0.625,0,0.0,0,0.0,1,0.5,1,2.125,0,0.0,0,0.0,0,0.0,0,0.0,0,,,,,0,9,9,9,,,,,,,,,113.87284941598773,113.87284941598773,113.87284941598773,113.87284941598773,113.87284941598773,113.87284941598773,113.87284941598773,113.87284941598773,113.8553474576717,113.87284941598773,113.87284941598773,113.87284941598773,113.8553474576717,113.87284941598773,113.87284941598773,113.87284941598773,115.96969200001331,119.93281037500128,113.87284941598773,113.87284941598773,119.01842654100619,114.35132462496404,115.3608471659827,115.96969200001331,116.98366237501614,113.87284941598773,113.87284941598773,113.8553474576717,113.87284941598773,113.87284941598773,113.87284941598773,113.8553474576717,113.87284941598773,113.87284941598773,119.01842654100619,113.87284941598773,119.01842654100619,119.08892970799934,119.71667570801219,113.87284941598773,1,1,1.074954624986276,reldom2_s028,001,2025-03-04_12h12.25.599,Where-A-Scan_AC,2022.2.5,None,
8,First_Order,2.0,viswhere,stimulus/viswhere_stim/blank_white.png,stimulus/viswhere_stim/blank_white.png,stimulus/viswhere_stim/60-deg_dot-right_slateblue.png,stimulus/viswhere_stim/60-deg_dot-left_goldenrod.png,stimulus/viswhere_stim/blank_white.png,stimulus/viswhere_stim/dot_box.png,stimulus/viswhere_stim/dot_yes.png,stimulus/viswhere_stim/dot_no.png,None,Dot,None,Line,2,0.0,0,5.125,0,5.125,0,5.125,0,0.0,0.625,0,0.0,0,0.0,1,0.5,1,2.125,0,0.0,0,0.0,0,0.0,0,0.0,0,,,,,0,10,10,10,,,,,,,,,119.93281037500128,119.93281037500128,119.93281037500128,119.93281037500128,119.93281037500128,119.93281037500128,119.93281037500128,119.93281037500128,119.91380062433502,119.93281037500128,119.93281037500128,119.93281037500128,119.91380062433502,119.93281037500128,119.93281037500128,119.93281037500128,122.04182483296609,125.99388674995862,119.93281037500128,119.93281037500128,125.06800891598687,120.40939033299219,121.4161324579618,122.04182483296609,123.0547080829856,119.93281037500128,119.93281037500128,119.91380062433502,119.93281037500128,119.93281037500128,119.93281037500128,119.91380062433502,119.93281037500128,119.93281037500128,125.06800891598687,119.93281037500128,125.06800891598687,125.18263770797057,125.8045319999801,119.93281037500128,2,1,0.7995008750003763,reldom2_s028,001,2025-03-04_12h12.25.599,Where-A-Scan_AC,2022.2.5,None,
9,First_Order,2.0,viswhere,stimulus/viswhere_stim/blank_white.png,stimulus/viswhere_stim/blank_white.png,stimulus/viswhere_stim/90-deg_dot-right_cyan.png,stimulus/viswhere_stim/60-deg_dot-right_slateblue.png,stimulus/viswhere_stim/blank_white.png,stimulus/viswhere_stim/dot_box.png,stimulus/viswhere_stim/dot_yes.png,stimulus/viswhere_stim/dot_no.png,None,Dot,None,Dot,1,0.0,0,5.125,0,5.125,0,5.125,0,0.0,0.625,0,0.0,0,0.0,1,0.5,1,2.125,0,0.0,0,0.0,0,0.0,0,0.0,0,,,,,0,11,11,11,,,,,,,,,125.99388674995862,125.99388674995862,125.99388674995862,125.99388674995862,125.99388674995862,125.99388674995862,125.99388674995862,125.99388674995862,125.97427629134229,125.99388674995862,125.99388674995862,125.99388674995862,125.97427629134229,125.99388674995862,125.99388674995862,125.99388674995862,128.1070397499716,132.06979262497043,125.99388674995862,125.99388674995862,131.11710762500297,126.47087762498995,127.47857795801247,128.1070397499716,129.1199922079686,125.99388674995862,125.99388674995862,125.99094295800896,125.99388674995862,125.99388674995862,125.99388674995862,125.99094295800896,125.99388674995862,125.99388674995862,131.11710762500297,125.99388674995862,131.11710762500297,131.22993820800912,131.85198245797073,125.99388674995862,1,1,0.9308650410384871,reldom2_s028,001,2025-03-04_12h12.25.599,Where-A-Scan_AC,2022.2.5,None,
10,First_Order,2.0,viswhere,stimulus/viswhere_stim/blank_white.png,stimulus/viswhere_stim/blank_white.png,stimulus/viswhere_stim/60-deg_dot-left_mediumslateblue.png,stimulus/viswhere_stim/150-deg_dot-left_peru.png,stimulus/viswhere_stim/blank_white.png,stimulus/viswhere_stim/dot_box.png,stimulus/viswhere_stim/dot_yes.png,stimulus/viswhere_stim/dot_no.png,None,Dot,None,Dot,1,0.0,0,5.125,0,5.125,0,5.125,0,0.0,0.625,0,0.0,0,0.0,1,0.5,1,2.125,0,0.0,0,0.0,0,0.0,0,0.0,0,,,,,0,12,12,12,,,,,,,,,132.06979262497043,132.06979262497043,132.06979262497043,132.06979262497043,132.06979262497043,132.06979262497043,132.06979262497043,132.06979262497043,132.04823199929282,132.06979262497043,132.06979262497043,132.06979262497043,132.04823199929282,132.06979262497043,132.06979262497043,132.06979262497043,134.1710553749581,138.20352199999616,132.06979262497043,132.06979262497043,137.19613783300156,132.54793491598684,133.56004933296936,134.1710553749581,135.1876105410047,132.06979262497043,132.06979262497043,132.0648986659595,132.06979262497043,132.06979262497043,132.06979262497043,132.0648986659595,132.06979262497043,132.06979262497043,137.19613783300156,132.06979262497043,137.19613783300156,137.31067924998933,137.9390952080139,132.06979262497043,1,1,1.8073843750171363,reldom2_s028,001,2025-03-04_12h12.25.599,Where-A-Scan_AC,2022.2.5,None,
0,0.0,None,fixation,stimulus/viswhere_stim/blank_white.png,stimulus/viswhere_stim/blank_white.png,stimulus/audwhere_stim/blank_white.png,stimulus/audwhere_stim/blank_white.png,stimulus/viswhere_stim/blank_white.png,stimulus/viswhere_stim/blank_white.png,stimulus/viswhere_stim/blank_white.png,stimulus/viswhere_stim/blank_white.png,0.0,0.0,0.0,0.0,0,0.0,0,0.0,0,0.0,0,0.0,0,0.0,0.0,0,0.0,0,0.0,0,0.0,0,0.0,0,0.0,0,0.0,0,0.0,0,0.0,10,,,,,0,13,13,13,,,,,,,,,138.20352199999616,138.20352199999616,138.20352199999616,138.20352199999616,138.20352199999616,138.20352199999616,138.20352199999616,138.20352199999616,138.10582133332113,138.20352199999616,138.20352199999616,138.20352199999616,138.10582133332113,138.20352199999616,138.20352199999616,138.20352199999616,138.20352199999616,138.20352199999616,138.20352199999616,138.20352199999616,138.20352199999616,138.20352199999616,138.20352199999616,138.20352199999616,138.20352199999616,138.20352199999616,138.20352199999616,138.15582133332114,138.20352199999616,138.20352199999616,138.20352199999616,138.15582133332114,138.20352199999616,138.20352199999616,138.20352199999616,138.20352199999616,138.20352199999616,143.42121895798482,143.42121895798482,148.33101154101314,None,0,,reldom2_s028,001,2025-03-04_12h12.25.599,Where-A-Scan_AC,2022.2.5,None,
11,Second_Order,2.0,viswhere,stimulus/viswhere_stim/120-deg_dot-right_turquoise.png,stimulus/viswhere_stim/120-deg_dot-left_goldenrod.png,stimulus/viswhere_stim/60-deg_dot-left_turquoise.png,stimulus/viswhere_stim/150-deg_dot-left_seagreen.png,stimulus/viswhere_stim/match_blank.png,stimulus/viswhere_stim/match_box.png,stimulus/viswhere_stim/match_yes.png,stimulus/viswhere_stim/match_no.png,2.0,Match,Line,Dot,2,5.125,0,5.125,0,5.125,0,5.125,0,0.75,0.75,1,0.5,1,2.125,1,0.5,1,2.125,0,0.0,0,0.0,0,0.0,0,0.0,0,,,,,0,14,14,14,,,,,,,,,148.33101154101314,153.45379170798697,148.80757162498776,149.79360412497772,150.42919058300322,151.42723525001202,148.33101154101314,148.33101154101314,148.3456670833131,148.33101154101314,148.33101154101314,148.33101154101314,148.3456670833131,148.33101154101314,153.45379170798697,154.2487294159946,156.32511945796432,160.21669400000246,154.2487294159946,154.2487294159946,159.3863624999649,154.69353845797013,155.71087766595883,156.32511945796432,157.32977141597075,154.2487294159946,154.2487294159946,154.23765849998455,154.2487294159946,154.2487294159946,154.2487294159946,154.23765849998455,154.2487294159946,154.2487294159946,159.3863624999649,154.2487294159946,159.3863624999649,159.44209979096195,160.21669400000246,154.2487294159946,2,1,0.9015713339904323,reldom2_s028,001,2025-03-04_12h12.25.599,Where-A-Scan_AC,2022.2.5,None,
12,Second_Order,2.0,viswhere,stimulus/viswhere_stim/30-deg_dot-right_mediumslateblue.png,stimulus/viswhere_stim/30-deg_dot-left_seagreen.png,stimulus/viswhere_stim/120-deg_dot-right_goldenrod.png,stimulus/viswhere_stim/120-deg_dot-left_salmon.png,stimulus/viswhere_stim/match_blank.png,stimulus/viswhere_stim/match_box.png,stimulus/viswhere_stim/match_yes.png,stimulus/viswhere_stim/match_no.png,1.0,Match,Line,Line,1,5.125,0,5.125,0,5.125,0,5.125,0,0.625,0.625,1,0.5,1,2.125,1,0.5,1,2.125,0,0.0,0,0.0,0,0.0,0,0.0,0,,,,,0,15,15,15,,,,,,,,,160.21669400000246,165.33098087500548,160.70134254096774,161.68826087500202,162.32367316598538,163.31039566599065,160.21669400000246,160.21669400000246,160.22999495798723,160.21669400000246,160.21669400000246,160.21669400000246,160.22999495798723,160.21669400000246,165.33098087500548,166.00003858300624,168.0765982500161,172.1154900409747,166.00003858300624,166.00003858300624,171.1288073749747,166.4598525830079,167.46726599999238,168.0765982500161,169.09164733299986,166.00003858300624,166.00003858300624,165.97773191630455,166.00003858300624,166.00003858300624,166.00003858300624,165.97773191630455,166.00003858300624,166.00003858300624,171.1288073749747,166.00003858300624,171.1288073749747,171.20269229100086,171.8335836660117,166.00003858300624,1,1,0.8170120840077288,reldom2_s028,001,2025-03-04_12h12.25.599,Where-A-Scan_AC,2022.2.5,None,
0,0.0,None,fixation,stimulus/viswhere_stim/blank_white.png,stimulus/viswhere_stim/blank_white.png,stimulus/audwhere_stim/blank_white.png,stimulus/audwhere_stim/blank_white.png,stimulus/viswhere_stim/blank_white.png,stimulus/viswhere_stim/blank_white.png,stimulus/viswhere_stim/blank_white.png,stimulus/viswhere_stim/blank_white.png,0.0,0.0,0.0,0.0,0,0.0,0,0.0,0,0.0,0,0.0,0,0.0,0.0,0,0.0,0,0.0,0,0.0,0,0.0,0,0.0,0,0.0,0,0.0,0,0.0,8,,,,,0,16,16,16,,,,,,,,,172.1154900409747,172.1154900409747,172.1154900409747,172.1154900409747,172.1154900409747,172.1154900409747,172.1154900409747,172.1154900409747,172.01722749929954,172.1154900409747,172.1154900409747,172.1154900409747,172.01722749929954,172.1154900409747,172.1154900409747,172.1154900409747,172.1154900409747,172.1154900409747,172.1154900409747,172.1154900409747,172.1154900409747,172.1154900409747,172.1154900409747,172.1154900409747,172.1154900409747,172.1154900409747,172.1154900409747,172.06722749929955,172.1154900409747,172.1154900409747,172.1154900409747,172.06722749929955,172.1154900409747,172.1154900409747,172.1154900409747,172.1154900409747,172.1154900409747,177.32516199996462,177.32516199996462,180.35790162498597,None,0,,reldom2_s028,001,2025-03-04_12h12.25.599,Where-A-Scan_AC,2022.2.5,None,
13,First_Order,3.0,audwhere,stimulus/audwhere_stim/dummy.wav,stimulus/audwhere_stim/dummy.wav,stimulus/audwhere_stim/right_away_290h.wav,stimulus/audwhere_stim/right_toward_280h.wav,stimulus/audwhere_stim/blank_white.png,stimulus/audwhere_stim/side_box.png,stimulus/audwhere_stim/side_yes.png,stimulus/audwhere_stim/side_no.png,None,Side,None,Side,1,0.0,0,5.125,0,5.125,0,5.125,0,0.0,0.625,0,0.0,0,0.0,0,0.0,0,0.0,0,0.0,0,0.0,1,0.5,1,2.125,0,,,,,0,17,17,17,,,,,,,,,180.35790162498597,180.35790162498597,180.35790162498597,180.35790162498597,180.35790162498597,180.35790162498597,180.35790162498597,180.35790162498597,180.2869565826647,180.35790162498597,180.35790162498597,180.35790162498597,180.2869565826647,180.35790162498597,180.35790162498597,180.35790162498597,182.42923075001454,,180.35790162498597,180.35790162498597,185.51424283301458,180.35790162498597,180.35790162498597,180.35790162498597,180.35790162498597,180.81823770800838,181.87486641597934,180.7885196666505,,182.42923075001454,183.48975783301285,182.39940191666054,,180.35790162498597,185.51424283301458,180.35790162498597,185.51424283301458,185.55511991598178,186.20818645798136,180.35790162498597,1,1,1.2482927920063958,reldom2_s028,001,2025-03-04_12h12.25.599,Where-A-Scan_AC,2022.2.5,None,
14,First_Order,3.0,audwhere,stimulus/audwhere_stim/dummy.wav,stimulus/audwhere_stim/dummy.wav,stimulus/audwhere_stim/right_away_300h.wav,stimulus/audwhere_stim/left_away_300h.wav,stimulus/audwhere_stim/blank_white.png,stimulus/audwhere_stim/side_box.png,stimulus/audwhere_stim/side_yes.png,stimulus/audwhere_stim/side_no.png,None,Side,None,Direction,2,0.0,0,5.125,0,5.125,0,5.125,0,0.0,0.625,0,0.0,0,0.0,0,0.0,0,0.0,0,0.0,0,0.0,1,0.5,1,2.125,0,,,,,0,18,18,18,,,,,,,,,186.46171666600276,186.46171666600276,186.46171666600276,186.46171666600276,186.46171666600276,186.46171666600276,186.46171666600276,186.46171666600276,186.38223241633582,186.46171666600276,186.46171666600276,186.46171666600276,186.38223241633582,186.46171666600276,186.46171666600276,186.46171666600276,188.53313141601393,,186.46171666600276,186.46171666600276,191.62063408299582,186.46171666600276,186.46171666600276,186.46171666600276,186.46171666600276,186.92228216596413,187.98098483297508,186.89306887466617,,188.53313141601393,189.59432016598294,188.50327424967352,,186.46171666600276,191.62063408299582,186.46171666600276,191.62063408299582,191.66135212499648,192.3100604999927,186.46171666600276,2,1,0.5750418329844251,reldom2_s028,001,2025-03-04_12h12.25.599,Where-A-Scan_AC,2022.2.5,None,
15,First_Order,3.0,audwhere,stimulus/audwhere_stim/dummy.wav,stimulus/audwhere_stim/dummy.wav,stimulus/audwhere_stim/left_away_290h.wav,stimulus/audwhere_stim/right_away_280h.wav,stimulus/audwhere_stim/blank_white.png,stimulus/audwhere_stim/direction_box.png,stimulus/audwhere_stim/direction_yes.png,stimulus/audwhere_stim/direction_no.png,None,Direction,None,Direction,1,0.0,0,5.125,0,5.125,0,5.125,0,0.0,0.625,0,0.0,0,0.0,0,0.0,0,0.0,0,0.0,0,0.0,1,0.5,1,2.125,0,,,,,0,19,19,19,,,,,,,,,192.5615795829799,192.5615795829799,192.5615795829799,192.5615795829799,192.5615795829799,192.5615795829799,192.5615795829799,192.5615795829799,192.48330333331447,192.5615795829799,192.5615795829799,192.5615795829799,192.48330333331447,192.5615795829799,192.5615795829799,192.5615795829799,194.65465304098325,,192.5615795829799,192.5615795829799,197.72368666599505,192.5615795829799,192.5615795829799,192.5615795829799,192.5615795829799,193.02701420796802,194.09694712498458,192.99692458263988,,194.65465304098325,195.7245395409991,194.62474533263983,,192.5615795829799,197.72368666599505,192.5615795829799,197.72368666599505,197.7647761249682,198.4185927080107,192.5615795829799,1,1,1.3521227500168607,reldom2_s028,001,2025-03-04_12h12.25.599,Where-A-Scan_AC,2022.2.5,None,
16,First_Order,3.0,audwhere,stimulus/audwhere_stim/dummy.wav,stimulus/audwhere_stim/dummy.wav,stimulus/audwhere_stim/right_toward_270h.wav,stimulus/audwhere_stim/right_away_300h.wav,stimulus/audwhere_stim/blank_white.png,stimulus/audwhere_stim/direction_box.png,stimulus/audwhere_stim/direction_yes.png,stimulus/audwhere_stim/direction_no.png,None,Direction,None,Side,2,0.0,0,5.125,0,5.125,0,5.125,0,0.0,0.625,0,0.0,0,0.0,0,0.0,0,0.0,0,0.0,0,0.0,1,0.5,1,2.125,0,,,,,0,20,20,20,,,,,,,,,198.6709932910162,198.6709932910162,198.6709932910162,198.6709932910162,198.6709932910162,198.6709932910162,198.6709932910162,198.6709932910162,198.5922832913076,198.6709932910162,198.6709932910162,198.6709932910162,198.5922832913076,198.6709932910162,198.6709932910162,198.6709932910162,200.76160158298444,,198.6709932910162,198.6709932910162,203.83170758298365,198.6709932910162,198.6709932910162,198.6709932910162,198.6709932910162,199.13649662496755,200.2054979579989,199.1061197076381,,200.76160158298444,201.8357235409785,200.73152724968193,,198.6709932910162,203.83170758298365,198.6709932910162,203.83170758298365,203.87300733296433,204.52744837501086,198.6709932910162,2,1,1.0558593329624273,reldom2_s028,001,2025-03-04_12h12.25.599,Where-A-Scan_AC,2022.2.5,None,
0,0.0,None,fixation,stimulus/viswhere_stim/blank_white.png,stimulus/viswhere_stim/blank_white.png,stimulus/audwhere_stim/blank_white.png,stimulus/audwhere_stim/blank_white.png,stimulus/viswhere_stim/blank_white.png,stimulus/viswhere_stim/blank_white.png,stimulus/viswhere_stim/blank_white.png,stimulus/viswhere_stim/blank_white.png,0.0,0.0,0.0,0.0,0,0.0,0,0.0,0,0.0,0,0.0,0,0.0,0.0,0,0.0,0,0.0,0,0.0,0,0.0,0,0.0,0,0.0,0,0.0,0,0.0,9,,,,,0,21,21,21,,,,,,,,,204.80033883301076,204.80033883301076,204.80033883301076,204.80033883301076,204.80033883301076,204.80033883301076,204.80033883301076,204.80033883301076,204.70148549930505,204.80033883301076,204.80033883301076,204.80033883301076,204.70148549930505,204.80033883301076,204.80033883301076,204.80033883301076,204.80033883301076,204.80033883301076,204.80033883301076,204.80033883301076,204.80033883301076,204.80033883301076,204.80033883301076,204.80033883301076,204.80033883301076,204.80033883301076,204.80033883301076,204.75148549930503,204.80033883301076,204.80033883301076,204.80033883301076,204.75148549930503,204.80033883301076,204.80033883301076,204.80033883301076,204.80033883301076,204.80033883301076,210.02233554096892,210.02233554096892,213.95295612496557,None,0,,reldom2_s028,001,2025-03-04_12h12.25.599,Where-A-Scan_AC,2022.2.5,None,
17,Second_Order,3.0,audwhere,stimulus/audwhere_stim/right_away_270h.wav,stimulus/audwhere_stim/left_away_270h.wav,stimulus/audwhere_stim/right_toward_280h.wav,stimulus/audwhere_stim/left_toward_280h.wav,stimulus/viswhere_stim/match_blank.png,stimulus/audwhere_stim/match_box.png,stimulus/viswhere_stim/match_yes.png,stimulus/viswhere_stim/match_no.png,1.0,Match,Direction,Direction,1,5.125,0,5.125,0,5.125,0,5.125,0,0.75,0.75,0,0.0,0,0.0,0,0.0,0,0.0,1,0.5,1,2.125,1,0.5,1,2.125,0,,,,,0,22,22,22,,,,,,,,,213.95295612496557,219.07172229100252,213.95295612496557,213.95295612496557,213.95295612496557,213.95295612496557,214.4082188750035,215.39600708300713,214.42242308264056,,216.0310789999785,217.02899974997854,216.04343524965614,,219.07172229100252,219.92352354101604,221.98485345800873,225.91342637495836,219.92352354101604,219.92352354101604,225.10802733298624,219.92352354101604,219.92352354101604,219.92352354101604,219.92352354101604,220.33609566598898,221.38766745798057,220.30660795764223,,221.98485345800873,223.04166666598758,221.95560783264617,,219.92352354101604,225.10802733298624,219.92352354101604,225.10802733298624,225.10802733298624,,219.92352354101604,1,1,1.3126141669927165,reldom2_s028,001,2025-03-04_12h12.25.599,Where-A-Scan_AC,2022.2.5,None,
18,Second_Order,3.0,audwhere,stimulus/audwhere_stim/left_away_300h.wav,stimulus/audwhere_stim/right_away_290h.wav,stimulus/audwhere_stim/left_toward_300h.wav,stimulus/audwhere_stim/left_away_290h.wav,stimulus/viswhere_stim/match_blank.png,stimulus/audwhere_stim/match_box.png,stimulus/viswhere_stim/match_yes.png,stimulus/viswhere_stim/match_no.png,2.0,Match,Direction,Side,2,5.125,0,5.125,0,5.125,0,5.125,0,0.625,0.625,0,0.0,0,0.0,0,0.0,0,0.0,1,0.5,1,2.125,1,0.5,1,2.125,0,,,,,0,23,23,23,,,,,,,,,225.91342637495836,231.03251916600857,225.91342637495836,225.91342637495836,225.91342637495836,225.91342637495836,226.36932558298577,227.35631541599287,226.38360908267012,,227.9916634580004,228.98998983297497,228.00434066664118,,231.03251916600857,231.76037983299466,233.8136127499747,,231.76037983299466,231.76037983299466,236.92863325000508,231.76037983299466,231.76037983299466,231.76037983299466,231.76037983299466,232.21462041599443,233.2642387909582,232.1859124576479,,233.8136127499747,234.8696456250036,233.78422924963914,,231.76037983299466,236.92863325000508,231.76037983299466,236.92863325000508,236.92863325000508,237.61342487495858,231.76037983299466,2,1,1.031319459027145,reldom2_s028,001,2025-03-04_12h12.25.599,Where-A-Scan_AC,2022.2.5,None,
0,0.0,None,fixation,stimulus/viswhere_stim/blank_white.png,stimulus/viswhere_stim/blank_white.png,stimulus/audwhere_stim/blank_white.png,stimulus/audwhere_stim/blank_white.png,stimulus/viswhere_stim/blank_white.png,stimulus/viswhere_stim/blank_white.png,stimulus/viswhere_stim/blank_white.png,stimulus/viswhere_stim/blank_white.png,0.0,0.0,0.0,0.0,0,0.0,0,0.0,0,0.0,0,0.0,0,0.0,0.0,0,0.0,0,0.0,0,0.0,0,0.0,0,0.0,0,0.0,0,0.0,0,0.0,9,,,,,0,24,24,24,,,,,,,,,237.8438165409607,237.8438165409607,237.8438165409607,237.8438165409607,237.8438165409607,237.8438165409607,237.8438165409607,237.8438165409607,237.74675820829194,237.8438165409607,237.8438165409607,237.8438165409607,237.74675820829194,237.8438165409607,237.8438165409607,237.8438165409607,237.8438165409607,237.8438165409607,237.8438165409607,237.8438165409607,237.8438165409607,237.8438165409607,237.8438165409607,237.8438165409607,237.8438165409607,237.8438165409607,237.8438165409607,237.79675820829192,237.8438165409607,237.8438165409607,237.8438165409607,237.79675820829192,237.8438165409607,237.8438165409607,237.8438165409607,237.8438165409607,237.8438165409607,243.05348408297868,243.05348408297868,247.09278491599252,None,0,,reldom2_s028,001,2025-03-04_12h12.25.599,Where-A-Scan_AC,2022.2.5,None,
19,First_Order,4.0,audwhere,stimulus/audwhere_stim/dummy.wav,stimulus/audwhere_stim/dummy.wav,stimulus/audwhere_stim/right_away_300h.wav,stimulus/audwhere_stim/left_away_280h.wav,stimulus/audwhere_stim/blank_white.png,stimulus/audwhere_stim/direction_box.png,stimulus/audwhere_stim/direction_yes.png,stimulus/audwhere_stim/direction_no.png,None,Direction,None,Direction,1,0.0,0,5.125,0,5.125,0,5.125,0,0.0,0.625,0,0.0,0,0.0,0,0.0,0,0.0,0,0.0,0,0.0,1,0.5,1,2.125,0,,,,,0,25,25,25,,,,,,,,,247.09278491599252,247.09278491599252,247.09278491599252,247.09278491599252,247.09278491599252,247.09278491599252,247.09278491599252,247.09278491599252,247.0218834996728,247.09278491599252,247.09278491599252,247.09278491599252,247.0218834996728,247.09278491599252,247.09278491599252,247.09278491599252,249.17423583299387,,247.09278491599252,247.09278491599252,252.28372766601387,247.09278491599252,247.09278491599252,247.09278491599252,247.09278491599252,247.5540258329711,248.61929041601252,247.52459933265735,,249.17423583299387,250.24475212499965,249.1441178326534,,247.09278491599252,252.28372766601387,247.09278491599252,252.28372766601387,252.28372766601387,252.93488237500424,247.09278491599252,1,1,1.2681747089955024,reldom2_s028,001,2025-03-04_12h12.25.599,Where-A-Scan_AC,2022.2.5,None,
20,First_Order,4.0,audwhere,stimulus/audwhere_stim/dummy.wav,stimulus/audwhere_stim/dummy.wav,stimulus/audwhere_stim/right_toward_270h.wav,stimulus/audwhere_stim/right_away_280h.wav,stimulus/audwhere_stim/blank_white.png,stimulus/audwhere_stim/direction_box.png,stimulus/audwhere_stim/direction_yes.png,stimulus/audwhere_stim/direction_no.png,None,Direction,None,Side,2,0.0,0,5.125,0,5.125,0,5.125,0,0.0,0.625,0,0.0,0,0.0,0,0.0,0,0.0,0,0.0,0,0.0,1,0.5,1,2.125,0,,,,,0,26,26,26,,,,,,,,,253.18839587498223,253.18839587498223,253.18839587498223,253.18839587498223,253.18839587498223,253.18839587498223,253.18839587498223,253.18839587498223,253.10862541632574,253.18839587498223,253.18839587498223,253.18839587498223,253.10862541632574,253.18839587498223,253.18839587498223,253.18839587498223,255.2781297499896,,253.18839587498223,253.18839587498223,258.34466599998996,253.18839587498223,253.18839587498223,253.18839587498223,253.18839587498223,253.6522816249635,254.72244620800484,253.62236774963483,,255.2781297499896,256.35119795799255,255.24831529165775,,253.18839587498223,258.34466599998996,253.18839587498223,258.34466599998996,258.38560275000054,259.03745699999854,253.18839587498223,2,1,0.7612122080172412,reldom2_s028,001,2025-03-04_12h12.25.599,Where-A-Scan_AC,2022.2.5,None,
21,First_Order,4.0,audwhere,stimulus/audwhere_stim/dummy.wav,stimulus/audwhere_stim/dummy.wav,stimulus/audwhere_stim/left_toward_300h.wav,stimulus/audwhere_stim/left_away_300h.wav,stimulus/audwhere_stim/blank_white.png,stimulus/audwhere_stim/side_box.png,stimulus/audwhere_stim/side_yes.png,stimulus/audwhere_stim/side_no.png,None,Side,None,Side,1,0.0,0,5.125,0,5.125,0,5.125,0,0.0,0.625,0,0.0,0,0.0,0,0.0,0,0.0,0,0.0,0,0.0,1,0.5,1,2.125,0,,,,,0,27,27,27,,,,,,,,,259.29028445796575,259.29028445796575,259.29028445796575,259.29028445796575,259.29028445796575,259.29028445796575,259.29028445796575,259.29028445796575,259.2109685833294,259.29028445796575,259.29028445796575,259.29028445796575,259.2109685833294,259.29028445796575,259.29028445796575,259.29028445796575,261.3704850409995,265.40280708298087,259.29028445796575,259.29028445796575,264.46239241596777,259.29028445796575,259.29028445796575,259.29028445796575,259.29028445796575,259.75239345798036,260.81518266600324,259.7223852916543,,261.3704850409995,262.43595212500077,261.34015437466246,,259.29028445796575,264.46239241596777,259.29028445796575,264.46239241596777,264.5036307499977,265.15094262501225,259.29028445796575,1,1,0.7797611670102924,reldom2_s028,001,2025-03-04_12h12.25.599,Where-A-Scan_AC,2022.2.5,None,
22,First_Order,4.0,audwhere,stimulus/audwhere_stim/dummy.wav,stimulus/audwhere_stim/dummy.wav,stimulus/audwhere_stim/right_away_270h.wav,stimulus/audwhere_stim/left_away_300h.wav,stimulus/audwhere_stim/blank_white.png,stimulus/audwhere_stim/side_box.png,stimulus/audwhere_stim/side_yes.png,stimulus/audwhere_stim/side_no.png,None,Side,None,Direction,2,0.0,0,5.125,0,5.125,0,5.125,0,0.0,0.625,0,0.0,0,0.0,0,0.0,0,0.0,0,0.0,0,0.0,1,0.5,1,2.125,0,,,,,0,28,28,28,,,,,,,,,265.40280708298087,265.40280708298087,265.40280708298087,265.40280708298087,265.40280708298087,265.40280708298087,265.40280708298087,265.40280708298087,265.32413537430887,265.40280708298087,265.40280708298087,265.40280708298087,265.32413537430887,265.40280708298087,265.40280708298087,265.40280708298087,267.48247862496646,271.5499926659977,265.40280708298087,265.40280708298087,270.5844333329587,265.40280708298087,265.40280708298087,265.40280708298087,265.40280708298087,265.86604329099646,266.92969512497075,265.83618237462747,,267.48247862496646,268.5490680829971,267.4526230416416,,265.40280708298087,270.5844333329587,265.40280708298087,270.5844333329587,270.6255952079664,271.2769353329786,265.40280708298087,2,1,0.7578641250147484,reldom2_s028,001,2025-03-04_12h12.25.599,Where-A-Scan_AC,2022.2.5,None,
0,0.0,None,fixation,stimulus/viswhere_stim/blank_white.png,stimulus/viswhere_stim/blank_white.png,stimulus/audwhere_stim/blank_white.png,stimulus/audwhere_stim/blank_white.png,stimulus/viswhere_stim/blank_white.png,stimulus/viswhere_stim/blank_white.png,stimulus/viswhere_stim/blank_white.png,stimulus/viswhere_stim/blank_white.png,0.0,0.0,0.0,0.0,0,0.0,0,0.0,0,0.0,0,0.0,0,0.0,0.0,0,0.0,0,0.0,0,0.0,0,0.0,0,0.0,0,0.0,0,0.0,0,0.0,9,,,,,0,29,29,29,,,,,,,,,271.5499926659977,271.5499926659977,271.5499926659977,271.5499926659977,271.5499926659977,271.5499926659977,271.5499926659977,271.5499926659977,271.4510837082945,271.5499926659977,271.5499926659977,271.5499926659977,271.4510837082945,271.5499926659977,271.5499926659977,271.5499926659977,271.5499926659977,271.5499926659977,271.5499926659977,271.5499926659977,271.5499926659977,271.5499926659977,271.5499926659977,271.5499926659977,271.5499926659977,271.5499926659977,271.5499926659977,271.5010837082945,271.5499926659977,271.5499926659977,271.5499926659977,271.5010837082945,271.5499926659977,271.5499926659977,271.5499926659977,271.5499926659977,271.5499926659977,276.7697390000103,276.7697390000103,280.69638883299194,None,0,,reldom2_s028,001,2025-03-04_12h12.25.599,Where-A-Scan_AC,2022.2.5,None,
23,Second_Order,4.0,audwhere,stimulus/audwhere_stim/left_away_270h.wav,stimulus/audwhere_stim/left_toward_290h.wav,stimulus/audwhere_stim/left_toward_300h.wav,stimulus/audwhere_stim/right_toward_280h.wav,stimulus/viswhere_stim/match_blank.png,stimulus/audwhere_stim/match_box.png,stimulus/viswhere_stim/match_yes.png,stimulus/viswhere_stim/match_no.png,2.0,Match,Side,Direction,2,5.125,0,5.125,0,5.125,0,5.125,0,0.75,0.75,0,0.0,0,0.0,0,0.0,0,0.0,1,0.5,1,2.125,1,0.5,1,2.125,0,,,,,0,30,30,30,,,,,,,,,280.69638883299194,285.8088776249788,280.69638883299194,280.69638883299194,280.69638883299194,280.69638883299194,281.1474331250065,282.1461388329626,281.16050674964595,,282.78113287501037,283.7700461249915,282.78426245763353,,285.8088776249788,286.64460633299313,288.71059229096863,292.6453593329643,286.64460633299313,286.64460633299313,291.7960902499617,286.64460633299313,286.64460633299313,286.64460633299313,286.64460633299313,287.10363166598836,288.1601543750148,287.07419195765783,,288.71059229096863,289.77076458296506,288.68160949967955,,286.64460633299313,291.7960902499617,286.64460633299313,291.7960902499617,291.83713529095985,,286.64460633299313,2,1,0.7873064579907805,reldom2_s028,001,2025-03-04_12h12.25.599,Where-A-Scan_AC,2022.2.5,None,
24,Second_Order,4.0,audwhere,stimulus/audwhere_stim/right_toward_290h.wav,stimulus/audwhere_stim/right_away_290h.wav,stimulus/audwhere_stim/left_away_300h.wav,stimulus/audwhere_stim/left_toward_270h.wav,stimulus/viswhere_stim/match_blank.png,stimulus/audwhere_stim/match_box.png,stimulus/viswhere_stim/match_yes.png,stimulus/viswhere_stim/match_no.png,1.0,Match,Side,Side,1,5.125,0,5.125,0,5.125,0,5.125,0,0.625,0.625,0,0.0,0,0.0,0,0.0,0,0.0,1,0.5,1,2.125,1,0.5,1,2.125,0,,,,,0,31,31,31,,,,,,,,,292.6453593329643,297.77091662498424,292.6453593329643,292.6453593329643,292.6453593329643,292.6453593329643,293.1049030830036,294.0947674160125,293.10761237465,,294.7294717080076,295.7273990410031,294.74196966668046,,297.77091662498424,298.499326457968,300.5460604580003,304.61561516596703,298.499326457968,298.499326457968,303.6590457079583,298.499326457968,298.499326457968,298.499326457968,298.499326457968,298.9519264579867,299.9988685409771,298.92316841666275,,300.5460604580003,301.60042649996467,300.51666399964984,,298.499326457968,303.6590457079583,298.499326457968,303.6590457079583,303.6590457079583,304.34434266597964,298.499326457968,1,1,1.2833480830304325,reldom2_s028,001,2025-03-04_12h12.25.599,Where-A-Scan_AC,2022.2.5,None,
0,0.0,None,fixation,stimulus/viswhere_stim/blank_white.png,stimulus/viswhere_stim/blank_white.png,stimulus/audwhere_stim/blank_white.png,stimulus/audwhere_stim/blank_white.png,stimulus/viswhere_stim/blank_white.png,stimulus/viswhere_stim/blank_white.png,stimulus/viswhere_stim/blank_white.png,stimulus/viswhere_stim/blank_white.png,0.0,0.0,0.0,0.0,0,0.0,0,0.0,0,0.0,0,0.0,0,0.0,0.0,0,0.0,0,0.0,0,0.0,0,0.0,0,0.0,0,0.0,0,0.0,0,0.0,10,,,,,0,32,32,32,,,,,,,,,304.61561516596703,304.61561516596703,304.61561516596703,304.61561516596703,304.61561516596703,304.61561516596703,304.61561516596703,304.61561516596703,304.51814237432166,304.61561516596703,304.61561516596703,304.61561516596703,304.51814237432166,304.61561516596703,304.61561516596703,304.61561516596703,304.61561516596703,304.61561516596703,304.61561516596703,304.61561516596703,304.61561516596703,304.61561516596703,304.61561516596703,304.61561516596703,304.61561516596703,304.61561516596703,304.61561516596703,304.56814237432167,304.61561516596703,304.61561516596703,304.61561516596703,304.56814237432167,304.61561516596703,304.61561516596703,304.61561516596703,304.61561516596703,304.61561516596703,309.836054000014,309.836054000014,314.7854631660157,None,0,,reldom2_s028,001,2025-03-04_12h12.25.599,Where-A-Scan_AC,2022.2.5,None,
25,First_Order,5.0,viswhere,stimulus/viswhere_stim/blank_white.png,stimulus/viswhere_stim/blank_white.png,stimulus/viswhere_stim/120-deg_dot-right_goldenrod.png,stimulus/viswhere_stim/150-deg_dot-right_turquoise.png,stimulus/viswhere_stim/blank_white.png,stimulus/viswhere_stim/dot_box.png,stimulus/viswhere_stim/dot_yes.png,stimulus/viswhere_stim/dot_no.png,None,Dot,None,Dot,1,0.0,0,5.125,0,5.125,0,5.125,0,0.0,0.625,0,0.0,0,0.0,1,0.5,1,2.125,0,0.0,0,0.0,0,0.0,0,0.0,0,,,,,0,33,33,33,,,,,,,,,314.7854631660157,314.7854631660157,314.7854631660157,314.7854631660157,314.7854631660157,314.7854631660157,314.7854631660157,314.7854631660157,314.7665729576644,314.7854631660157,314.7854631660157,314.7854631660157,314.7665729576644,314.7854631660157,314.7854631660157,314.7854631660157,316.88532783300616,320.8405958749936,314.7854631660157,314.7854631660157,319.9087979159667,315.2633438750054,316.27547520800726,316.88532783300616,317.9027354159625,314.7854631660157,314.7854631660157,314.7665729576644,314.7854631660157,314.7854631660157,314.7854631660157,314.7665729576644,314.7854631660157,314.7854631660157,319.9087979159667,314.7854631660157,319.9087979159667,320.0101092499681,320.63835979095893,314.7854631660157,1,1,0.884222666034475,reldom2_s028,001,2025-03-04_12h12.25.599,Where-A-Scan_AC,2022.2.5,None,
26,First_Order,5.0,viswhere,stimulus/viswhere_stim/blank_white.png,stimulus/viswhere_stim/blank_white.png,stimulus/viswhere_stim/90-deg_dot-right_royalblue.png,stimulus/viswhere_stim/120-deg_dot-right_seagreen.png,stimulus/viswhere_stim/blank_white.png,stimulus/viswhere_stim/line_box.png,stimulus/viswhere_stim/line_yes.png,stimulus/viswhere_stim/line_no.png,None,Line,None,Dot,2,0.0,0,5.125,0,5.125,0,5.125,0,0.0,0.625,0,0.0,0,0.0,1,0.5,1,2.125,0,0.0,0,0.0,0,0.0,0,0.0,0,,,,,0,34,34,34,,,,,,,,,320.8405958749936,320.8405958749936,320.8405958749936,320.8405958749936,320.8405958749936,320.8405958749936,320.8405958749936,320.8405958749936,320.8202558743263,320.8405958749936,320.8405958749936,320.8405958749936,320.8202558743263,320.8405958749936,320.8405958749936,320.8405958749936,322.9414601660101,326.90890154096996,320.8405958749936,320.8405958749936,325.98255870799767,321.3177872080123,322.3322320829611,322.9414601660101,323.95861329097534,320.8405958749936,320.8405958749936,320.83692254099293,320.8405958749936,320.8405958749936,320.8405958749936,320.83692254099293,320.8405958749936,320.8405958749936,325.98255870799767,320.8405958749936,325.98255870799767,326.06579575000796,326.6916887079715,320.8405958749936,2,1,0.8099406670080498,reldom2_s028,001,2025-03-04_12h12.25.599,Where-A-Scan_AC,2022.2.5,None,
27,First_Order,5.0,viswhere,stimulus/viswhere_stim/blank_white.png,stimulus/viswhere_stim/blank_white.png,stimulus/viswhere_stim/60-deg_dot-left_lightsseagreen.png,stimulus/viswhere_stim/60-deg_dot-right_slateblue.png,stimulus/viswhere_stim/blank_white.png,stimulus/viswhere_stim/line_box.png,stimulus/viswhere_stim/line_yes.png,stimulus/viswhere_stim/line_no.png,None,Line,None,Line,1,0.0,0,5.125,0,5.125,0,5.125,0,0.0,0.625,0,0.0,0,0.0,1,0.5,1,2.125,0,0.0,0,0.0,0,0.0,0,0.0,0,,,,,0,35,35,35,,,,,,,,,326.90890154096996,326.90890154096996,326.90890154096996,326.90890154096996,326.90890154096996,326.90890154096996,326.90890154096996,326.90890154096996,326.88877499932033,326.90890154096996,326.90890154096996,326.90890154096996,326.88877499932033,326.90890154096996,326.90890154096996,326.90890154096996,329.02085916599026,332.97249633300817,326.90890154096996,326.90890154096996,332.0356218749657,327.38412616599817,328.3958098749863,329.02085916599026,330.0335300829611,326.90890154096996,326.90890154096996,326.905441665987,326.90890154096996,326.90890154096996,326.90890154096996,326.905441665987,326.90890154096996,326.90890154096996,332.0356218749657,326.90890154096996,332.0356218749657,332.13819904101547,332.76906295795925,326.90890154096996,1,1,1.2771160840056837,reldom2_s028,001,2025-03-04_12h12.25.599,Where-A-Scan_AC,2022.2.5,None,
28,First_Order,5.0,viswhere,stimulus/viswhere_stim/blank_white.png,stimulus/viswhere_stim/blank_white.png,stimulus/viswhere_stim/120-deg_dot-right_slateblue.png,stimulus/viswhere_stim/90-deg_dot-right_cyan.png,stimulus/viswhere_stim/blank_white.png,stimulus/viswhere_stim/dot_box.png,stimulus/viswhere_stim/dot_yes.png,stimulus/viswhere_stim/dot_no.png,None,Dot,None,Dot,1,0.0,0,5.125,0,5.125,0,5.125,0,0.0,0.625,0,0.0,0,0.0,1,0.5,1,2.125,0,0.0,0,0.0,0,0.0,0,0.0,0,,,,,0,36,36,36,,,,,,,,,332.97249633300817,332.97249633300817,332.97249633300817,332.97249633300817,332.97249633300817,332.97249633300817,332.97249633300817,332.97249633300817,332.9524106662914,332.97249633300817,332.97249633300817,332.97249633300817,332.9524106662914,332.97249633300817,332.97249633300817,332.97249633300817,335.07185729098273,339.12350187497213,332.97249633300817,332.97249633300817,338.112060540996,333.45032433298184,334.46219474996906,335.07185729098273,336.09011737495894,332.97249633300817,332.97249633300817,332.9690773329581,332.97249633300817,332.97249633300817,332.97249633300817,332.9690773329581,332.97249633300817,332.97249633300817,338.112060540996,332.97249633300817,338.112060540996,338.19564058299875,338.83018520800397,332.97249633300817,1,1,0.9119205000461079,reldom2_s028,001,2025-03-04_12h12.25.599,Where-A-Scan_AC,2022.2.5,None,
0,0.0,None,fixation,stimulus/viswhere_stim/blank_white.png,stimulus/viswhere_stim/blank_white.png,stimulus/audwhere_stim/blank_white.png,stimulus/audwhere_stim/blank_white.png,stimulus/viswhere_stim/blank_white.png,stimulus/viswhere_stim/blank_white.png,stimulus/viswhere_stim/blank_white.png,stimulus/viswhere_stim/blank_white.png,0.0,0.0,0.0,0.0,0,0.0,0,0.0,0,0.0,0,0.0,0,0.0,0.0,0,0.0,0,0.0,0,0.0,0,0.0,0,0.0,0,0.0,0,0.0,0,0.0,9,,,,,0,37,37,37,,,,,,,,,339.12350187497213,339.12350187497213,339.12350187497213,339.12350187497213,339.12350187497213,339.12350187497213,339.12350187497213,339.12350187497213,339.02652912431705,339.12350187497213,339.12350187497213,339.12350187497213,339.02652912431705,339.12350187497213,339.12350187497213,339.12350187497213,339.12350187497213,339.12350187497213,339.12350187497213,339.12350187497213,339.12350187497213,339.12350187497213,339.12350187497213,339.12350187497213,339.12350187497213,339.12350187497213,339.12350187497213,339.07652912431706,339.12350187497213,339.12350187497213,339.12350187497213,339.07652912431706,339.12350187497213,339.12350187497213,339.12350187497213,339.12350187497213,339.12350187497213,344.3076944159693,344.3076944159693,348.27126420801505,None,0,,reldom2_s028,001,2025-03-04_12h12.25.599,Where-A-Scan_AC,2022.2.5,None,
29,Second_Order,5.0,viswhere,stimulus/viswhere_stim/150-deg_dot-right_cyan.png,stimulus/viswhere_stim/150-deg_dot-left_peru.png,stimulus/viswhere_stim/90-deg_dot-left_goldenrod.png,stimulus/viswhere_stim/90-deg_dot-right_mediumslateblue.png,stimulus/viswhere_stim/match_blank.png,stimulus/viswhere_stim/match_box.png,stimulus/viswhere_stim/match_yes.png,stimulus/viswhere_stim/match_no.png,1.0,Match,Line,Line,1,5.125,0,5.125,0,5.125,0,5.125,0,0.75,0.75,1,0.5,1,2.125,1,0.5,1,2.125,0,0.0,0,0.0,0,0.0,0,0.0,0,,,,,0,38,38,38,,,,,,,,,348.27126420801505,353.3938197499956,348.75434104097076,349.7521627499955,350.37451554101426,351.37276508298237,348.27126420801505,348.27126420801505,348.2859827083031,348.27126420801505,348.27126420801505,348.27126420801505,348.2859827083031,348.27126420801505,353.3938197499956,354.188256333,356.26718433300266,360.1619643329759,354.188256333,354.188256333,359.3271733750007,354.6330993329757,355.65207304101204,356.26718433300266,357.271501790965,354.188256333,354.188256333,354.1623883743382,354.188256333,354.188256333,354.188256333,354.1623883743382,354.188256333,354.188256333,359.3271733750007,354.188256333,359.3271733750007,359.3876285000006,360.1619643329759,354.188256333,1,1,0.6028558749821968,reldom2_s028,001,2025-03-04_12h12.25.599,Where-A-Scan_AC,2022.2.5,None,
30,Second_Order,5.0,viswhere,stimulus/viswhere_stim/90-deg_dot-right_royalblue.png,stimulus/viswhere_stim/60-deg_dot-right_peru.png,stimulus/viswhere_stim/30-deg_dot-left_slateblue.png,stimulus/viswhere_stim/90-deg_dot-left_seagreen.png,stimulus/viswhere_stim/match_blank.png,stimulus/viswhere_stim/match_box.png,stimulus/viswhere_stim/match_yes.png,stimulus/viswhere_stim/match_no.png,1.0,Match,Dot,Dot,1,5.125,0,5.125,0,5.125,0,5.125,0,0.625,0.625,1,0.5,1,2.125,1,0.5,1,2.125,0,0.0,0,0.0,0,0.0,0,0.0,0,,,,,0,39,39,39,,,,,,,,,360.1619643329759,365.27710666600615,360.6479359579971,361.6465380829759,362.2688062500092,363.26695533300517,360.1619643329759,360.1619643329759,360.1755053749774,360.1619643329759,360.1619643329759,360.1619643329759,360.1755053749774,360.1619643329759,365.27710666600615,365.9463145409827,368.03156500001205,372.0632549999864,365.9463145409827,365.9463145409827,371.0842069580103,366.41035083297174,367.4222995410091,368.03156500001205,369.0511304999818,365.9463145409827,365.9463145409827,365.92288370832875,365.9463145409827,365.9463145409827,365.9463145409827,365.92288370832875,365.9463145409827,365.9463145409827,371.0842069580103,365.9463145409827,371.0842069580103,371.13829425000586,371.7656104579801,365.9463145409827,1,1,1.1708532919874415,reldom2_s028,001,2025-03-04_12h12.25.599,Where-A-Scan_AC,2022.2.5,None,
0,0.0,None,fixation,stimulus/viswhere_stim/blank_white.png,stimulus/viswhere_stim/blank_white.png,stimulus/audwhere_stim/blank_white.png,stimulus/audwhere_stim/blank_white.png,stimulus/viswhere_stim/blank_white.png,stimulus/viswhere_stim/blank_white.png,stimulus/viswhere_stim/blank_white.png,stimulus/viswhere_stim/blank_white.png,0.0,0.0,0.0,0.0,0,0.0,0,0.0,0,0.0,0,0.0,0,0.0,0.0,0,0.0,0,0.0,0,0.0,0,0.0,0,0.0,0,0.0,0,0.0,0,0.0,8,,,,,0,40,40,40,,,,,,,,,372.0632549999864,372.0632549999864,372.0632549999864,372.0632549999864,372.0632549999864,372.0632549999864,372.0632549999864,372.0632549999864,371.96279516631813,372.0632549999864,372.0632549999864,372.0632549999864,371.96279516631813,372.0632549999864,372.0632549999864,372.0632549999864,372.0632549999864,372.0632549999864,372.0632549999864,372.0632549999864,372.0632549999864,372.0632549999864,372.0632549999864,372.0632549999864,372.0632549999864,372.0632549999864,372.0632549999864,372.01279516631814,372.0632549999864,372.0632549999864,372.0632549999864,372.01279516631814,372.0632549999864,372.0632549999864,372.0632549999864,372.0632549999864,372.0632549999864,377.2657695829985,377.2657695829985,380.26869674999034,None,0,,reldom2_s028,001,2025-03-04_12h12.25.599,Where-A-Scan_AC,2022.2.5,None,
31,First_Order,6.0,viswhere,stimulus/viswhere_stim/blank_white.png,stimulus/viswhere_stim/blank_white.png,stimulus/viswhere_stim/90-deg_dot-right_lightsseagreen.png,stimulus/viswhere_stim/90-deg_dot-left_turquoise.png,stimulus/viswhere_stim/blank_white.png,stimulus/viswhere_stim/line_box.png,stimulus/viswhere_stim/line_yes.png,stimulus/viswhere_stim/line_no.png,None,Line,None,Line,1,0.0,0,5.125,0,5.125,0,5.125,0,0.0,0.625,0,0.0,0,0.0,1,0.5,1,2.125,0,0.0,0,0.0,0,0.0,0,0.0,0,,,,,0,41,41,41,,,,,,,,,380.26869674999034,380.26869674999034,380.26869674999034,380.26869674999034,380.26869674999034,380.26869674999034,380.26869674999034,380.26869674999034,380.2499864576772,380.26869674999034,380.26869674999034,380.26869674999034,380.2499864576772,380.26869674999034,380.26869674999034,380.26869674999034,382.3713404579903,386.32623295800295,380.26869674999034,380.26869674999034,385.39656670799013,380.7458933329908,381.75905612501083,382.3713404579903,383.3907536659972,380.26869674999034,380.26869674999034,380.2499864576772,380.26869674999034,380.26869674999034,380.26869674999034,380.2499864576772,380.26869674999034,380.26869674999034,385.39656670799013,380.26869674999034,385.39656670799013,385.4977741659968,386.126604207966,380.26869674999034,1,1,0.6305980420438573,reldom2_s028,001,2025-03-04_12h12.25.599,Where-A-Scan_AC,2022.2.5,None,
32,First_Order,6.0,viswhere,stimulus/viswhere_stim/blank_white.png,stimulus/viswhere_stim/blank_white.png,stimulus/viswhere_stim/30-deg_dot-right_goldenrod.png,stimulus/viswhere_stim/30-deg_dot-left_seagreen.png,stimulus/viswhere_stim/blank_white.png,stimulus/viswhere_stim/dot_box.png,stimulus/viswhere_stim/dot_yes.png,stimulus/viswhere_stim/dot_no.png,None,Dot,None,Line,2,0.0,0,5.125,0,5.125,0,5.125,0,0.0,0.625,0,0.0,0,0.0,1,0.5,1,2.125,0,0.0,0,0.0,0,0.0,0,0.0,0,,,,,0,42,42,42,,,,,,,,,386.32623295800295,386.32623295800295,386.32623295800295,386.32623295800295,386.32623295800295,386.32623295800295,386.32623295800295,386.32623295800295,386.30613649929484,386.32623295800295,386.32623295800295,386.32623295800295,386.30613649929484,386.32623295800295,386.32623295800295,386.32623295800295,388.43937904096674,392.38716387498425,386.32623295800295,386.32623295800295,391.45130062499084,386.80228520795936,387.81194466596935,388.43937904096674,389.4534812080092,386.32623295800295,386.32623295800295,386.3228031659615,386.32623295800295,386.32623295800295,386.32623295800295,386.3228031659615,386.32623295800295,386.32623295800295,391.45130062499084,386.32623295800295,391.45130062499084,391.5519577499945,392.182608040981,386.32623295800295,2,1,1.8261538329534233,reldom2_s028,001,2025-03-04_12h12.25.599,Where-A-Scan_AC,2022.2.5,None,
33,First_Order,6.0,viswhere,stimulus/viswhere_stim/blank_white.png,stimulus/viswhere_stim/blank_white.png,stimulus/viswhere_stim/150-deg_dot-left_lightsseagreen.png,stimulus/viswhere_stim/150-deg_dot-right_royalblue.png,stimulus/viswhere_stim/blank_white.png,stimulus/viswhere_stim/dot_box.png,stimulus/viswhere_stim/dot_yes.png,stimulus/viswhere_stim/dot_no.png,None,Dot,None,Line,2,0.0,0,5.125,0,5.125,0,5.125,0,0.0,0.625,0,0.0,0,0.0,1,0.5,1,2.125,0,0.0,0,0.0,0,0.0,0,0.0,0,,,,,0,43,43,43,,,,,,,,,392.38716387498425,392.38716387498425,392.38716387498425,392.38716387498425,392.38716387498425,392.38716387498425,392.38716387498425,392.38716387498425,392.36640108332114,392.38716387498425,392.38716387498425,392.38716387498425,392.36640108332114,392.38716387498425,392.38716387498425,392.38716387498425,394.5023757079616,398.4482560000033,392.38716387498425,392.38716387498425,397.51187870797,392.8673062080052,393.8862797499751,394.5023757079616,395.5084077909705,392.38716387498425,392.38716387498425,392.3830677499878,392.38716387498425,392.38716387498425,392.38716387498425,392.3830677499878,392.38716387498425,392.38716387498425,397.51187870797,392.38716387498425,397.51187870797,397.60911587497685,398.2406293749809,392.38716387498425,2,1,0.9172272079740651,reldom2_s028,001,2025-03-04_12h12.25.599,Where-A-Scan_AC,2022.2.5,None,
34,First_Order,6.0,viswhere,stimulus/viswhere_stim/blank_white.png,stimulus/viswhere_stim/blank_white.png,stimulus/viswhere_stim/120-deg_dot-left_peru.png,stimulus/viswhere_stim/90-deg_dot-left_royalblue.png,stimulus/viswhere_stim/blank_white.png,stimulus/viswhere_stim/line_box.png,stimulus/viswhere_stim/line_yes.png,stimulus/viswhere_stim/line_no.png,None,Line,None,Dot,2,0.0,0,5.125,0,5.125,0,5.125,0,0.0,0.625,0,0.0,0,0.0,1,0.5,1,2.125,0,0.0,0,0.0,0,0.0,0,0.0,0,,,,,0,44,44,44,,,,,,,,,398.4482560000033,398.4482560000033,398.4482560000033,398.4482560000033,398.4482560000033,398.4482560000033,398.4482560000033,398.4482560000033,398.4273660413067,398.4482560000033,398.4482560000033,398.4482560000033,398.4273660413067,398.4482560000033,398.4482560000033,398.4482560000033,400.5511164579657,404.593971040973,398.4482560000033,398.4482560000033,403.57812420796836,398.9257644159952,399.93940999999177,400.5511164579657,401.5704563749605,398.4482560000033,398.4482560000033,398.44403270797335,398.4482560000033,398.4482560000033,398.4482560000033,398.44403270797335,398.4482560000033,398.4482560000033,403.57812420796836,398.4482560000033,403.57812420796836,403.67586970800767,404.3013054159819,398.4482560000033,2,1,0.6388191659934819,reldom2_s028,001,2025-03-04_12h12.25.599,Where-A-Scan_AC,2022.2.5,None,
0,0.0,None,fixation,stimulus/viswhere_stim/blank_white.png,stimulus/viswhere_stim/blank_white.png,stimulus/audwhere_stim/blank_white.png,stimulus/audwhere_stim/blank_white.png,stimulus/viswhere_stim/blank_white.png,stimulus/viswhere_stim/blank_white.png,stimulus/viswhere_stim/blank_white.png,stimulus/viswhere_stim/blank_white.png,0.0,0.0,0.0,0.0,0,0.0,0,0.0,0,0.0,0,0.0,0,0.0,0.0,0,0.0,0,0.0,0,0.0,0,0.0,0,0.0,0,0.0,0,0.0,0,0.0,10,,,,,0,45,45,45,,,,,,,,,404.593971040973,404.593971040973,404.593971040973,404.593971040973,404.593971040973,404.593971040973,404.593971040973,404.593971040973,404.4967629163487,404.593971040973,404.593971040973,404.593971040973,404.4967629163487,404.593971040973,404.593971040973,404.593971040973,404.593971040973,404.593971040973,404.593971040973,404.593971040973,404.593971040973,404.593971040973,404.593971040973,404.593971040973,404.593971040973,404.593971040973,404.593971040973,404.5467629163487,404.593971040973,404.593971040973,404.593971040973,404.5467629163487,404.593971040973,404.593971040973,404.593971040973,404.593971040973,404.593971040973,409.7781904579606,409.7781904579606,414.7148118329933,None,0,,reldom2_s028,001,2025-03-04_12h12.25.599,Where-A-Scan_AC,2022.2.5,None,
35,Second_Order,6.0,viswhere,stimulus/viswhere_stim/60-deg_dot-right_mediumslateblue.png,stimulus/viswhere_stim/150-deg_dot-right_turquoise.png,stimulus/viswhere_stim/90-deg_dot-right_slateblue.png,stimulus/viswhere_stim/90-deg_dot-left_seagreen.png,stimulus/viswhere_stim/match_blank.png,stimulus/viswhere_stim/match_box.png,stimulus/viswhere_stim/match_yes.png,stimulus/viswhere_stim/match_no.png,2.0,Match,Dot,Line,2,5.125,0,5.125,0,5.125,0,5.125,0,0.75,0.75,1,0.5,1,2.125,1,0.5,1,2.125,0,0.0,0,0.0,0,0.0,0,0.0,0,,,,,0,46,46,46,,,,,,,,,414.7148118329933,419.83551954099676,415.19049512495985,416.18902250000974,416.8235121659818,417.81295920797857,414.7148118329933,414.7148118329933,414.72858520833154,414.7148118329933,414.7148118329933,414.7148118329933,414.72858520833154,414.7148118329933,419.83551954099676,420.6290871659876,422.7045683329925,426.60096650000196,420.6290871659876,420.6290871659876,425.7645695829997,421.07394920795923,422.0918375829933,422.7045683329925,423.7078617499792,420.6290871659876,420.6290871659876,420.60287599929916,420.6290871659876,420.6290871659876,420.6290871659876,420.60287599929916,420.6290871659876,420.6290871659876,425.7645695829997,420.6290871659876,425.7645695829997,425.8210783749819,426.60096650000196,420.6290871659876,2,1,1.2576831249753013,reldom2_s028,001,2025-03-04_12h12.25.599,Where-A-Scan_AC,2022.2.5,None,
36,Second_Order,6.0,viswhere,stimulus/viswhere_stim/120-deg_dot-left_royalblue.png,stimulus/viswhere_stim/120-deg_dot-right_cyan.png,stimulus/viswhere_stim/90-deg_dot-left_slateblue.png,stimulus/viswhere_stim/90-deg_dot-right_turquoise.png,stimulus/viswhere_stim/match_blank.png,stimulus/viswhere_stim/match_box.png,stimulus/viswhere_stim/match_yes.png,stimulus/viswhere_stim/match_no.png,1.0,Match,Line,Line,1,5.125,0,5.125,0,5.125,0,5.125,0,0.625,0.625,1,0.5,1,2.125,1,0.5,1,2.125,0,0.0,0,0.0,0,0.0,0,0.0,0,,,,,0,47,47,47,,,,,,,,,426.60096650000196,431.71293533296557,427.08478937495966,428.08333379100077,428.7063179159886,429.7037901660078,426.60096650000196,426.60096650000196,426.6145703749615,426.60096650000196,426.60096650000196,426.60096650000196,426.6145703749615,426.60096650000196,431.71293533296557,432.385475957999,434.46061012498103,438.49562308297027,432.385475957999,432.385475957999,437.5164717079606,432.8310827499954,433.846674875007,434.46061012498103,435.464688499982,432.385475957999,432.385475957999,432.35952029133523,432.385475957999,432.385475957999,432.385475957999,432.35952029133523,432.385475957999,432.385475957999,437.5164717079606,432.385475957999,437.5164717079606,437.60450487496564,438.2298339160043,432.385475957999,1,1,0.8143448329647072,reldom2_s028,001,2025-03-04_12h12.25.599,Where-A-Scan_AC,2022.2.5,None,
0,0.0,None,fixation,stimulus/viswhere_stim/blank_white.png,stimulus/viswhere_stim/blank_white.png,stimulus/audwhere_stim/blank_white.png,stimulus/audwhere_stim/blank_white.png,stimulus/viswhere_stim/blank_white.png,stimulus/viswhere_stim/blank_white.png,stimulus/viswhere_stim/blank_white.png,stimulus/viswhere_stim/blank_white.png,0.0,0.0,0.0,0.0,0,0.0,0,0.0,0,0.0,0,0.0,0,0.0,0.0,0,0.0,0,0.0,0,0.0,0,0.0,0,0.0,0,0.0,0,0.0,0,0.0,9,,,,,0,48,48,48,,,,,,,,,438.49562308297027,438.49562308297027,438.49562308297027,438.49562308297027,438.49562308297027,438.49562308297027,438.49562308297027,438.49562308297027,438.3965731242982,438.49562308297027,438.49562308297027,438.49562308297027,438.3965731242982,438.49562308297027,438.49562308297027,438.49562308297027,438.49562308297027,438.49562308297027,438.49562308297027,438.49562308297027,438.49562308297027,438.49562308297027,438.49562308297027,438.49562308297027,438.49562308297027,438.49562308297027,438.49562308297027,438.4465731242982,438.49562308297027,438.49562308297027,438.49562308297027,438.4465731242982,438.49562308297027,438.49562308297027,438.49562308297027,438.49562308297027,438.49562308297027,443.7108222079696,443.7108222079696,447.7292979579652,None,0,,reldom2_s028,001,2025-03-04_12h12.25.599,Where-A-Scan_AC,2022.2.5,None,
37,First_Order,7.0,audwhere,stimulus/audwhere_stim/dummy.wav,stimulus/audwhere_stim/dummy.wav,stimulus/audwhere_stim/left_toward_280h.wav,stimulus/audwhere_stim/left_away_290h.wav,stimulus/audwhere_stim/blank_white.png,stimulus/audwhere_stim/direction_box.png,stimulus/audwhere_stim/direction_yes.png,stimulus/audwhere_stim/direction_no.png,None,Direction,None,Side,2,0.0,0,5.125,0,5.125,0,5.125,0,0.0,0.625,0,0.0,0,0.0,0,0.0,0,0.0,0,0.0,0,0.0,1,0.5,1,2.125,0,,,,,0,49,49,49,,,,,,,,,447.7292979579652,447.7292979579652,447.7292979579652,447.7292979579652,447.7292979579652,447.7292979579652,447.7292979579652,447.7292979579652,447.6582998746695,447.7292979579652,447.7292979579652,447.7292979579652,447.6582998746695,447.7292979579652,447.7292979579652,447.7292979579652,449.82476158300415,453.8566385000013,447.7292979579652,447.7292979579652,452.8971850000089,447.7292979579652,447.7292979579652,447.7292979579652,447.7292979579652,448.197806207987,449.26717704097973,448.1677104576413,,449.82476158300415,450.8988879999961,449.79483124963394,,447.7292979579652,452.8971850000089,447.7292979579652,452.8971850000089,452.9392771659768,453.60263670800487,447.7292979579652,2,1,1.3851016249973327,reldom2_s028,001,2025-03-04_12h12.25.599,Where-A-Scan_AC,2022.2.5,None,
38,First_Order,7.0,audwhere,stimulus/audwhere_stim/dummy.wav,stimulus/audwhere_stim/dummy.wav,stimulus/audwhere_stim/left_away_300h.wav,stimulus/audwhere_stim/right_away_280h.wav,stimulus/audwhere_stim/blank_white.png,stimulus/audwhere_stim/side_box.png,stimulus/audwhere_stim/side_yes.png,stimulus/audwhere_stim/side_no.png,None,Side,None,Direction,2,0.0,0,5.125,0,5.125,0,5.125,0,0.0,0.625,0,0.0,0,0.0,0,0.0,0,0.0,0,0.0,0,0.0,1,0.5,1,2.125,0,,,,,0,50,50,50,,,,,,,,,453.8566385000013,453.8566385000013,453.8566385000013,453.8566385000013,453.8566385000013,453.8566385000013,453.8566385000013,453.8566385000013,453.77717204133126,453.8566385000013,453.8566385000013,453.8566385000013,453.77717204133126,453.8566385000013,453.8566385000013,453.8566385000013,455.93918845796725,459.98278070800006,453.8566385000013,453.8566385000013,459.0364443329745,453.8566385000013,453.8566385000013,453.8566385000013,453.8566385000013,454.3211040829774,455.3847560409922,454.29124887462626,,455.93918845796725,457.0058040409931,455.90947845764845,,453.8566385000013,459.0364443329745,453.8566385000013,459.0364443329745,459.0772155409795,459.7294863749994,453.8566385000013,2,1,0.6956231250078417,reldom2_s028,001,2025-03-04_12h12.25.599,Where-A-Scan_AC,2022.2.5,None,
39,First_Order,7.0,audwhere,stimulus/audwhere_stim/dummy.wav,stimulus/audwhere_stim/dummy.wav,stimulus/audwhere_stim/right_toward_280h.wav,stimulus/audwhere_stim/right_away_300h.wav,stimulus/audwhere_stim/blank_white.png,stimulus/audwhere_stim/side_box.png,stimulus/audwhere_stim/side_yes.png,stimulus/audwhere_stim/side_no.png,None,Side,None,Side,1,0.0,0,5.125,0,5.125,0,5.125,0,0.0,0.625,0,0.0,0,0.0,0,0.0,0,0.0,0,0.0,0,0.0,1,0.5,1,2.125,0,,,,,0,51,51,51,,,,,,,,,459.98278070800006,459.98278070800006,459.98278070800006,459.98278070800006,459.98278070800006,459.98278070800006,459.98278070800006,459.98278070800006,459.90371741631145,459.98278070800006,459.98278070800006,459.98278070800006,459.90371741631145,459.98278070800006,459.98278070800006,459.98278070800006,462.0670275409939,,459.98278070800006,459.98278070800006,465.16986949997954,459.98278070800006,459.98278070800006,459.98278070800006,459.98278070800006,460.44698279100703,461.5101661249646,460.41705224966086,,462.0670275409939,463.134036790987,462.0359315416465,,459.98278070800006,465.16986949997954,459.98278070800006,465.16986949997954,465.21064862498315,465.8610474159941,459.98278070800006,1,1,1.0325372500228696,reldom2_s028,001,2025-03-04_12h12.25.599,Where-A-Scan_AC,2022.2.5,None,
40,First_Order,7.0,audwhere,stimulus/audwhere_stim/dummy.wav,stimulus/audwhere_stim/dummy.wav,stimulus/audwhere_stim/left_away_280h.wav,stimulus/audwhere_stim/left_toward_300h.wav,stimulus/audwhere_stim/blank_white.png,stimulus/audwhere_stim/side_box.png,stimulus/audwhere_stim/side_yes.png,stimulus/audwhere_stim/side_no.png,None,Side,None,Side,1,0.0,0,5.125,0,5.125,0,5.125,0,0.0,0.625,0,0.0,0,0.0,0,0.0,0,0.0,0,0.0,0,0.0,1,0.5,1,2.125,0,,,,,0,52,52,52,,,,,,,,,466.0753808749723,466.0753808749723,466.0753808749723,466.0753808749723,466.0753808749723,466.0753808749723,466.0753808749723,466.0753808749723,465.99438074932743,466.0753808749723,466.0753808749723,466.0753808749723,465.99438074932743,466.0753808749723,466.0753808749723,466.0753808749723,468.1621154999593,,466.0753808749723,466.0753808749723,471.2236415829975,466.0753808749723,466.0753808749723,466.0753808749723,466.0753808749723,466.54016470798524,467.60377183300443,466.5103205416274,,468.1621154999593,469.23025995801436,468.13208991667875,,466.0753808749723,471.2236415829975,466.0753808749723,471.2236415829975,471.26487999997335,471.91792441596044,466.0753808749723,1,1,1.455207374994643,reldom2_s028,001,2025-03-04_12h12.25.599,Where-A-Scan_AC,2022.2.5,None,
0,0.0,None,fixation,stimulus/viswhere_stim/blank_white.png,stimulus/viswhere_stim/blank_white.png,stimulus/audwhere_stim/blank_white.png,stimulus/audwhere_stim/blank_white.png,stimulus/viswhere_stim/blank_white.png,stimulus/viswhere_stim/blank_white.png,stimulus/viswhere_stim/blank_white.png,stimulus/viswhere_stim/blank_white.png,0.0,0.0,0.0,0.0,0,0.0,0,0.0,0,0.0,0,0.0,0,0.0,0.0,0,0.0,0,0.0,0,0.0,0,0.0,0,0.0,0,0.0,0,0.0,0,0.0,8,,,,,0,53,53,53,,,,,,,,,472.19150941597763,472.19150941597763,472.19150941597763,472.19150941597763,472.19150941597763,472.19150941597763,472.19150941597763,472.19150941597763,472.0914299162997,472.19150941597763,472.19150941597763,472.19150941597763,472.0914299162997,472.19150941597763,472.19150941597763,472.19150941597763,472.19150941597763,472.19150941597763,472.19150941597763,472.19150941597763,472.19150941597763,472.19150941597763,472.19150941597763,472.19150941597763,472.19150941597763,472.19150941597763,472.19150941597763,472.1414299162997,472.19150941597763,472.19150941597763,472.19150941597763,472.1414299162997,472.19150941597763,472.19150941597763,472.19150941597763,472.19150941597763,472.19150941597763,477.40787070797523,477.40787070797523,480.3307410000125,None,0,,reldom2_s028,001,2025-03-04_12h12.25.599,Where-A-Scan_AC,2022.2.5,None,
41,Second_Order,7.0,audwhere,stimulus/audwhere_stim/left_away_300h.wav,stimulus/audwhere_stim/left_toward_300h.wav,stimulus/audwhere_stim/right_away_290h.wav,stimulus/audwhere_stim/right_toward_290h.wav,stimulus/viswhere_stim/match_blank.png,stimulus/audwhere_stim/match_box.png,stimulus/viswhere_stim/match_yes.png,stimulus/viswhere_stim/match_no.png,1.0,Match,Side,Side,1,5.125,0,5.125,0,5.125,0,5.125,0,0.75,0.75,0,0.0,0,0.0,0,0.0,0,0.0,1,0.5,1,2.125,1,0.5,1,2.125,0,,,,,0,54,54,54,,,,,,,,,480.3307410000125,485.45304970798315,480.3307410000125,480.3307410000125,480.3307410000125,480.3307410000125,480.7883268750156,481.77735012496123,480.79220866662604,,482.4137026249664,483.410953374987,482.42574579164307,,485.45304970798315,486.30304729100317,488.3762111659744,,486.30304729100317,486.30304729100317,491.474678041006,486.30304729100317,486.30304729100317,486.30304729100317,486.30304729100317,486.7614292500075,487.8212506250129,486.7321804576825,,488.3762111659744,489.4401797080063,488.3463962496646,,486.30304729100317,491.474678041006,486.30304729100317,491.474678041006,491.474678041006,,486.30304729100317,1,1,1.4876198330312036,reldom2_s028,001,2025-03-04_12h12.25.599,Where-A-Scan_AC,2022.2.5,None,
42,Second_Order,7.0,audwhere,stimulus/audwhere_stim/left_away_280h.wav,stimulus/audwhere_stim/right_away_270h.wav,stimulus/audwhere_stim/right_toward_270h.wav,stimulus/audwhere_stim/left_toward_280h.wav,stimulus/viswhere_stim/match_blank.png,stimulus/audwhere_stim/match_box.png,stimulus/viswhere_stim/match_yes.png,stimulus/viswhere_stim/match_no.png,1.0,Match,Direction,Direction,1,5.125,0,5.125,0,5.125,0,5.125,0,0.625,0.625,0,0.0,0,0.0,0,0.0,0,0.0,1,0.5,1,2.125,1,0.5,1,2.125,0,,,,,0,55,55,55,,,,,,,,,492.2828070829855,497.39861512498464,492.2828070829855,492.2828070829855,492.2828070829855,492.2828070829855,492.7346400829847,493.72162204096094,492.74884720764044,,494.3574358749902,495.35532741597854,494.3695596666696,,497.39861512498464,498.13012479100144,500.18366687500384,,498.13012479100144,498.13012479100144,503.30427366599906,498.13012479100144,498.13012479100144,498.13012479100144,498.13012479100144,498.58349966601236,499.634932832967,498.55437774968254,,500.18366687500384,501.2391026659752,500.1540147916569,,498.13012479100144,503.30427366599906,498.13012479100144,503.30427366599906,503.30427366599906,503.99228366598254,498.13012479100144,1,1,1.0861672500032,reldom2_s028,001,2025-03-04_12h12.25.599,Where-A-Scan_AC,2022.2.5,None,
0,0.0,None,fixation,stimulus/viswhere_stim/blank_white.png,stimulus/viswhere_stim/blank_white.png,stimulus/audwhere_stim/blank_white.png,stimulus/audwhere_stim/blank_white.png,stimulus/viswhere_stim/blank_white.png,stimulus/viswhere_stim/blank_white.png,stimulus/viswhere_stim/blank_white.png,stimulus/viswhere_stim/blank_white.png,0.0,0.0,0.0,0.0,0,0.0,0,0.0,0,0.0,0,0.0,0,0.0,0.0,0,0.0,0,0.0,0,0.0,0,0.0,0,0.0,0,0.0,0,0.0,0,0.0,10,,,,,0,56,56,56,,,,,,,,,504.2243080000044,504.2243080000044,504.2243080000044,504.2243080000044,504.2243080000044,504.2243080000044,504.2243080000044,504.2243080000044,504.12561699931587,504.2243080000044,504.2243080000044,504.2243080000044,504.12561699931587,504.2243080000044,504.2243080000044,504.2243080000044,504.2243080000044,504.2243080000044,504.2243080000044,504.2243080000044,504.2243080000044,504.2243080000044,504.2243080000044,504.2243080000044,504.2243080000044,504.2243080000044,504.2243080000044,504.1756169993159,504.2243080000044,504.2243080000044,504.2243080000044,504.1756169993159,504.2243080000044,504.2243080000044,504.2243080000044,504.2243080000044,504.2243080000044,509.4138056659722,509.4138056659722,514.4876729159732,None,0,,reldom2_s028,001,2025-03-04_12h12.25.599,Where-A-Scan_AC,2022.2.5,None,
43,First_Order,8.0,audwhere,stimulus/audwhere_stim/dummy.wav,stimulus/audwhere_stim/dummy.wav,stimulus/audwhere_stim/left_away_270h.wav,stimulus/audwhere_stim/right_away_300h.wav,stimulus/audwhere_stim/blank_white.png,stimulus/audwhere_stim/direction_box.png,stimulus/audwhere_stim/direction_yes.png,stimulus/audwhere_stim/direction_no.png,None,Direction,None,Direction,1,0.0,0,5.125,0,5.125,0,5.125,0,0.0,0.625,0,0.0,0,0.0,0,0.0,0,0.0,0,0.0,0,0.0,1,0.5,1,2.125,0,,,,,0,57,57,57,,,,,,,,,514.4876729159732,514.4876729159732,514.4876729159732,514.4876729159732,514.4876729159732,514.4876729159732,514.4876729159732,514.4876729159732,514.4160772076381,514.4876729159732,514.4876729159732,514.4876729159732,514.4160772076381,514.4876729159732,514.4876729159732,514.4876729159732,516.5814385410049,,514.4876729159732,514.4876729159732,519.6461497079581,514.4876729159732,514.4876729159732,514.4876729159732,514.4876729159732,514.9536739999894,516.0219391660066,514.9237807496722,,516.5814385410049,517.650303500006,516.5513915416707,,514.4876729159732,519.6461497079581,514.4876729159732,519.6461497079581,519.6874600829906,520.3424985829624,514.4876729159732,1,1,1.7247795419534668,reldom2_s028,001,2025-03-04_12h12.25.599,Where-A-Scan_AC,2022.2.5,None,
44,First_Order,8.0,audwhere,stimulus/audwhere_stim/dummy.wav,stimulus/audwhere_stim/dummy.wav,stimulus/audwhere_stim/left_toward_300h.wav,stimulus/audwhere_stim/left_away_280h.wav,stimulus/audwhere_stim/blank_white.png,stimulus/audwhere_stim/direction_box.png,stimulus/audwhere_stim/direction_yes.png,stimulus/audwhere_stim/direction_no.png,None,Direction,None,Side,2,0.0,0,5.125,0,5.125,0,5.125,0,0.0,0.625,0,0.0,0,0.0,0,0.0,0,0.0,0,0.0,0,0.0,1,0.5,1,2.125,0,,,,,0,58,58,58,,,,,,,,,520.5960410409607,520.5960410409607,520.5960410409607,520.5960410409607,520.5960410409607,520.5960410409607,520.5960410409607,520.5960410409607,520.5167852493197,520.5960410409607,520.5960410409607,520.5960410409607,520.5167852493197,520.5960410409607,520.5960410409607,520.5960410409607,522.6887655829778,526.7093725000159,520.5960410409607,520.5960410409607,525.7603512909845,520.5960410409607,520.5960410409607,520.5960410409607,520.5960410409607,521.0606988329673,522.1325119159883,521.030497874661,,522.6887655829778,523.7603010410094,522.6594218326538,,520.5960410409607,525.7603512909845,520.5960410409607,525.7603512909845,525.8007205000031,526.4567692499841,520.5960410409607,2,1,1.6406109579838812,reldom2_s028,001,2025-03-04_12h12.25.599,Where-A-Scan_AC,2022.2.5,None,
45,First_Order,8.0,audwhere,stimulus/audwhere_stim/dummy.wav,stimulus/audwhere_stim/dummy.wav,stimulus/audwhere_stim/right_away_290h.wav,stimulus/audwhere_stim/left_away_280h.wav,stimulus/audwhere_stim/blank_white.png,stimulus/audwhere_stim/side_box.png,stimulus/audwhere_stim/side_yes.png,stimulus/audwhere_stim/side_no.png,None,Side,None,Direction,2,0.0,0,5.125,0,5.125,0,5.125,0,0.0,0.625,0,0.0,0,0.0,0,0.0,0,0.0,0,0.0,0,0.0,1,0.5,1,2.125,0,,,,,0,59,59,59,,,,,,,,,526.7093725000159,526.7093725000159,526.7093725000159,526.7093725000159,526.7093725000159,526.7093725000159,526.7093725000159,526.7093725000159,526.6307839583334,526.7093725000159,526.7093725000159,526.7093725000159,526.6307839583334,526.7093725000159,526.7093725000159,526.7093725000159,528.7943450830062,,526.7093725000159,526.7093725000159,531.898772665998,526.7093725000159,526.7093725000159,526.7093725000159,526.7093725000159,527.172779540997,528.2397321659955,527.1428749576482,,528.7943450830062,529.8614972910145,528.7644667496827,,526.7093725000159,531.898772665998,526.7093725000159,531.898772665998,531.9402021659771,532.5952002499835,526.7093725000159,2,1,2.1736144160386175,reldom2_s028,001,2025-03-04_12h12.25.599,Where-A-Scan_AC,2022.2.5,None,
46,First_Order,8.0,audwhere,stimulus/audwhere_stim/dummy.wav,stimulus/audwhere_stim/dummy.wav,stimulus/audwhere_stim/left_away_270h.wav,stimulus/audwhere_stim/right_away_290h.wav,stimulus/audwhere_stim/blank_white.png,stimulus/audwhere_stim/direction_box.png,stimulus/audwhere_stim/direction_yes.png,stimulus/audwhere_stim/direction_no.png,None,Direction,None,Direction,1,0.0,0,5.125,0,5.125,0,5.125,0,0.0,0.625,0,0.0,0,0.0,0,0.0,0,0.0,0,0.0,0,0.0,1,0.5,1,2.125,0,,,,,0,60,60,60,,,,,,,,,532.8076613749727,532.8076613749727,532.8076613749727,532.8076613749727,532.8076613749727,532.8076613749727,532.8076613749727,532.8076613749727,532.7285335833168,532.8076613749727,532.8076613749727,532.8076613749727,532.7285335833168,532.8076613749727,532.8076613749727,532.8076613749727,534.9076975409989,538.9519547499949,532.8076613749727,532.8076613749727,537.9811161250109,532.8076613749727,532.8076613749727,532.8076613749727,532.8076613749727,533.2741369999712,534.3477259579813,533.244340166628,,534.9076975409989,535.9804036659771,534.8779061666612,,532.8076613749727,537.9811161250109,532.8076613749727,537.9811161250109,538.0224832079839,538.6778560410021,532.8076613749727,1,1,2.764403957989998,reldom2_s028,001,2025-03-04_12h12.25.599,Where-A-Scan_AC,2022.2.5,None,
0,0.0,None,fixation,stimulus/viswhere_stim/blank_white.png,stimulus/viswhere_stim/blank_white.png,stimulus/audwhere_stim/blank_white.png,stimulus/audwhere_stim/blank_white.png,stimulus/viswhere_stim/blank_white.png,stimulus/viswhere_stim/blank_white.png,stimulus/viswhere_stim/blank_white.png,stimulus/viswhere_stim/blank_white.png,0.0,0.0,0.0,0.0,0,0.0,0,0.0,0,0.0,0,0.0,0,0.0,0.0,0,0.0,0,0.0,0,0.0,0,0.0,0,0.0,0,0.0,0,0.0,0,0.0,9,,,,,0,61,61,61,,,,,,,,,538.9519547499949,538.9519547499949,538.9519547499949,538.9519547499949,538.9519547499949,538.9519547499949,538.9519547499949,538.9519547499949,538.852403708299,538.9519547499949,538.9519547499949,538.9519547499949,538.852403708299,538.9519547499949,538.9519547499949,538.9519547499949,538.9519547499949,538.9519547499949,538.9519547499949,538.9519547499949,538.9519547499949,538.9519547499949,538.9519547499949,538.9519547499949,538.9519547499949,538.9519547499949,538.9519547499949,538.902403708299,538.9519547499949,538.9519547499949,538.9519547499949,538.902403708299,538.9519547499949,538.9519547499949,538.9519547499949,538.9519547499949,538.9519547499949,544.1431788330083,544.1431788330083,548.0896504999837,None,0,,reldom2_s028,001,2025-03-04_12h12.25.599,Where-A-Scan_AC,2022.2.5,None,
47,Second_Order,8.0,audwhere,stimulus/audwhere_stim/right_away_280h.wav,stimulus/audwhere_stim/left_away_290h.wav,stimulus/audwhere_stim/right_toward_300h.wav,stimulus/audwhere_stim/right_away_300h.wav,stimulus/viswhere_stim/match_blank.png,stimulus/audwhere_stim/match_box.png,stimulus/viswhere_stim/match_yes.png,stimulus/viswhere_stim/match_no.png,2.0,Match,Direction,Side,2,5.125,0,5.125,0,5.125,0,5.125,0,0.75,0.75,0,0.0,0,0.0,0,0.0,0,0.0,1,0.5,1,2.125,1,0.5,1,2.125,0,,,,,0,62,62,62,,,,,,,,,548.0896504999837,553.2104753329768,548.0896504999837,548.0896504999837,548.0896504999837,548.0896504999837,548.5468048749608,549.5339969999623,548.5612303326527,,550.1699509999598,551.167562040966,550.1820619996327,,553.2104753329768,554.0623081660015,556.1349323329632,,554.0623081660015,554.0623081660015,559.2310615410097,554.0623081660015,554.0623081660015,554.0623081660015,554.0623081660015,554.4749924159842,555.5333084579906,554.4458088746799,,556.1349323329632,557.1986007079831,556.1052117916445,,554.0623081660015,559.2310615410097,554.0623081660015,559.2310615410097,559.2310615410097,,554.0623081660015,2,1,1.3496315410011448,reldom2_s028,001,2025-03-04_12h12.25.599,Where-A-Scan_AC,2022.2.5,None,
48,Second_Order,8.0,audwhere,stimulus/audwhere_stim/left_away_280h.wav,stimulus/audwhere_stim/right_away_290h.wav,stimulus/audwhere_stim/left_toward_280h.wav,stimulus/audwhere_stim/right_toward_300h.wav,stimulus/viswhere_stim/match_blank.png,stimulus/audwhere_stim/match_box.png,stimulus/viswhere_stim/match_yes.png,stimulus/viswhere_stim/match_no.png,1.0,Match,Direction,Direction,1,5.125,0,5.125,0,5.125,0,5.125,0,0.625,0.625,0,0.0,0,0.0,0,0.0,0,0.0,1,0.5,1,2.125,1,0.5,1,2.125,0,,,,,0,63,63,63,,,,,,,,,560.0376549159992,565.1545278750127,560.0376549159992,560.0376549159992,560.0376549159992,560.0376549159992,560.4910483330023,561.4788190000108,560.5052010826805,,562.1138054580078,563.1121906659682,562.1262538326594,,565.1545278750127,565.8842117909808,567.9396856249659,,565.8842117909808,565.8842117909808,571.0621162909665,565.8842117909808,565.8842117909808,565.8842117909808,565.8842117909808,566.3390887079877,567.391394041013,566.3105664166544,,567.9396856249659,568.9956127500045,567.9109232496742,,565.8842117909808,571.0621162909665,565.8842117909808,571.0621162909665,571.0621162909665,571.7499534579692,565.8842117909808,1,1,1.0533511660178192,reldom2_s028,001,2025-03-04_12h12.25.599,Where-A-Scan_AC,2022.2.5,None,
0,0.0,None,fixation,stimulus/viswhere_stim/blank_white.png,stimulus/viswhere_stim/blank_white.png,stimulus/audwhere_stim/blank_white.png,stimulus/audwhere_stim/blank_white.png,stimulus/viswhere_stim/blank_white.png,stimulus/viswhere_stim/blank_white.png,stimulus/viswhere_stim/blank_white.png,stimulus/viswhere_stim/blank_white.png,0.0,0.0,0.0,0.0,0,0.0,0,0.0,0,0.0,0,0.0,0,0.0,0.0,0,0.0,0,0.0,0,0.0,0,0.0,0,0.0,0,0.0,0,0.0,0,0.0,16,,,,,0,64,64,64,,,,,,,,,571.9819344999851,571.9819344999851,571.9819344999851,571.9819344999851,571.9819344999851,571.9819344999851,571.9819344999851,571.9819344999851,571.8832867913026,571.9819344999851,571.9819344999851,571.9819344999851,571.8832867913026,571.9819344999851,571.9819344999851,571.9819344999851,571.9819344999851,571.9819344999851,571.9819344999851,571.9819344999851,571.9819344999851,571.9819344999851,571.9819344999851,571.9819344999851,571.9819344999851,571.9819344999851,571.9819344999851,571.9332867913025,571.9819344999851,571.9819344999851,571.9819344999851,571.9332867913025,571.9819344999851,571.9819344999851,571.9819344999851,571.9819344999851,571.9819344999851,577.1767125409679,577.1767125409679,588.1111307080137,None,0,,reldom2_s028,001,2025-03-04_12h12.25.599,Where-A-Scan_AC,2022.2.5,None,
