Trial,Order,Block,Type,Stimuli_File1,Stimuli_File2,Stimuli_File3,Stimuli_File4,Cue_File1,Cue_File2,Response_File_Yes,Response_File_No,Match,Cue_Dimension,Pair1_Dimension,Pair2_Dimension,Key,Cue1_Duration,Cue1_Onset,Cue2_Duration,Cue2_Onset,ResponseYes_Duration,ResponseYes_Onset,ResponseNo_Duration,ResponseNo_Onset,ITI_Within,ITI_Between,Image1_Duration,Image1_Onset,Image2_Duration,Image2_Onset,Image3_Duration,Image3_Onset,Image4_Duration,Image4_Onset,Sound1_Duration,Sound1_Onset,Sound2_Duration,Sound2_Onset,Sound3_Duration,Sound3_Onset,Sound4_Duration,Sound4_Onset,Fixation_Duration,trials_2.thisRepN,trials_2.thisTrialN,trials_2.thisN,trials_2.thisIndex,trials.thisRepN,trials.thisTrialN,trials.thisN,trials.thisIndex,text_start.started,key_resp_start.started,key_resp_start.keys,key_resp_start.rt,text2.started,key_resp_2.started,key_resp_2.keys,key_resp_2.rt,cue_file1.started,cue_file1.stopped,image_1.started,image_1.stopped,image_2.started,image_2.stopped,sound_icon1.started,sound_icon1.stopped,sound_1.started,sound_1.stopped,sound_icon2.started,sound_icon2.stopped,sound_2.started,sound_2.stopped,image_blank_1.started,image_blank_1.stopped,key_press.started,key_press.stopped,fixation_text.started,cue_file2.started,cue_file2.stopped,image_3.started,image_3.stopped,image_4.started,image_4.stopped,sound_icon3.started,sound_icon3.stopped,sound_3.started,sound_3.stopped,sound_icon4.started,sound_icon4.stopped,sound_4.started,sound_4.stopped,response_yes.started,response_yes.stopped,response_no.started,response_no.stopped,iti_blank.started,iti_blank.stopped,fixation_text.stopped,key_press.keys,key_press.corr,key_press.rt,participant,session,date,expName,psychopyVersion,frameRate,
,,,,,,,,,,,,,,,,,,,,,,,,,,,,,,,,,,,,,,,,,,,,,,,,,,,,9.10578250000026,9.10578250000026,2,1.3818560830000024,,,,,,,,,,,,,,,,,,,,,,,,,,,,,,,,,,,,,,,,,,,,,,,,reldom2_fmri_s004p,001,2024-12-11_16h07.43.687,Where-B-Scan_AC,2022.2.5,None,
,,,,,,,,,,,,,,,,,,,,,,,,,,,,,,,,,,,,,,,,,,,,0,0,0,0,,,,,,,,,10.509836416000326,10.509836416000326,5,13.434052958000393,,,,,,,,,,,,,,,,,,,,,,,,,,,,,,,,,,,,,,,,,,,,reldom2_fmri_s004p,001,2024-12-11_16h07.43.687,Where-B-Scan_AC,2022.2.5,None,
,,,,,,,,,,,,,,,,,,,,,,,,,,,,,,,,,,,,,,,,,,,,1,0,1,0,,,,,,,,,23.96129712500033,23.96129712500033,5,1.9848728330002814,,,,,,,,,,,,,,,,,,,,,,,,,,,,,,,,,,,,,,,,,,,,reldom2_fmri_s004p,001,2024-12-11_16h07.43.687,Where-B-Scan_AC,2022.2.5,None,
,,,,,,,,,,,,,,,,,,,,,,,,,,,,,,,,,,,,,,,,,,,,2,0,2,0,,,,,,,,,25.963427416000286,25.963427416000286,5,1.9809009999999034,,,,,,,,,,,,,,,,,,,,,,,,,,,,,,,,,,,,,,,,,,,,reldom2_fmri_s004p,001,2024-12-11_16h07.43.687,Where-B-Scan_AC,2022.2.5,None,
,,,,,,,,,,,,,,,,,,,,,,,,,,,,,,,,,,,,,,,,,,,,3,0,3,0,,,,,,,,,27.953468583000358,27.953468583000358,5,1.9899619160000839,,,,,,,,,,,,,,,,,,,,,,,,,,,,,,,,,,,,,,,,,,,,reldom2_fmri_s004p,001,2024-12-11_16h07.43.687,Where-B-Scan_AC,2022.2.5,None,
0,0.0,None,fixation,stimulus/audwhere_stim/blank_white.png,stimulus/audwhere_stim/blank_white.png,stimulus/viswhere_stim/blank_white.png,stimulus/viswhere_stim/blank_white.png,stimulus/audwhere_stim/blank_white.png,stimulus/audwhere_stim/blank_white.png,stimulus/audwhere_stim/blank_white.png,stimulus/audwhere_stim/blank_white.png,0.0,0.0,0.0,0.0,0,0.0,0,0.0,0,0.0,0,0.0,0,0.0,0.0,0,0.0,0,0.0,0,0.0,0,0.0,0,0.0,0,0.0,0,0.0,0,0.0,16,,,,,0,0,0,0,,,,,,,,,30.14878870800021,30.14878870800021,30.14878870800021,30.14878870800021,30.14878870800021,30.14878870800021,30.14878870800021,30.14878870800021,30.05300700000007,30.14878870800021,30.14878870800021,30.14878870800021,30.05300700000007,30.14878870800021,30.14878870800021,30.14878870800021,30.14878870800021,30.14878870800021,30.14878870800021,30.14878870800021,30.14878870800021,30.14878870800021,30.14878870800021,30.14878870800021,30.14878870800021,30.14878870800021,30.14878870800021,30.10300700000007,30.14878870800021,30.14878870800021,30.14878870800021,30.10300700000007,30.14878870800021,30.14878870800021,30.14878870800021,30.14878870800021,30.14878870800021,35.363975540999945,35.363975540999945,46.39081850000002,None,0,,reldom2_fmri_s004p,001,2024-12-11_16h07.43.687,Where-B-Scan_AC,2022.2.5,None,
1,First_Order,1.0,audwhere,stimulus/audwhere_stim/dummy.wav,stimulus/audwhere_stim/dummy.wav,stimulus/audwhere_stim/right_away_290h.wav,stimulus/audwhere_stim/right_toward_300h.wav,stimulus/audwhere_stim/blank_white.png,stimulus/audwhere_stim/direction_box.png,stimulus/audwhere_stim/direction_yes.png,stimulus/audwhere_stim/direction_no.png,None,Direction,None,Side,2,0.0,0,5.125,0,5.125,0,5.125,0,0.0,0.625,0,0.0,0,0.0,0,0.0,0,0.0,0,0.0,0,0.0,1,0.5,1,2.125,0,,,,,0,1,1,1,,,,,,,,,46.39081850000002,46.39081850000002,46.39081850000002,46.39081850000002,46.39081850000002,46.39081850000002,46.39081850000002,46.39081850000002,46.31543108299993,46.39081850000002,46.39081850000002,46.39081850000002,46.31543108299993,46.39081850000002,46.39081850000002,46.39081850000002,48.5022596660001,52.50579941600017,46.39081850000002,46.39081850000002,51.54523283300023,46.39081850000002,46.39081850000002,46.39081850000002,46.39081850000002,46.84107733300016,47.87579583300021,46.81287674966667,,48.5022596660001,49.534023250000246,48.47408799966685,,46.39081850000002,51.54523283300023,46.39081850000002,51.54523283300023,51.584600500000306,52.25863025000035,46.39081850000002,2,1,1.4920327499999075,reldom2_fmri_s004p,001,2024-12-11_16h07.43.687,Where-B-Scan_AC,2022.2.5,None,
2,First_Order,1.0,audwhere,stimulus/audwhere_stim/dummy.wav,stimulus/audwhere_stim/dummy.wav,stimulus/audwhere_stim/left_toward_290h.wav,stimulus/audwhere_stim/right_toward_280h.wav,stimulus/audwhere_stim/blank_white.png,stimulus/audwhere_stim/side_box.png,stimulus/audwhere_stim/side_yes.png,stimulus/audwhere_stim/side_no.png,None,Side,None,Direction,2,0.0,0,5.125,0,5.125,0,5.125,0,0.0,0.625,0,0.0,0,0.0,0,0.0,0,0.0,0,0.0,0,0.0,1,0.5,1,2.125,0,,,,,0,2,2,2,,,,,,,,,52.50579941600017,52.50579941600017,52.50579941600017,52.50579941600017,52.50579941600017,52.50579941600017,52.50579941600017,52.50579941600017,52.431538749333534,52.50579941600017,52.50579941600017,52.50579941600017,52.431538749333534,52.50579941600017,52.50579941600017,52.50579941600017,54.60488358300017,,52.50579941600017,52.50579941600017,57.68588866600021,52.50579941600017,52.50579941600017,52.50579941600017,52.50579941600017,52.953315166000266,54.02462029100025,52.925439082666585,,54.60488358300017,55.632771333000164,54.577038874666655,,52.50579941600017,57.68588866600021,52.50579941600017,57.68588866600021,57.725259583000025,58.39350575000026,52.50579941600017,1,0,1.1514306250001027,reldom2_fmri_s004p,001,2024-12-11_16h07.43.687,Where-B-Scan_AC,2022.2.5,None,
3,First_Order,1.0,audwhere,stimulus/audwhere_stim/dummy.wav,stimulus/audwhere_stim/dummy.wav,stimulus/audwhere_stim/right_toward_280h.wav,stimulus/audwhere_stim/right_away_300h.wav,stimulus/audwhere_stim/blank_white.png,stimulus/audwhere_stim/direction_box.png,stimulus/audwhere_stim/direction_yes.png,stimulus/audwhere_stim/direction_no.png,None,Direction,None,Side,2,0.0,0,5.125,0,5.125,0,5.125,0,0.0,0.625,0,0.0,0,0.0,0,0.0,0,0.0,0,0.0,0,0.0,1,0.5,1,2.125,0,,,,,0,3,3,3,,,,,,,,,58.60120037500019,58.60120037500019,58.60120037500019,58.60120037500019,58.60120037500019,58.60120037500019,58.60120037500019,58.60120037500019,58.52683908333359,58.60120037500019,58.60120037500019,58.60120037500019,58.52683908333359,58.60120037500019,58.60120037500019,58.60120037500019,60.70936283300034,64.72190454100019,58.60120037500019,58.60120037500019,63.76268562500036,58.60120037500019,58.60120037500019,58.60120037500019,58.60120037500019,59.05356625000013,60.08472558299991,59.02390008266663,,60.70936283300034,61.74348362499995,60.68125645766692,,58.60120037500019,63.76268562500036,58.60120037500019,63.76268562500036,63.80312645799995,64.47924916600005,58.60120037500019,2,1,0.9720400000001064,reldom2_fmri_s004p,001,2024-12-11_16h07.43.687,Where-B-Scan_AC,2022.2.5,None,
4,First_Order,1.0,audwhere,stimulus/audwhere_stim/dummy.wav,stimulus/audwhere_stim/dummy.wav,stimulus/audwhere_stim/left_toward_270h.wav,stimulus/audwhere_stim/right_toward_300h.wav,stimulus/audwhere_stim/blank_white.png,stimulus/audwhere_stim/direction_box.png,stimulus/audwhere_stim/direction_yes.png,stimulus/audwhere_stim/direction_no.png,None,Direction,None,Direction,1,0.0,0,5.125,0,5.125,0,5.125,0,0.0,0.625,0,0.0,0,0.0,0,0.0,0,0.0,0,0.0,0,0.0,1,0.5,1,2.125,0,,,,,0,4,4,4,,,,,,,,,64.72190454100019,64.72190454100019,64.72190454100019,64.72190454100019,64.72190454100019,64.72190454100019,64.72190454100019,64.72190454100019,64.65168212433366,64.72190454100019,64.72190454100019,64.72190454100019,64.65168212433366,64.72190454100019,64.72190454100019,64.72190454100019,66.83314220800003,70.86098162500002,64.72190454100019,64.72190454100019,69.88336541600029,64.72190454100019,64.72190454100019,64.72190454100019,64.72190454100019,65.21402366600023,66.2514220410003,65.18582891666689,,66.83314220800003,67.86351191600033,66.80512220766674,,64.72190454100019,69.88336541600029,64.72190454100019,69.88336541600029,69.92301791599994,70.59556975000032,64.72190454100019,1,1,1.2812119580003127,reldom2_fmri_s004p,001,2024-12-11_16h07.43.687,Where-B-Scan_AC,2022.2.5,None,
0,0.0,None,fixation,stimulus/audwhere_stim/blank_white.png,stimulus/audwhere_stim/blank_white.png,stimulus/viswhere_stim/blank_white.png,stimulus/viswhere_stim/blank_white.png,stimulus/audwhere_stim/blank_white.png,stimulus/audwhere_stim/blank_white.png,stimulus/audwhere_stim/blank_white.png,stimulus/audwhere_stim/blank_white.png,0.0,0.0,0.0,0.0,0,0.0,0,0.0,0,0.0,0,0.0,0,0.0,0.0,0,0.0,0,0.0,0,0.0,0,0.0,0,0.0,0,0.0,0,0.0,0,0.0,10,,,,,0,5,5,5,,,,,,,,,70.86098162500002,70.86098162500002,70.86098162500002,70.86098162500002,70.86098162500002,70.86098162500002,70.86098162500002,70.86098162500002,70.76797554133339,70.86098162500002,70.86098162500002,70.86098162500002,70.76797554133339,70.86098162500002,70.86098162500002,70.86098162500002,70.86098162500002,70.86098162500002,70.86098162500002,70.86098162500002,70.86098162500002,70.86098162500002,70.86098162500002,70.86098162500002,70.86098162500002,70.86098162500002,70.86098162500002,70.8179755413334,70.86098162500002,70.86098162500002,70.86098162500002,70.8179755413334,70.86098162500002,70.86098162500002,70.86098162500002,70.86098162500002,70.86098162500002,76.06759083299994,76.06759083299994,80.98798916600026,None,0,,reldom2_fmri_s004p,001,2024-12-11_16h07.43.687,Where-B-Scan_AC,2022.2.5,None,
5,Second_Order,1.0,audwhere,stimulus/audwhere_stim/right_toward_300h.wav,stimulus/audwhere_stim/left_toward_280h.wav,stimulus/audwhere_stim/right_toward_280h.wav,stimulus/audwhere_stim/right_away_280h.wav,stimulus/audwhere_stim/match_blank.png,stimulus/audwhere_stim/match_box.png,stimulus/audwhere_stim/match_yes.png,stimulus/audwhere_stim/match_no.png,2.0,Match,Direction,Side,2,5.125,0,5.125,0,5.125,0,5.125,0,0.75,0.75,0,0.0,0,0.0,0,0.0,0,0.0,1,0.5,1,2.125,1,0.5,1,2.125,0,,,,,0,6,6,6,,,,,,,,,80.98798916600026,86.10419108299993,80.98798916600026,80.98798916600026,80.98798916600026,80.98798916600026,81.44008133300031,82.42738958300015,81.45446408266686,82.44816058300012,83.06337625000015,84.06080129100019,83.07502129166666,84.06886900000018,86.10419108299993,86.93458041600024,89.03411820800011,92.95500237500028,86.93458041600024,86.93458041600024,92.08996383300018,86.93458041600024,86.93458041600024,86.93458041600024,86.93458041600024,87.38281179100022,88.41011941600027,87.35423508266673,,89.03411820800011,90.07009275000019,89.00601849966667,,86.93458041600024,92.08996383300018,86.93458041600024,92.08996383300018,92.12934462500016,,86.93458041600024,2,1,1.042495707999933,reldom2_fmri_s004p,001,2024-12-11_16h07.43.687,Where-B-Scan_AC,2022.2.5,None,
6,Second_Order,1.0,audwhere,stimulus/audwhere_stim/right_toward_270h.wav,stimulus/audwhere_stim/right_away_290h.wav,stimulus/audwhere_stim/left_toward_300h.wav,stimulus/audwhere_stim/left_away_290h.wav,stimulus/audwhere_stim/match_blank.png,stimulus/audwhere_stim/match_box.png,stimulus/audwhere_stim/match_yes.png,stimulus/audwhere_stim/match_no.png,1.0,Match,Side,Side,1,5.125,0,5.125,0,5.125,0,5.125,0,0.625,0.625,0,0.0,0,0.0,0,0.0,0,0.0,1,0.5,1,2.125,1,0.5,1,2.125,0,,,,,0,7,7,7,,,,,,,,,92.95500237500028,98.07669487500016,92.95500237500028,92.95500237500028,92.95500237500028,92.95500237500028,93.41555937500016,94.40517362500032,93.41923241666679,94.4181294580003,95.04077450000023,96.03854866600022,95.05295445766684,96.04657750000024,98.07669487500016,98.78552641600027,100.88610687500022,104.90853170800028,98.78552641600027,98.78552641600027,103.97310874999994,98.78552641600027,98.78552641600027,98.78552641600027,98.78552641600027,99.23168387500027,100.26016574999994,99.20284166666694,,100.88610687500022,101.91744191599992,100.85770004166694,,98.78552641600027,103.97310874999994,98.78552641600027,103.97310874999994,103.97310874999994,104.64345004100005,98.78552641600027,1,1,2.589926041000126,reldom2_fmri_s004p,001,2024-12-11_16h07.43.687,Where-B-Scan_AC,2022.2.5,None,
0,0.0,None,fixation,stimulus/audwhere_stim/blank_white.png,stimulus/audwhere_stim/blank_white.png,stimulus/viswhere_stim/blank_white.png,stimulus/viswhere_stim/blank_white.png,stimulus/audwhere_stim/blank_white.png,stimulus/audwhere_stim/blank_white.png,stimulus/audwhere_stim/blank_white.png,stimulus/audwhere_stim/blank_white.png,0.0,0.0,0.0,0.0,0,0.0,0,0.0,0,0.0,0,0.0,0,0.0,0.0,0,0.0,0,0.0,0,0.0,0,0.0,0,0.0,0,0.0,0,0.0,0,0.0,9,,,,,0,8,8,8,,,,,,,,,104.90853170800028,104.90853170800028,104.90853170800028,104.90853170800028,104.90853170800028,104.90853170800028,104.90853170800028,104.90853170800028,104.81566887433348,104.90853170800028,104.90853170800028,104.90853170800028,104.81566887433348,104.90853170800028,104.90853170800028,104.90853170800028,104.90853170800028,104.90853170800028,104.90853170800028,104.90853170800028,104.90853170800028,104.90853170800028,104.90853170800028,104.90853170800028,104.90853170800028,104.90853170800028,104.90853170800028,104.8656688743335,104.90853170800028,104.90853170800028,104.90853170800028,104.8656688743335,104.90853170800028,104.90853170800028,104.90853170800028,104.90853170800028,104.90853170800028,110.10232062500017,110.10232062500017,114.14050033300009,None,0,,reldom2_fmri_s004p,001,2024-12-11_16h07.43.687,Where-B-Scan_AC,2022.2.5,None,
7,First_Order,2.0,audwhere,stimulus/audwhere_stim/dummy.wav,stimulus/audwhere_stim/dummy.wav,stimulus/audwhere_stim/left_toward_270h.wav,stimulus/audwhere_stim/right_toward_270h.wav,stimulus/audwhere_stim/blank_white.png,stimulus/audwhere_stim/direction_box.png,stimulus/audwhere_stim/direction_yes.png,stimulus/audwhere_stim/direction_no.png,None,Direction,None,Direction,1,0.0,0,5.125,0,5.125,0,5.125,0,0.0,0.625,0,0.0,0,0.0,0,0.0,0,0.0,0,0.0,0,0.0,1,0.5,1,2.125,0,,,,,0,9,9,9,,,,,,,,,114.14050033300009,114.14050033300009,114.14050033300009,114.14050033300009,114.14050033300009,114.14050033300009,114.14050033300009,114.14050033300009,114.05934416600022,114.14050033300009,114.14050033300009,114.14050033300009,114.05934416600022,114.14050033300009,114.14050033300009,114.14050033300009,116.22056637500009,120.26080254099998,114.14050033300009,114.14050033300009,119.29657958300004,114.14050033300009,114.14050033300009,114.14050033300009,114.14050033300009,114.59410483300007,115.63199729100006,114.5651609996669,,116.22056637500009,117.26358208300007,116.19174137466668,,114.14050033300009,119.29657958300004,114.14050033300009,119.29657958300004,119.33716425000011,120.01177712500021,114.14050033300009,1,1,1.2187938749998466,reldom2_fmri_s004p,001,2024-12-11_16h07.43.687,Where-B-Scan_AC,2022.2.5,None,
8,First_Order,2.0,audwhere,stimulus/audwhere_stim/dummy.wav,stimulus/audwhere_stim/dummy.wav,stimulus/audwhere_stim/left_toward_280h.wav,stimulus/audwhere_stim/right_toward_290h.wav,stimulus/audwhere_stim/blank_white.png,stimulus/audwhere_stim/side_box.png,stimulus/audwhere_stim/side_yes.png,stimulus/audwhere_stim/side_no.png,None,Side,None,Direction,2,0.0,0,5.125,0,5.125,0,5.125,0,0.0,0.625,0,0.0,0,0.0,0,0.0,0,0.0,0,0.0,0,0.0,1,0.5,1,2.125,0,,,,,0,10,10,10,,,,,,,,,120.26080254099998,120.26080254099998,120.26080254099998,120.26080254099998,120.26080254099998,120.26080254099998,120.26080254099998,120.26080254099998,120.1856520833336,120.26080254099998,120.26080254099998,120.26080254099998,120.1856520833336,120.26080254099998,120.26080254099998,120.26080254099998,122.37325995800029,,120.26080254099998,120.26080254099998,125.43567079100012,120.26080254099998,120.26080254099998,120.26080254099998,120.26080254099998,120.70994000000019,121.742718083,120.68149874966663,,122.37325995800029,123.41149520800036,122.34511583266682,,120.26080254099998,125.43567079100012,120.26080254099998,125.43567079100012,125.47521812500008,126.14896512500036,120.26080254099998,1,0,1.7239328749997185,reldom2_fmri_s004p,001,2024-12-11_16h07.43.687,Where-B-Scan_AC,2022.2.5,None,
9,First_Order,2.0,audwhere,stimulus/audwhere_stim/dummy.wav,stimulus/audwhere_stim/dummy.wav,stimulus/audwhere_stim/left_away_270h.wav,stimulus/audwhere_stim/left_toward_290h.wav,stimulus/audwhere_stim/blank_white.png,stimulus/audwhere_stim/side_box.png,stimulus/audwhere_stim/side_yes.png,stimulus/audwhere_stim/side_no.png,None,Side,None,Side,1,0.0,0,5.125,0,5.125,0,5.125,0,0.0,0.625,0,0.0,0,0.0,0,0.0,0,0.0,0,0.0,0,0.0,1,0.5,1,2.125,0,,,,,0,11,11,11,,,,,,,,,126.35463095800014,126.35463095800014,126.35463095800014,126.35463095800014,126.35463095800014,126.35463095800014,126.35463095800014,126.35463095800014,126.28229845833368,126.35463095800014,126.35463095800014,126.35463095800014,126.28229845833368,126.35463095800014,126.35463095800014,126.35463095800014,128.4263389580001,132.4642374580003,126.35463095800014,126.35463095800014,131.5406548750002,126.35463095800014,126.35463095800014,126.35463095800014,126.35463095800014,126.80497604099992,127.83935241600011,126.77650745766665,,128.4263389580001,129.46449900000016,128.39771662466663,,126.35463095800014,131.5406548750002,126.35463095800014,131.5406548750002,131.58278929100015,132.25949462500012,126.35463095800014,1,1,3.1302679999998873,reldom2_fmri_s004p,001,2024-12-11_16h07.43.687,Where-B-Scan_AC,2022.2.5,None,
10,First_Order,2.0,audwhere,stimulus/audwhere_stim/dummy.wav,stimulus/audwhere_stim/dummy.wav,stimulus/audwhere_stim/right_away_290h.wav,stimulus/audwhere_stim/right_toward_290h.wav,stimulus/audwhere_stim/blank_white.png,stimulus/audwhere_stim/side_box.png,stimulus/audwhere_stim/side_yes.png,stimulus/audwhere_stim/side_no.png,None,Side,None,Side,1,0.0,0,5.125,0,5.125,0,5.125,0,0.0,0.625,0,0.0,0,0.0,0,0.0,0,0.0,0,0.0,0,0.0,1,0.5,1,2.125,0,,,,,0,12,12,12,,,,,,,,,132.4642374580003,132.4642374580003,132.4642374580003,132.4642374580003,132.4642374580003,132.4642374580003,132.4642374580003,132.4642374580003,132.39282795833347,132.4642374580003,132.4642374580003,132.4642374580003,132.39282795833347,132.4642374580003,132.4642374580003,132.4642374580003,134.54109983300032,138.59763466599998,132.4642374580003,132.4642374580003,137.65671120800016,132.4642374580003,132.4642374580003,132.4642374580003,132.4642374580003,132.91477699999996,133.95204466600035,132.88618533266688,,134.54109983300032,135.5809185830003,134.5124632916666,,132.4642374580003,137.65671120800016,132.4642374580003,137.65671120800016,137.65671120800016,138.332183041,132.4642374580003,1,1,1.137319750000188,reldom2_fmri_s004p,001,2024-12-11_16h07.43.687,Where-B-Scan_AC,2022.2.5,None,
0,0.0,None,fixation,stimulus/audwhere_stim/blank_white.png,stimulus/audwhere_stim/blank_white.png,stimulus/viswhere_stim/blank_white.png,stimulus/viswhere_stim/blank_white.png,stimulus/audwhere_stim/blank_white.png,stimulus/audwhere_stim/blank_white.png,stimulus/audwhere_stim/blank_white.png,stimulus/audwhere_stim/blank_white.png,0.0,0.0,0.0,0.0,0,0.0,0,0.0,0,0.0,0,0.0,0,0.0,0.0,0,0.0,0,0.0,0,0.0,0,0.0,0,0.0,0,0.0,0,0.0,0,0.0,9,,,,,0,13,13,13,,,,,,,,,138.59763466599998,138.59763466599998,138.59763466599998,138.59763466599998,138.59763466599998,138.59763466599998,138.59763466599998,138.59763466599998,138.50506337433367,138.59763466599998,138.59763466599998,138.59763466599998,138.50506337433367,138.59763466599998,138.59763466599998,138.59763466599998,138.59763466599998,138.59763466599998,138.59763466599998,138.59763466599998,138.59763466599998,138.59763466599998,138.59763466599998,138.59763466599998,138.59763466599998,138.59763466599998,138.59763466599998,138.55506337433366,138.59763466599998,138.59763466599998,138.59763466599998,138.55506337433366,138.59763466599998,138.59763466599998,138.59763466599998,138.59763466599998,138.59763466599998,143.82681095800035,143.82681095800035,147.757268416,None,0,,reldom2_fmri_s004p,001,2024-12-11_16h07.43.687,Where-B-Scan_AC,2022.2.5,None,
11,Second_Order,2.0,audwhere,stimulus/audwhere_stim/left_toward_280h.wav,stimulus/audwhere_stim/left_away_290h.wav,stimulus/audwhere_stim/left_away_290h.wav,stimulus/audwhere_stim/right_away_280h.wav,stimulus/audwhere_stim/match_blank.png,stimulus/audwhere_stim/match_box.png,stimulus/audwhere_stim/match_yes.png,stimulus/audwhere_stim/match_no.png,2.0,Match,Side,Direction,2,5.125,0,5.125,0,5.125,0,5.125,0,0.75,0.75,0,0.0,0,0.0,0,0.0,0,0.0,1,0.5,1,2.125,1,0.5,1,2.125,0,,,,,0,14,14,14,,,,,,,,,147.757268416,152.87391537500025,147.757268416,147.757268416,147.757268416,147.757268416,148.21262650000017,149.2110590000002,148.22563887466666,149.2186192080003,149.83574979100013,150.83128420799994,149.84714537466678,150.83926170800032,152.87391537500025,153.70293837500003,155.78801283300027,,153.70293837500003,153.70293837500003,158.86765345799995,153.70293837500003,153.70293837500003,153.70293837500003,153.70293837500003,154.15702733300031,155.19914858300035,154.1271598746669,,155.78801283300027,156.83107987500034,155.75936812466696,,153.70293837500003,158.86765345799995,153.70293837500003,158.86765345799995,158.90729662500007,,153.70293837500003,2,1,2.3733514590003324,reldom2_fmri_s004p,001,2024-12-11_16h07.43.687,Where-B-Scan_AC,2022.2.5,None,
12,Second_Order,2.0,audwhere,stimulus/audwhere_stim/left_away_270h.wav,stimulus/audwhere_stim/left_toward_280h.wav,stimulus/audwhere_stim/right_away_280h.wav,stimulus/audwhere_stim/right_toward_300h.wav,stimulus/audwhere_stim/match_blank.png,stimulus/audwhere_stim/match_box.png,stimulus/audwhere_stim/match_yes.png,stimulus/audwhere_stim/match_no.png,1.0,Match,Side,Side,1,5.125,0,5.125,0,5.125,0,5.125,0,0.625,0.625,0,0.0,0,0.0,0,0.0,0,0.0,1,0.5,1,2.125,1,0.5,1,2.125,0,,,,,0,15,15,15,,,,,,,,,159.69557404100033,164.81835249999995,159.69557404100033,159.69557404100033,159.69557404100033,159.69557404100033,160.15779679100024,161.15532033299996,160.16958187466687,161.16315491600017,161.77966291600023,162.77675200000022,161.79068233266688,162.78481958300017,164.81835249999995,165.52718099999993,167.6013680000001,,165.52718099999993,165.52718099999993,170.68559491600035,165.52718099999993,165.52718099999993,165.52718099999993,165.52718099999993,165.97926295800016,167.01677633300005,165.94940683266694,,167.6013680000001,168.64443516600022,167.5725852916669,,165.52718099999993,170.68559491600035,165.52718099999993,170.68559491600035,170.72554870800013,171.40024037500007,165.52718099999993,2,0,1.3125137500001074,reldom2_fmri_s004p,001,2024-12-11_16h07.43.687,Where-B-Scan_AC,2022.2.5,None,
0,0.0,None,fixation,stimulus/audwhere_stim/blank_white.png,stimulus/audwhere_stim/blank_white.png,stimulus/viswhere_stim/blank_white.png,stimulus/viswhere_stim/blank_white.png,stimulus/audwhere_stim/blank_white.png,stimulus/audwhere_stim/blank_white.png,stimulus/audwhere_stim/blank_white.png,stimulus/audwhere_stim/blank_white.png,0.0,0.0,0.0,0.0,0,0.0,0,0.0,0,0.0,0,0.0,0,0.0,0.0,0,0.0,0,0.0,0,0.0,0,0.0,0,0.0,0,0.0,0,0.0,0,0.0,8,,,,,0,16,16,16,,,,,,,,,171.62581770800034,171.62581770800034,171.62581770800034,171.62581770800034,171.62581770800034,171.62581770800034,171.62581770800034,171.62581770800034,171.53357370833342,171.62581770800034,171.62581770800034,171.62581770800034,171.53357370833342,171.62581770800034,171.62581770800034,171.62581770800034,171.62581770800034,171.62581770800034,171.62581770800034,171.62581770800034,171.62581770800034,171.62581770800034,171.62581770800034,171.62581770800034,171.62581770800034,171.62581770800034,171.62581770800034,171.5835737083334,171.62581770800034,171.62581770800034,171.62581770800034,171.5835737083334,171.62581770800034,171.62581770800034,171.62581770800034,171.62581770800034,171.62581770800034,176.84975962499993,176.84975962499993,179.83718591600018,None,0,,reldom2_fmri_s004p,001,2024-12-11_16h07.43.687,Where-B-Scan_AC,2022.2.5,None,
13,First_Order,3.0,viswhere,stimulus/viswhere_stim/blank_white.png,stimulus/viswhere_stim/blank_white.png,stimulus/viswhere_stim/150-deg_dot-left_seagreen.png,stimulus/viswhere_stim/150-deg_dot-right_royalblue.png,stimulus/viswhere_stim/blank_white.png,stimulus/viswhere_stim/line_box.png,stimulus/viswhere_stim/line_yes.png,stimulus/viswhere_stim/line_no.png,None,Line,None,Line,1,0.0,0,5.125,0,5.125,0,5.125,0,0.0,0.625,0,0.0,0,0.0,1,0.5,1,2.125,0,0.0,0,0.0,0,0.0,0,0.0,0,,,,,0,17,17,17,,,,,,,,,179.83718591600018,179.83718591600018,179.83718591600018,179.83718591600018,179.83718591600018,179.83718591600018,179.83718591600018,179.83718591600018,179.8023768750003,179.83718591600018,179.83718591600018,179.83718591600018,179.8023768750003,179.83718591600018,179.83718591600018,179.83718591600018,181.9424140000001,185.89525675000004,179.83718591600018,179.83718591600018,184.96617779100006,180.32295137500023,181.3261372080001,181.9424140000001,182.95379891600032,179.83718591600018,179.83718591600018,179.81904354166699,179.83718591600018,179.83718591600018,179.83718591600018,179.81904354166699,179.83718591600018,179.83718591600018,184.96617779100006,179.83718591600018,184.96617779100006,185.0539872080003,185.68021145800003,179.83718591600018,1,1,1.3903879159997814,reldom2_fmri_s004p,001,2024-12-11_16h07.43.687,Where-B-Scan_AC,2022.2.5,None,
14,First_Order,3.0,viswhere,stimulus/viswhere_stim/blank_white.png,stimulus/viswhere_stim/blank_white.png,stimulus/viswhere_stim/90-deg_dot-right_cyan.png,stimulus/viswhere_stim/90-deg_dot-left_turquoise.png,stimulus/viswhere_stim/blank_white.png,stimulus/viswhere_stim/line_box.png,stimulus/viswhere_stim/line_yes.png,stimulus/viswhere_stim/line_no.png,None,Line,None,Line,1,0.0,0,5.125,0,5.125,0,5.125,0,0.0,0.625,0,0.0,0,0.0,1,0.5,1,2.125,0,0.0,0,0.0,0,0.0,0,0.0,0,,,,,0,18,18,18,,,,,,,,,185.89525675000004,185.89525675000004,185.89525675000004,185.89525675000004,185.89525675000004,185.89525675000004,185.89525675000004,185.89525675000004,185.87493874933338,185.89525675000004,185.89525675000004,185.89525675000004,185.87493874933338,185.89525675000004,185.89525675000004,185.89525675000004,188.0060346250002,191.95600862500032,185.89525675000004,185.89525675000004,191.0271592500003,186.3761611660002,187.3930539580001,188.0060346250002,189.0079538750001,185.89525675000004,185.89525675000004,185.89160541600006,185.89525675000004,185.89525675000004,185.89525675000004,185.89160541600006,185.89525675000004,185.89525675000004,191.0271592500003,185.89525675000004,191.0271592500003,191.12607587499997,191.752158666,185.89525675000004,1,1,1.7267784999999094,reldom2_fmri_s004p,001,2024-12-11_16h07.43.687,Where-B-Scan_AC,2022.2.5,None,
15,First_Order,3.0,viswhere,stimulus/viswhere_stim/blank_white.png,stimulus/viswhere_stim/blank_white.png,stimulus/viswhere_stim/60-deg_dot-right_salmon.png,stimulus/viswhere_stim/150-deg_dot-right_turquoise.png,stimulus/viswhere_stim/blank_white.png,stimulus/viswhere_stim/dot_box.png,stimulus/viswhere_stim/dot_yes.png,stimulus/viswhere_stim/dot_no.png,None,Dot,None,Dot,1,0.0,0,5.125,0,5.125,0,5.125,0,0.0,0.625,0,0.0,0,0.0,1,0.5,1,2.125,0,0.0,0,0.0,0,0.0,0,0.0,0,,,,,0,19,19,19,,,,,,,,,191.95600862500032,191.95600862500032,191.95600862500032,191.95600862500032,191.95600862500032,191.95600862500032,191.95600862500032,191.95600862500032,191.93242133333328,191.95600862500032,191.95600862500032,191.95600862500032,191.93242133333328,191.95600862500032,191.95600862500032,191.95600862500032,194.05323158300007,198.01904616599995,191.95600862500032,191.95600862500032,197.0800582910001,192.43755629099996,193.4563964580002,194.05323158300007,195.05814120800005,191.95600862500032,191.95600862500032,191.94908799999996,191.95600862500032,191.95600862500032,191.95600862500032,191.94908799999996,191.95600862500032,191.95600862500032,197.0800582910001,191.95600862500032,197.0800582910001,197.17566687499993,197.80261579100033,191.95600862500032,2,0,2.4725046670000665,reldom2_fmri_s004p,001,2024-12-11_16h07.43.687,Where-B-Scan_AC,2022.2.5,None,
16,First_Order,3.0,viswhere,stimulus/viswhere_stim/blank_white.png,stimulus/viswhere_stim/blank_white.png,stimulus/viswhere_stim/120-deg_dot-left_peru.png,stimulus/viswhere_stim/120-deg_dot-right_royalblue.png,stimulus/viswhere_stim/blank_white.png,stimulus/viswhere_stim/dot_box.png,stimulus/viswhere_stim/dot_yes.png,stimulus/viswhere_stim/dot_no.png,None,Dot,None,Line,2,0.0,0,5.125,0,5.125,0,5.125,0,0.0,0.625,0,0.0,0,0.0,1,0.5,1,2.125,0,0.0,0,0.0,0,0.0,0,0.0,0,,,,,0,20,20,20,,,,,,,,,198.01904616599995,198.01904616599995,198.01904616599995,198.01904616599995,198.01904616599995,198.01904616599995,198.01904616599995,198.01904616599995,197.9965739163334,198.01904616599995,198.01904616599995,198.01904616599995,197.9965739163334,198.01904616599995,198.01904616599995,198.01904616599995,200.12645441600034,204.16242554100018,198.01904616599995,198.01904616599995,203.1401833330001,198.4982452080003,199.51240508299998,200.12645441600034,201.14591770800007,198.01904616599995,198.01904616599995,198.01324058300008,198.01904616599995,198.01904616599995,198.01904616599995,198.01324058300008,198.01904616599995,198.01904616599995,203.1401833330001,198.01904616599995,203.1401833330001,203.237525,203.86966279100034,198.01904616599995,2,1,2.1050383750002766,reldom2_fmri_s004p,001,2024-12-11_16h07.43.687,Where-B-Scan_AC,2022.2.5,None,
0,0.0,None,fixation,stimulus/audwhere_stim/blank_white.png,stimulus/audwhere_stim/blank_white.png,stimulus/viswhere_stim/blank_white.png,stimulus/viswhere_stim/blank_white.png,stimulus/audwhere_stim/blank_white.png,stimulus/audwhere_stim/blank_white.png,stimulus/audwhere_stim/blank_white.png,stimulus/audwhere_stim/blank_white.png,0.0,0.0,0.0,0.0,0,0.0,0,0.0,0,0.0,0,0.0,0,0.0,0.0,0,0.0,0,0.0,0,0.0,0,0.0,0,0.0,0,0.0,0,0.0,0,0.0,10,,,,,0,21,21,21,,,,,,,,,204.16242554100018,204.16242554100018,204.16242554100018,204.16242554100018,204.16242554100018,204.16242554100018,204.16242554100018,204.16242554100018,204.06734516633364,204.16242554100018,204.16242554100018,204.16242554100018,204.06734516633364,204.16242554100018,204.16242554100018,204.16242554100018,204.16242554100018,204.16242554100018,204.16242554100018,204.16242554100018,204.16242554100018,204.16242554100018,204.16242554100018,204.16242554100018,204.16242554100018,204.16242554100018,204.16242554100018,204.11734516633365,204.16242554100018,204.16242554100018,204.16242554100018,204.11734516633365,204.16242554100018,204.16242554100018,204.16242554100018,204.16242554100018,204.16242554100018,209.38089949999994,209.38089949999994,214.30434908300003,None,0,,reldom2_fmri_s004p,001,2024-12-11_16h07.43.687,Where-B-Scan_AC,2022.2.5,None,
17,Second_Order,3.0,viswhere,stimulus/viswhere_stim/90-deg_dot-left_lightsseagreen.png,stimulus/viswhere_stim/90-deg_dot-right_lightsseagreen.png,stimulus/viswhere_stim/120-deg_dot-right_cyan.png,stimulus/viswhere_stim/60-deg_dot-right_royalblue.png,stimulus/audwhere_stim/match_blank.png,stimulus/audwhere_stim/match_box.png,stimulus/audwhere_stim/match_yes.png,stimulus/audwhere_stim/match_no.png,2.0,Match,Line,Dot,2,5.125,0,5.125,0,5.125,0,5.125,0,0.75,0.75,1,0.5,1,2.125,1,0.5,1,2.125,0,0.0,0,0.0,0,0.0,0,0.0,0,,,,,0,22,22,22,,,,,,,,,214.30434908300003,219.42770283300024,214.78344825000022,215.78129541599992,216.40517787499994,217.40182487500033,214.30434908300003,214.30434908300003,214.30315979166687,214.30434908300003,214.30434908300003,214.30434908300003,214.30315979166687,214.30434908300003,219.42770283300024,220.21016979100023,222.30282604100012,226.19629295799996,220.21016979100023,220.21016979100023,225.35272725000004,220.66964370799997,221.68738829099993,222.30282604100012,223.30688766599997,220.21016979100023,220.21016979100023,220.19682958333357,220.21016979100023,220.21016979100023,220.21016979100023,220.19682958333357,220.21016979100023,220.21016979100023,225.35272725000004,220.21016979100023,225.35272725000004,225.42197916600026,226.19629295799996,220.21016979100023,2,1,2.177669958000024,reldom2_fmri_s004p,001,2024-12-11_16h07.43.687,Where-B-Scan_AC,2022.2.5,None,
18,Second_Order,3.0,viswhere,stimulus/viswhere_stim/90-deg_dot-left_lightsseagreen.png,stimulus/viswhere_stim/60-deg_dot-left_mediumslateblue.png,stimulus/viswhere_stim/60-deg_dot-right_lightsseagreen.png,stimulus/viswhere_stim/30-deg_dot-right_goldenrod.png,stimulus/audwhere_stim/match_blank.png,stimulus/audwhere_stim/match_box.png,stimulus/audwhere_stim/match_yes.png,stimulus/audwhere_stim/match_no.png,1.0,Match,Dot,Dot,1,5.125,0,5.125,0,5.125,0,5.125,0,0.625,0.625,1,0.5,1,2.125,1,0.5,1,2.125,0,0.0,0,0.0,0,0.0,0,0.0,0,,,,,0,23,23,23,,,,,,,,,226.19629295799996,231.31754287500007,226.6765848330001,227.67602741600012,228.29795062500034,229.29627395800026,226.19629295799996,226.19629295799996,226.208796833,226.19629295799996,226.19629295799996,226.19629295799996,226.208796833,226.19629295799996,231.31754287500007,231.97956787500016,234.06679191600006,238.11338916600016,231.97956787500016,231.97956787500016,237.10677625000017,232.45577275000005,233.4716880410001,234.06679191600006,235.06964204099995,231.97956787500016,231.97956787500016,231.96858545833362,231.97956787500016,231.97956787500016,231.97956787500016,231.96858545833362,231.97956787500016,231.97956787500016,237.10677625000017,231.97956787500016,237.10677625000017,237.19020858300019,237.81916541600003,231.97956787500016,1,1,1.1122431670000879,reldom2_fmri_s004p,001,2024-12-11_16h07.43.687,Where-B-Scan_AC,2022.2.5,None,
0,0.0,None,fixation,stimulus/audwhere_stim/blank_white.png,stimulus/audwhere_stim/blank_white.png,stimulus/viswhere_stim/blank_white.png,stimulus/viswhere_stim/blank_white.png,stimulus/audwhere_stim/blank_white.png,stimulus/audwhere_stim/blank_white.png,stimulus/audwhere_stim/blank_white.png,stimulus/audwhere_stim/blank_white.png,0.0,0.0,0.0,0.0,0,0.0,0,0.0,0,0.0,0,0.0,0,0.0,0.0,0,0.0,0,0.0,0,0.0,0,0.0,0,0.0,0,0.0,0,0.0,0,0.0,9,,,,,0,24,24,24,,,,,,,,,238.11338916600016,238.11338916600016,238.11338916600016,238.11338916600016,238.11338916600016,238.11338916600016,238.11338916600016,238.11338916600016,238.01494645833358,238.11338916600016,238.11338916600016,238.11338916600016,238.01494645833358,238.11338916600016,238.11338916600016,238.11338916600016,238.11338916600016,238.11338916600016,238.11338916600016,238.11338916600016,238.11338916600016,238.11338916600016,238.11338916600016,238.11338916600016,238.11338916600016,238.11338916600016,238.11338916600016,238.0649464583336,238.11338916600016,238.11338916600016,238.11338916600016,238.0649464583336,238.11338916600016,238.11338916600016,238.11338916600016,238.11338916600016,238.11338916600016,243.29576641600033,243.29576641600033,247.31841141600034,None,0,,reldom2_fmri_s004p,001,2024-12-11_16h07.43.687,Where-B-Scan_AC,2022.2.5,None,
19,First_Order,4.0,viswhere,stimulus/viswhere_stim/blank_white.png,stimulus/viswhere_stim/blank_white.png,stimulus/viswhere_stim/90-deg_dot-left_seagreen.png,stimulus/viswhere_stim/150-deg_dot-left_lightsseagreen.png,stimulus/viswhere_stim/blank_white.png,stimulus/viswhere_stim/dot_box.png,stimulus/viswhere_stim/dot_yes.png,stimulus/viswhere_stim/dot_no.png,None,Dot,None,Dot,1,0.0,0,5.125,0,5.125,0,5.125,0,0.0,0.625,0,0.0,0,0.0,1,0.5,1,2.125,0,0.0,0,0.0,0,0.0,0,0.0,0,,,,,0,25,25,25,,,,,,,,,247.31841141600034,247.31841141600034,247.31841141600034,247.31841141600034,247.31841141600034,247.31841141600034,247.31841141600034,247.31841141600034,247.29940820766677,247.31841141600034,247.31841141600034,247.31841141600034,247.29940820766677,247.31841141600034,247.31841141600034,247.31841141600034,249.42491900000005,253.3883487500002,247.31841141600034,247.31841141600034,252.45095841600005,247.80227104100004,248.80827487500028,249.42491900000005,250.43782483299992,247.31841141600034,247.31841141600034,247.29940820766677,247.31841141600034,247.31841141600034,247.31841141600034,247.29940820766677,247.31841141600034,247.31841141600034,252.45095841600005,247.31841141600034,252.45095841600005,252.53439366600014,253.16667341600032,247.31841141600034,1,1,0.9007837500003006,reldom2_fmri_s004p,001,2024-12-11_16h07.43.687,Where-B-Scan_AC,2022.2.5,None,
20,First_Order,4.0,viswhere,stimulus/viswhere_stim/blank_white.png,stimulus/viswhere_stim/blank_white.png,stimulus/viswhere_stim/30-deg_dot-left_peru.png,stimulus/viswhere_stim/30-deg_dot-right_salmon.png,stimulus/viswhere_stim/blank_white.png,stimulus/viswhere_stim/dot_box.png,stimulus/viswhere_stim/dot_yes.png,stimulus/viswhere_stim/dot_no.png,None,Dot,None,Line,2,0.0,0,5.125,0,5.125,0,5.125,0,0.0,0.625,0,0.0,0,0.0,1,0.5,1,2.125,0,0.0,0,0.0,0,0.0,0,0.0,0,,,,,0,26,26,26,,,,,,,,,253.3883487500002,253.3883487500002,253.3883487500002,253.3883487500002,253.3883487500002,253.3883487500002,253.3883487500002,253.3883487500002,253.36701733333334,253.3883487500002,253.3883487500002,253.3883487500002,253.36701733333334,253.3883487500002,253.3883487500002,253.3883487500002,255.50044841599993,259.468140125,253.3883487500002,253.3883487500002,258.51516766600025,253.86789791599995,254.88683258300034,255.50044841599993,256.5075575410001,253.3883487500002,253.3883487500002,253.38368400000002,253.3883487500002,253.3883487500002,253.3883487500002,253.38368400000002,253.3883487500002,253.3883487500002,258.51516766600025,253.3883487500002,258.51516766600025,258.61277204099997,259.2383852080002,253.3883487500002,2,1,0.8331252910002149,reldom2_fmri_s004p,001,2024-12-11_16h07.43.687,Where-B-Scan_AC,2022.2.5,None,
21,First_Order,4.0,viswhere,stimulus/viswhere_stim/blank_white.png,stimulus/viswhere_stim/blank_white.png,stimulus/viswhere_stim/60-deg_dot-left_lightsseagreen.png,stimulus/viswhere_stim/30-deg_dot-left_slateblue.png,stimulus/viswhere_stim/blank_white.png,stimulus/viswhere_stim/line_box.png,stimulus/viswhere_stim/line_yes.png,stimulus/viswhere_stim/line_no.png,None,Line,None,Dot,2,0.0,0,5.125,0,5.125,0,5.125,0,0.0,0.625,0,0.0,0,0.0,1,0.5,1,2.125,0,0.0,0,0.0,0,0.0,0,0.0,0,,,,,0,27,27,27,,,,,,,,,259.468140125,259.468140125,259.468140125,259.468140125,259.468140125,259.468140125,259.468140125,259.468140125,259.44772774933364,259.468140125,259.468140125,259.468140125,259.44772774933364,259.468140125,259.468140125,259.468140125,261.574080458,265.537437125,259.468140125,259.468140125,264.59322462499995,259.95352008300006,260.95849150000004,261.574080458,262.58418699999993,259.468140125,259.468140125,259.4643944160003,259.468140125,259.468140125,259.468140125,259.4643944160003,259.468140125,259.468140125,264.59322462499995,259.468140125,264.59322462499995,264.6908389580003,265.3156478750002,259.468140125,2,1,1.5530888339999365,reldom2_fmri_s004p,001,2024-12-11_16h07.43.687,Where-B-Scan_AC,2022.2.5,None,
22,First_Order,4.0,viswhere,stimulus/viswhere_stim/blank_white.png,stimulus/viswhere_stim/blank_white.png,stimulus/viswhere_stim/120-deg_dot-right_peru.png,stimulus/viswhere_stim/150-deg_dot-right_peru.png,stimulus/viswhere_stim/blank_white.png,stimulus/viswhere_stim/line_box.png,stimulus/viswhere_stim/line_yes.png,stimulus/viswhere_stim/line_no.png,None,Line,None,Dot,2,0.0,0,5.125,0,5.125,0,5.125,0,0.0,0.625,0,0.0,0,0.0,1,0.5,1,2.125,0,0.0,0,0.0,0,0.0,0,0.0,0,,,,,0,28,28,28,,,,,,,,,265.537437125,265.537437125,265.537437125,265.537437125,265.537437125,265.537437125,265.537437125,265.537437125,265.5116379993336,265.537437125,265.537437125,265.537437125,265.5116379993336,265.537437125,265.537437125,265.537437125,267.6305953330002,271.6777010830001,265.537437125,265.537437125,270.6633910830001,266.02413041599993,267.03159641599996,267.6305953330002,268.64505958300015,265.537437125,265.537437125,265.5283046660002,265.537437125,265.537437125,265.537437125,265.5283046660002,265.537437125,265.537437125,270.6633910830001,265.537437125,270.6633910830001,270.7516773330003,271.38328683300006,265.537437125,2,1,2.303963458999988,reldom2_fmri_s004p,001,2024-12-11_16h07.43.687,Where-B-Scan_AC,2022.2.5,None,
0,0.0,None,fixation,stimulus/audwhere_stim/blank_white.png,stimulus/audwhere_stim/blank_white.png,stimulus/viswhere_stim/blank_white.png,stimulus/viswhere_stim/blank_white.png,stimulus/audwhere_stim/blank_white.png,stimulus/audwhere_stim/blank_white.png,stimulus/audwhere_stim/blank_white.png,stimulus/audwhere_stim/blank_white.png,0.0,0.0,0.0,0.0,0,0.0,0,0.0,0,0.0,0,0.0,0,0.0,0.0,0,0.0,0,0.0,0,0.0,0,0.0,0,0.0,0,0.0,0,0.0,0,0.0,10,,,,,0,29,29,29,,,,,,,,,271.6777010830001,271.6777010830001,271.6777010830001,271.6777010830001,271.6777010830001,271.6777010830001,271.6777010830001,271.6777010830001,271.5785437913335,271.6777010830001,271.6777010830001,271.6777010830001,271.5785437913335,271.6777010830001,271.6777010830001,271.6777010830001,271.6777010830001,271.6777010830001,271.6777010830001,271.6777010830001,271.6777010830001,271.6777010830001,271.6777010830001,271.6777010830001,271.6777010830001,271.6777010830001,271.6777010830001,271.6285437913335,271.6777010830001,271.6777010830001,271.6777010830001,271.6285437913335,271.6777010830001,271.6777010830001,271.6777010830001,271.6777010830001,271.6777010830001,276.89995258299996,276.89995258299996,281.8165362909999,None,0,,reldom2_fmri_s004p,001,2024-12-11_16h07.43.687,Where-B-Scan_AC,2022.2.5,None,
23,Second_Order,4.0,viswhere,stimulus/viswhere_stim/60-deg_dot-right_peru.png,stimulus/viswhere_stim/60-deg_dot-left_royalblue.png,stimulus/viswhere_stim/90-deg_dot-left_slateblue.png,stimulus/viswhere_stim/90-deg_dot-right_royalblue.png,stimulus/audwhere_stim/match_blank.png,stimulus/audwhere_stim/match_box.png,stimulus/audwhere_stim/match_yes.png,stimulus/audwhere_stim/match_no.png,1.0,Match,Line,Line,1,5.125,0,5.125,0,5.125,0,5.125,0,0.75,0.75,1,0.5,1,2.125,1,0.5,1,2.125,0,0.0,0,0.0,0,0.0,0,0.0,0,,,,,0,30,30,30,,,,,,,,,281.8165362909999,286.9333932080003,282.2885799999999,283.287324333,283.92190262500026,284.91137095800013,281.8165362909999,281.8165362909999,281.83055708333325,281.8165362909999,281.8165362909999,281.8165362909999,281.83055708333325,281.8165362909999,286.9333932080003,287.7109847910001,289.8034278330001,293.69371524999997,287.7109847910001,287.7109847910001,292.85042387500016,288.17661108300035,289.18481554100026,289.8034278330001,290.8183864580001,287.7109847910001,287.7109847910001,287.7011851663333,287.7109847910001,287.7109847910001,287.7109847910001,287.7011851663333,287.7109847910001,287.7109847910001,292.85042387500016,287.7109847910001,292.85042387500016,292.91948579100017,293.69371524999997,287.7109847910001,1,1,1.1211576669998067,reldom2_fmri_s004p,001,2024-12-11_16h07.43.687,Where-B-Scan_AC,2022.2.5,None,
24,Second_Order,4.0,viswhere,stimulus/viswhere_stim/120-deg_dot-left_peru.png,stimulus/viswhere_stim/120-deg_dot-right_peru.png,stimulus/viswhere_stim/30-deg_dot-right_peru.png,stimulus/viswhere_stim/30-deg_dot-left_lightsseagreen.png,stimulus/audwhere_stim/match_blank.png,stimulus/audwhere_stim/match_box.png,stimulus/audwhere_stim/match_yes.png,stimulus/audwhere_stim/match_no.png,1.0,Match,Line,Line,1,5.125,0,5.125,0,5.125,0,5.125,0,0.625,0.625,1,0.5,1,2.125,1,0.5,1,2.125,0,0.0,0,0.0,0,0.0,0,0.0,0,,,,,0,31,31,31,,,,,,,,,293.69371524999997,298.81136533300014,294.17886675,295.1678776660001,295.8039826250001,296.8015055410001,293.69371524999997,293.69371524999997,293.70695266600006,293.69371524999997,293.69371524999997,293.69371524999997,293.70695266600006,293.69371524999997,298.81136533300014,299.4662994580003,301.5663655000003,305.5938580000002,299.4662994580003,299.4662994580003,304.5894695830002,299.94713708300014,300.9506065830001,301.5663655000003,302.57912158299996,299.4662994580003,299.4662994580003,299.4578589583334,299.4662994580003,299.4662994580003,299.4662994580003,299.4578589583334,299.4662994580003,299.4662994580003,304.5894695830002,299.4662994580003,304.5894695830002,304.67361566599993,305.30089658299994,299.4662994580003,1,1,0.9128345419999278,reldom2_fmri_s004p,001,2024-12-11_16h07.43.687,Where-B-Scan_AC,2022.2.5,None,
0,0.0,None,fixation,stimulus/audwhere_stim/blank_white.png,stimulus/audwhere_stim/blank_white.png,stimulus/viswhere_stim/blank_white.png,stimulus/viswhere_stim/blank_white.png,stimulus/audwhere_stim/blank_white.png,stimulus/audwhere_stim/blank_white.png,stimulus/audwhere_stim/blank_white.png,stimulus/audwhere_stim/blank_white.png,0.0,0.0,0.0,0.0,0,0.0,0,0.0,0,0.0,0,0.0,0,0.0,0.0,0,0.0,0,0.0,0,0.0,0,0.0,0,0.0,0,0.0,0,0.0,0,0.0,9,,,,,0,32,32,32,,,,,,,,,305.5938580000002,305.5938580000002,305.5938580000002,305.5938580000002,305.5938580000002,305.5938580000002,305.5938580000002,305.5938580000002,305.49478187433334,305.5938580000002,305.5938580000002,305.5938580000002,305.49478187433334,305.5938580000002,305.5938580000002,305.5938580000002,305.5938580000002,305.5938580000002,305.5938580000002,305.5938580000002,305.5938580000002,305.5938580000002,305.5938580000002,305.5938580000002,305.5938580000002,305.5938580000002,305.5938580000002,305.54478187433335,305.5938580000002,305.5938580000002,305.5938580000002,305.54478187433335,305.5938580000002,305.5938580000002,305.5938580000002,305.5938580000002,305.5938580000002,310.8227395409999,310.8227395409999,314.82545025000036,None,0,,reldom2_fmri_s004p,001,2024-12-11_16h07.43.687,Where-B-Scan_AC,2022.2.5,None,
25,First_Order,5.0,audwhere,stimulus/audwhere_stim/dummy.wav,stimulus/audwhere_stim/dummy.wav,stimulus/audwhere_stim/right_toward_280h.wav,stimulus/audwhere_stim/right_away_290h.wav,stimulus/audwhere_stim/blank_white.png,stimulus/audwhere_stim/side_box.png,stimulus/audwhere_stim/side_yes.png,stimulus/audwhere_stim/side_no.png,None,Side,None,Side,1,0.0,0,5.125,0,5.125,0,5.125,0,0.0,0.625,0,0.0,0,0.0,0,0.0,0,0.0,0,0.0,0,0.0,1,0.5,1,2.125,0,,,,,0,33,33,33,,,,,,,,,314.82545025000036,314.82545025000036,314.82545025000036,314.82545025000036,314.82545025000036,314.82545025000036,314.82545025000036,314.82545025000036,314.75497349966656,314.82545025000036,314.82545025000036,314.82545025000036,314.75497349966656,314.82545025000036,314.82545025000036,314.82545025000036,316.9058069160001,320.948007125,314.82545025000036,314.82545025000036,320.0065305000003,314.82545025000036,314.82545025000036,314.82545025000036,314.82545025000036,315.28857591600035,316.3522954580003,315.2591497916667,,316.9058069160001,317.97186075000036,316.8760463746669,,314.82545025000036,320.0065305000003,314.82545025000036,320.0065305000003,320.04734358299993,320.6969704580001,314.82545025000036,1,1,1.3044537499999933,reldom2_fmri_s004p,001,2024-12-11_16h07.43.687,Where-B-Scan_AC,2022.2.5,None,
26,First_Order,5.0,audwhere,stimulus/audwhere_stim/dummy.wav,stimulus/audwhere_stim/dummy.wav,stimulus/audwhere_stim/right_toward_300h.wav,stimulus/audwhere_stim/left_toward_270h.wav,stimulus/audwhere_stim/blank_white.png,stimulus/audwhere_stim/direction_box.png,stimulus/audwhere_stim/direction_yes.png,stimulus/audwhere_stim/direction_no.png,None,Direction,None,Direction,1,0.0,0,5.125,0,5.125,0,5.125,0,0.0,0.625,0,0.0,0,0.0,0,0.0,0,0.0,0,0.0,0,0.0,1,0.5,1,2.125,0,,,,,0,34,34,34,,,,,,,,,320.948007125,320.948007125,320.948007125,320.948007125,320.948007125,320.948007125,320.948007125,320.948007125,320.87101608333353,320.948007125,320.948007125,320.948007125,320.87101608333353,320.948007125,320.948007125,320.948007125,323.0491486660003,327.0754145410001,320.948007125,320.948007125,326.12950170800013,320.948007125,320.948007125,320.948007125,320.948007125,321.4142769580003,322.488501625,321.3840872076669,,323.0491486660003,324.07981329099994,323.01895783266696,,320.948007125,326.12950170800013,320.948007125,326.12950170800013,326.17029870800025,326.82364345800033,320.948007125,1,1,1.9162917079997897,reldom2_fmri_s004p,001,2024-12-11_16h07.43.687,Where-B-Scan_AC,2022.2.5,None,
27,First_Order,5.0,audwhere,stimulus/audwhere_stim/dummy.wav,stimulus/audwhere_stim/dummy.wav,stimulus/audwhere_stim/left_toward_290h.wav,stimulus/audwhere_stim/left_away_300h.wav,stimulus/audwhere_stim/blank_white.png,stimulus/audwhere_stim/direction_box.png,stimulus/audwhere_stim/direction_yes.png,stimulus/audwhere_stim/direction_no.png,None,Direction,None,Side,2,0.0,0,5.125,0,5.125,0,5.125,0,0.0,0.625,0,0.0,0,0.0,0,0.0,0,0.0,0,0.0,0,0.0,1,0.5,1,2.125,0,,,,,0,35,35,35,,,,,,,,,327.0754145410001,327.0754145410001,327.0754145410001,327.0754145410001,327.0754145410001,327.0754145410001,327.0754145410001,327.0754145410001,326.9973219583336,327.0754145410001,327.0754145410001,327.0754145410001,326.9973219583336,327.0754145410001,327.0754145410001,327.0754145410001,329.1771731660001,333.207762,327.0754145410001,327.0754145410001,332.2584784999999,327.0754145410001,327.0754145410001,327.0754145410001,327.0754145410001,327.54263175000006,328.61651362500015,327.51289608266666,,329.1771731660001,330.206667166,329.1466684166669,,327.0754145410001,332.2584784999999,327.0754145410001,332.2584784999999,332.29905391600005,332.9528082500001,327.0754145410001,2,1,1.3733470410002155,reldom2_fmri_s004p,001,2024-12-11_16h07.43.687,Where-B-Scan_AC,2022.2.5,None,
28,First_Order,5.0,audwhere,stimulus/audwhere_stim/dummy.wav,stimulus/audwhere_stim/dummy.wav,stimulus/audwhere_stim/right_away_300h.wav,stimulus/audwhere_stim/right_toward_290h.wav,stimulus/audwhere_stim/blank_white.png,stimulus/audwhere_stim/direction_box.png,stimulus/audwhere_stim/direction_yes.png,stimulus/audwhere_stim/direction_no.png,None,Direction,None,Side,2,0.0,0,5.125,0,5.125,0,5.125,0,0.0,0.625,0,0.0,0,0.0,0,0.0,0,0.0,0,0.0,0,0.0,1,0.5,1,2.125,0,,,,,0,36,36,36,,,,,,,,,333.207762,333.207762,333.207762,333.207762,333.207762,333.207762,333.207762,333.207762,333.1268681243333,333.207762,333.207762,333.207762,333.1268681243333,333.207762,333.207762,333.207762,335.3163030410001,,333.207762,333.207762,338.35863179100033,333.207762,333.207762,333.207762,333.207762,333.675740875,334.7076771249999,333.645486582667,,335.3163030410001,336.349497916,335.28573399966695,,333.207762,338.35863179100033,333.207762,338.35863179100033,338.3991889160002,339.053958083,333.207762,2,1,1.356505541000388,reldom2_fmri_s004p,001,2024-12-11_16h07.43.687,Where-B-Scan_AC,2022.2.5,None,
0,0.0,None,fixation,stimulus/audwhere_stim/blank_white.png,stimulus/audwhere_stim/blank_white.png,stimulus/viswhere_stim/blank_white.png,stimulus/viswhere_stim/blank_white.png,stimulus/audwhere_stim/blank_white.png,stimulus/audwhere_stim/blank_white.png,stimulus/audwhere_stim/blank_white.png,stimulus/audwhere_stim/blank_white.png,0.0,0.0,0.0,0.0,0,0.0,0,0.0,0,0.0,0,0.0,0,0.0,0.0,0,0.0,0,0.0,0,0.0,0,0.0,0,0.0,0,0.0,0,0.0,0,0.0,10,,,,,0,37,37,37,,,,,,,,,339.32804087500017,339.32804087500017,339.32804087500017,339.32804087500017,339.32804087500017,339.32804087500017,339.32804087500017,339.32804087500017,339.22811066633324,339.32804087500017,339.32804087500017,339.32804087500017,339.22811066633324,339.32804087500017,339.32804087500017,339.32804087500017,339.32804087500017,339.32804087500017,339.32804087500017,339.32804087500017,339.32804087500017,339.32804087500017,339.32804087500017,339.32804087500017,339.32804087500017,339.32804087500017,339.32804087500017,339.27811066633325,339.32804087500017,339.32804087500017,339.32804087500017,339.27811066633325,339.32804087500017,339.32804087500017,339.32804087500017,339.32804087500017,339.32804087500017,344.52190983300034,344.52190983300034,349.4863435000002,None,0,,reldom2_fmri_s004p,001,2024-12-11_16h07.43.687,Where-B-Scan_AC,2022.2.5,None,
29,Second_Order,5.0,audwhere,stimulus/audwhere_stim/right_toward_270h.wav,stimulus/audwhere_stim/right_away_280h.wav,stimulus/audwhere_stim/left_away_270h.wav,stimulus/audwhere_stim/right_away_300h.wav,stimulus/audwhere_stim/match_blank.png,stimulus/audwhere_stim/match_box.png,stimulus/audwhere_stim/match_yes.png,stimulus/audwhere_stim/match_no.png,2.0,Match,Side,Direction,2,5.125,0,5.125,0,5.125,0,5.125,0,0.75,0.75,0,0.0,0,0.0,0,0.0,0,0.0,1,0.5,1,2.125,1,0.5,1,2.125,0,,,,,0,38,38,38,,,,,,,,,349.4863435000002,354.606387541,349.4863435000002,349.4863435000002,349.4863435000002,349.4863435000002,349.94459154100014,350.94292895800027,349.9575209576667,350.95073166600014,351.5671391660003,352.5634680000003,351.57837683266666,352.57143483300024,354.606387541,355.43480287500006,357.509089916,361.4577156250002,355.43480287500006,355.43480287500006,360.61078050000015,355.43480287500006,355.43480287500006,355.43480287500006,355.43480287500006,355.89380574999996,356.95515945800025,355.86433554166683,,357.509089916,358.5765282080001,357.47912937466685,,355.43480287500006,360.61078050000015,355.43480287500006,360.61078050000015,360.6519577500003,,355.43480287500006,1,0,1.3051030419997005,reldom2_fmri_s004p,001,2024-12-11_16h07.43.687,Where-B-Scan_AC,2022.2.5,None,
30,Second_Order,5.0,audwhere,stimulus/audwhere_stim/right_away_300h.wav,stimulus/audwhere_stim/right_toward_300h.wav,stimulus/audwhere_stim/left_toward_290h.wav,stimulus/audwhere_stim/left_away_270h.wav,stimulus/audwhere_stim/match_blank.png,stimulus/audwhere_stim/match_box.png,stimulus/audwhere_stim/match_yes.png,stimulus/audwhere_stim/match_no.png,1.0,Match,Side,Side,1,5.125,0,5.125,0,5.125,0,5.125,0,0.625,0.625,0,0.0,0,0.0,0,0.0,0,0.0,1,0.5,1,2.125,1,0.5,1,2.125,0,,,,,0,39,39,39,,,,,,,,,361.4577156250002,366.5792982910002,361.4577156250002,361.4577156250002,361.4577156250002,361.4577156250002,361.91830929100024,362.9121382080002,361.92131774966697,362.9121382080002,363.54363516600006,364.54123879100007,363.55528891666677,364.54912604100036,366.5792982910002,367.29570354099997,369.36267691600005,,367.29570354099997,367.29570354099997,372.450459916,367.29570354099997,367.29570354099997,367.29570354099997,367.29570354099997,367.75339683300035,368.8121811660003,367.7237810416666,,369.36267691600005,370.425932958,369.3330438746668,,367.29570354099997,372.450459916,367.29570354099997,372.450459916,372.4914076660002,373.17926108300026,367.29570354099997,2,0,2.3796296250002342,reldom2_fmri_s004p,001,2024-12-11_16h07.43.687,Where-B-Scan_AC,2022.2.5,None,
0,0.0,None,fixation,stimulus/audwhere_stim/blank_white.png,stimulus/audwhere_stim/blank_white.png,stimulus/viswhere_stim/blank_white.png,stimulus/viswhere_stim/blank_white.png,stimulus/audwhere_stim/blank_white.png,stimulus/audwhere_stim/blank_white.png,stimulus/audwhere_stim/blank_white.png,stimulus/audwhere_stim/blank_white.png,0.0,0.0,0.0,0.0,0,0.0,0,0.0,0,0.0,0,0.0,0,0.0,0.0,0,0.0,0,0.0,0,0.0,0,0.0,0,0.0,0,0.0,0,0.0,0,0.0,8,,,,,0,40,40,40,,,,,,,,,373.411699583,373.411699583,373.411699583,373.411699583,373.411699583,373.411699583,373.411699583,373.411699583,373.3125944163336,373.411699583,373.411699583,373.411699583,373.3125944163336,373.411699583,373.411699583,373.411699583,373.411699583,373.411699583,373.411699583,373.411699583,373.411699583,373.411699583,373.411699583,373.411699583,373.411699583,373.411699583,373.411699583,373.3625944163336,373.411699583,373.411699583,373.411699583,373.3625944163336,373.411699583,373.411699583,373.411699583,373.411699583,373.411699583,378.5965305,378.5965305,381.639621541,None,0,,reldom2_fmri_s004p,001,2024-12-11_16h07.43.687,Where-B-Scan_AC,2022.2.5,None,
31,First_Order,6.0,audwhere,stimulus/audwhere_stim/dummy.wav,stimulus/audwhere_stim/dummy.wav,stimulus/audwhere_stim/left_toward_270h.wav,stimulus/audwhere_stim/right_toward_280h.wav,stimulus/audwhere_stim/blank_white.png,stimulus/audwhere_stim/side_box.png,stimulus/audwhere_stim/side_yes.png,stimulus/audwhere_stim/side_no.png,None,Side,None,Direction,2,0.0,0,5.125,0,5.125,0,5.125,0,0.0,0.625,0,0.0,0,0.0,0,0.0,0,0.0,0,0.0,0,0.0,1,0.5,1,2.125,0,,,,,0,41,41,41,,,,,,,,,381.639621541,381.639621541,381.639621541,381.639621541,381.639621541,381.639621541,381.639621541,381.639621541,381.5708190416668,381.639621541,381.639621541,381.639621541,381.5708190416668,381.639621541,381.639621541,381.639621541,383.7222420000003,387.769296208,381.639621541,381.639621541,386.8261457910003,381.639621541,381.639621541,381.639621541,381.639621541,382.103230875,383.16788399999996,382.073301582667,,383.7222420000003,384.7913185000002,383.6930280416666,,381.639621541,386.8261457910003,381.639621541,386.8261457910003,386.86728941599995,387.51683004100005,381.639621541,1,0,1.8194876669999758,reldom2_fmri_s004p,001,2024-12-11_16h07.43.687,Where-B-Scan_AC,2022.2.5,None,
32,First_Order,6.0,audwhere,stimulus/audwhere_stim/dummy.wav,stimulus/audwhere_stim/dummy.wav,stimulus/audwhere_stim/right_toward_280h.wav,stimulus/audwhere_stim/left_toward_290h.wav,stimulus/audwhere_stim/blank_white.png,stimulus/audwhere_stim/direction_box.png,stimulus/audwhere_stim/direction_yes.png,stimulus/audwhere_stim/direction_no.png,None,Direction,None,Direction,1,0.0,0,5.125,0,5.125,0,5.125,0,0.0,0.625,0,0.0,0,0.0,0,0.0,0,0.0,0,0.0,0,0.0,1,0.5,1,2.125,0,,,,,0,42,42,42,,,,,,,,,387.769296208,387.769296208,387.769296208,387.769296208,387.769296208,387.769296208,387.769296208,387.769296208,387.69081574933364,387.769296208,387.769296208,387.769296208,387.69081574933364,387.769296208,387.769296208,387.769296208,389.87062237500004,,387.769296208,387.769296208,392.9548705000002,387.769296208,387.769296208,387.769296208,387.769296208,388.2390907500003,389.311253458,388.2090039576667,,389.87062237500004,390.9022889160001,389.8403095826668,,387.769296208,392.9548705000002,387.769296208,392.9548705000002,392.99528629099996,393.649850583,387.769296208,1,1,1.5341099580000446,reldom2_fmri_s004p,001,2024-12-11_16h07.43.687,Where-B-Scan_AC,2022.2.5,None,
33,First_Order,6.0,audwhere,stimulus/audwhere_stim/dummy.wav,stimulus/audwhere_stim/dummy.wav,stimulus/audwhere_stim/left_toward_270h.wav,stimulus/audwhere_stim/left_away_300h.wav,stimulus/audwhere_stim/blank_white.png,stimulus/audwhere_stim/side_box.png,stimulus/audwhere_stim/side_yes.png,stimulus/audwhere_stim/side_no.png,None,Side,None,Side,1,0.0,0,5.125,0,5.125,0,5.125,0,0.0,0.625,0,0.0,0,0.0,0,0.0,0,0.0,0,0.0,0,0.0,1,0.5,1,2.125,0,,,,,0,43,43,43,,,,,,,,,393.8644776660003,393.8644776660003,393.8644776660003,393.8644776660003,393.8644776660003,393.8644776660003,393.8644776660003,393.8644776660003,393.7831839163333,393.8644776660003,393.8644776660003,393.8644776660003,393.7831839163333,393.8644776660003,393.8644776660003,393.8644776660003,395.9662870000002,399.98541620800006,393.8644776660003,393.8644776660003,399.0358032910003,393.8644776660003,393.8644776660003,393.8644776660003,393.8644776660003,394.3333885830002,395.40812504099995,394.30325279166686,,395.9662870000002,397.03865587500013,395.93453920766683,,393.8644776660003,399.0358032910003,393.8644776660003,399.0358032910003,399.0768010410002,399.73052766599994,393.8644776660003,2,0,2.2607619590003196,reldom2_fmri_s004p,001,2024-12-11_16h07.43.687,Where-B-Scan_AC,2022.2.5,None,
34,First_Order,6.0,audwhere,stimulus/audwhere_stim/dummy.wav,stimulus/audwhere_stim/dummy.wav,stimulus/audwhere_stim/right_toward_300h.wav,stimulus/audwhere_stim/left_toward_290h.wav,stimulus/audwhere_stim/blank_white.png,stimulus/audwhere_stim/side_box.png,stimulus/audwhere_stim/side_yes.png,stimulus/audwhere_stim/side_no.png,None,Side,None,Direction,2,0.0,0,5.125,0,5.125,0,5.125,0,0.0,0.625,0,0.0,0,0.0,0,0.0,0,0.0,0,0.0,0,0.0,1,0.5,1,2.125,0,,,,,0,44,44,44,,,,,,,,,399.98541620800006,399.98541620800006,399.98541620800006,399.98541620800006,399.98541620800006,399.98541620800006,399.98541620800006,399.98541620800006,399.90469041633344,399.98541620800006,399.98541620800006,399.98541620800006,399.90469041633344,399.98541620800006,399.98541620800006,399.98541620800006,402.07678045800003,406.13060858300014,399.98541620800006,399.98541620800006,405.15381908300014,399.98541620800006,399.98541620800006,399.98541620800006,399.98541620800006,400.4506915000002,401.5183623329999,400.42091137466673,,402.07678045800003,403.150554416,402.0468458746666,,399.98541620800006,405.15381908300014,399.98541620800006,405.15381908300014,405.1947997080001,405.8505029160001,399.98541620800006,1,0,2.2948768330002167,reldom2_fmri_s004p,001,2024-12-11_16h07.43.687,Where-B-Scan_AC,2022.2.5,None,
0,0.0,None,fixation,stimulus/audwhere_stim/blank_white.png,stimulus/audwhere_stim/blank_white.png,stimulus/viswhere_stim/blank_white.png,stimulus/viswhere_stim/blank_white.png,stimulus/audwhere_stim/blank_white.png,stimulus/audwhere_stim/blank_white.png,stimulus/audwhere_stim/blank_white.png,stimulus/audwhere_stim/blank_white.png,0.0,0.0,0.0,0.0,0,0.0,0,0.0,0,0.0,0,0.0,0,0.0,0.0,0,0.0,0,0.0,0,0.0,0,0.0,0,0.0,0,0.0,0,0.0,0,0.0,8,,,,,0,45,45,45,,,,,,,,,406.13060858300014,406.13060858300014,406.13060858300014,406.13060858300014,406.13060858300014,406.13060858300014,406.13060858300014,406.13060858300014,406.0247570413336,406.13060858300014,406.13060858300014,406.13060858300014,406.0247570413336,406.13060858300014,406.13060858300014,406.13060858300014,406.13060858300014,406.13060858300014,406.13060858300014,406.13060858300014,406.13060858300014,406.13060858300014,406.13060858300014,406.13060858300014,406.13060858300014,406.13060858300014,406.13060858300014,406.0747570413336,406.13060858300014,406.13060858300014,406.13060858300014,406.0747570413336,406.13060858300014,406.13060858300014,406.13060858300014,406.13060858300014,406.13060858300014,411.32191737500034,411.32191737500034,414.3048529160001,None,0,,reldom2_fmri_s004p,001,2024-12-11_16h07.43.687,Where-B-Scan_AC,2022.2.5,None,
35,Second_Order,6.0,audwhere,stimulus/audwhere_stim/left_toward_280h.wav,stimulus/audwhere_stim/right_toward_270h.wav,stimulus/audwhere_stim/left_away_300h.wav,stimulus/audwhere_stim/right_away_280h.wav,stimulus/audwhere_stim/match_blank.png,stimulus/audwhere_stim/match_box.png,stimulus/audwhere_stim/match_yes.png,stimulus/audwhere_stim/match_no.png,1.0,Match,Direction,Direction,1,5.125,0,5.125,0,5.125,0,5.125,0,0.75,0.75,0,0.0,0,0.0,0,0.0,0,0.0,1,0.5,1,2.125,1,0.5,1,2.125,0,,,,,0,46,46,46,,,,,,,,,414.3048529160001,419.4228800000001,414.3048529160001,414.3048529160001,414.3048529160001,414.3048529160001,414.7612291250002,415.7590434580002,414.7736789576668,415.7667563330001,416.382878375,417.3794601660002,416.39410820766693,417.38738950000015,419.4228800000001,420.2520742910001,422.33158679100006,,420.2520742910001,420.2520742910001,425.4363709580002,420.2520742910001,420.2520742910001,420.2520742910001,420.2520742910001,420.7139010000001,421.775868875,420.6837540416666,,422.33158679100006,423.39733350000006,422.3015315416667,,420.2520742910001,425.4363709580002,420.2520742910001,425.4363709580002,425.4363709580002,,420.2520742910001,1,1,2.2914716670002235,reldom2_fmri_s004p,001,2024-12-11_16h07.43.687,Where-B-Scan_AC,2022.2.5,None,
36,Second_Order,6.0,audwhere,stimulus/audwhere_stim/left_toward_300h.wav,stimulus/audwhere_stim/right_toward_280h.wav,stimulus/audwhere_stim/left_away_300h.wav,stimulus/audwhere_stim/right_away_300h.wav,stimulus/audwhere_stim/match_blank.png,stimulus/audwhere_stim/match_box.png,stimulus/audwhere_stim/match_yes.png,stimulus/audwhere_stim/match_no.png,1.0,Match,Direction,Direction,1,5.125,0,5.125,0,5.125,0,5.125,0,0.625,0.625,0,0.0,0,0.0,0,0.0,0,0.0,1,0.5,1,2.125,1,0.5,1,2.125,0,,,,,0,47,47,47,,,,,,,,,426.2466979999999,431.36703645800026,426.2466979999999,426.2466979999999,426.2466979999999,426.2466979999999,426.705541541,427.7036317500001,426.71804541666666,427.7113763750003,428.326110083,429.3241142500001,428.3381009576667,429.33202733300004,431.36703645800026,432.071281041,434.13907900000004,,432.071281041,432.071281041,437.22938354100006,432.071281041,432.071281041,432.071281041,432.071281041,432.5288491250003,433.58619045800015,432.499493874667,,434.13907900000004,435.20126633300015,434.1094647496668,,432.071281041,437.22938354100006,432.071281041,437.22938354100006,437.27019120800014,437.9202475000002,432.071281041,1,1,1.193923457999972,reldom2_fmri_s004p,001,2024-12-11_16h07.43.687,Where-B-Scan_AC,2022.2.5,None,
0,0.0,None,fixation,stimulus/audwhere_stim/blank_white.png,stimulus/audwhere_stim/blank_white.png,stimulus/viswhere_stim/blank_white.png,stimulus/viswhere_stim/blank_white.png,stimulus/audwhere_stim/blank_white.png,stimulus/audwhere_stim/blank_white.png,stimulus/audwhere_stim/blank_white.png,stimulus/audwhere_stim/blank_white.png,0.0,0.0,0.0,0.0,0,0.0,0,0.0,0,0.0,0,0.0,0,0.0,0.0,0,0.0,0,0.0,0,0.0,0,0.0,0,0.0,0,0.0,0,0.0,0,0.0,10,,,,,0,48,48,48,,,,,,,,,438.19617325000036,438.19617325000036,438.19617325000036,438.19617325000036,438.19617325000036,438.19617325000036,438.19617325000036,438.19617325000036,438.0948458743334,438.19617325000036,438.19617325000036,438.19617325000036,438.0948458743334,438.19617325000036,438.19617325000036,438.19617325000036,438.19617325000036,438.19617325000036,438.19617325000036,438.19617325000036,438.19617325000036,438.19617325000036,438.19617325000036,438.19617325000036,438.19617325000036,438.19617325000036,438.19617325000036,438.1448458743334,438.19617325000036,438.19617325000036,438.19617325000036,438.1448458743334,438.19617325000036,438.19617325000036,438.19617325000036,438.19617325000036,438.19617325000036,443.39721745800034,443.39721745800034,448.41947725,None,0,,reldom2_fmri_s004p,001,2024-12-11_16h07.43.687,Where-B-Scan_AC,2022.2.5,None,
37,First_Order,7.0,viswhere,stimulus/viswhere_stim/blank_white.png,stimulus/viswhere_stim/blank_white.png,stimulus/viswhere_stim/150-deg_dot-left_turquoise.png,stimulus/viswhere_stim/120-deg_dot-left_mediumslateblue.png,stimulus/viswhere_stim/blank_white.png,stimulus/viswhere_stim/line_box.png,stimulus/viswhere_stim/line_yes.png,stimulus/viswhere_stim/line_no.png,None,Line,None,Dot,2,0.0,0,5.125,0,5.125,0,5.125,0,0.0,0.625,0,0.0,0,0.0,1,0.5,1,2.125,0,0.0,0,0.0,0,0.0,0,0.0,0,,,,,0,49,49,49,,,,,,,,,448.41947725,448.41947725,448.41947725,448.41947725,448.41947725,448.41947725,448.41947725,448.41947725,448.398698666667,448.41947725,448.41947725,448.41947725,448.398698666667,448.41947725,448.41947725,448.41947725,450.5214674580002,454.47755000000006,448.41947725,448.41947725,453.5457214580001,448.9054265,449.91786579100017,450.5214674580002,451.5383192080003,448.41947725,448.41947725,448.4153653333337,448.41947725,448.41947725,448.41947725,448.4153653333337,448.41947725,448.41947725,453.5457214580001,448.41947725,453.5457214580001,453.6430445000001,454.2746605000002,448.41947725,2,1,0.9880548749997615,reldom2_fmri_s004p,001,2024-12-11_16h07.43.687,Where-B-Scan_AC,2022.2.5,None,
38,First_Order,7.0,viswhere,stimulus/viswhere_stim/blank_white.png,stimulus/viswhere_stim/blank_white.png,stimulus/viswhere_stim/120-deg_dot-left_mediumslateblue.png,stimulus/viswhere_stim/120-deg_dot-right_seagreen.png,stimulus/viswhere_stim/blank_white.png,stimulus/viswhere_stim/dot_box.png,stimulus/viswhere_stim/dot_yes.png,stimulus/viswhere_stim/dot_no.png,None,Dot,None,Line,2,0.0,0,5.125,0,5.125,0,5.125,0,0.0,0.625,0,0.0,0,0.0,1,0.5,1,2.125,0,0.0,0,0.0,0,0.0,0,0.0,0,,,,,0,50,50,50,,,,,,,,,454.47755000000006,454.47755000000006,454.47755000000006,454.47755000000006,454.47755000000006,454.47755000000006,454.47755000000006,454.47755000000006,454.4552621663336,454.47755000000006,454.47755000000006,454.47755000000006,454.4552621663336,454.47755000000006,454.47755000000006,454.47755000000006,456.5821970000002,460.54406291600026,454.47755000000006,454.47755000000006,459.61431500000026,454.9609742910002,455.96563741599994,456.5821970000002,457.5877947500003,454.47755000000006,454.47755000000006,454.4719288330003,454.47755000000006,454.47755000000006,454.47755000000006,454.4719288330003,454.47755000000006,454.47755000000006,459.61431500000026,454.47755000000006,459.61431500000026,459.698058083,460.32793137499993,454.47755000000006,2,1,1.2419098750001467,reldom2_fmri_s004p,001,2024-12-11_16h07.43.687,Where-B-Scan_AC,2022.2.5,None,
39,First_Order,7.0,viswhere,stimulus/viswhere_stim/blank_white.png,stimulus/viswhere_stim/blank_white.png,stimulus/viswhere_stim/60-deg_dot-right_salmon.png,stimulus/viswhere_stim/60-deg_dot-left_peru.png,stimulus/viswhere_stim/blank_white.png,stimulus/viswhere_stim/line_box.png,stimulus/viswhere_stim/line_yes.png,stimulus/viswhere_stim/line_no.png,None,Line,None,Line,1,0.0,0,5.125,0,5.125,0,5.125,0,0.0,0.625,0,0.0,0,0.0,1,0.5,1,2.125,0,0.0,0,0.0,0,0.0,0,0.0,0,,,,,0,51,51,51,,,,,,,,,460.54406291600026,460.54406291600026,460.54406291600026,460.54406291600026,460.54406291600026,460.54406291600026,460.54406291600026,460.54406291600026,460.5221936243336,460.54406291600026,460.54406291600026,460.54406291600026,460.5221936243336,460.54406291600026,460.54406291600026,460.54406291600026,462.65227137500005,466.60855200000015,460.54406291600026,460.54406291600026,465.6766642910002,461.0273620830003,462.0344271660001,462.65227137500005,463.66264812500003,460.54406291600026,460.54406291600026,460.5388602910003,460.54406291600026,460.54406291600026,460.54406291600026,460.5388602910003,460.54406291600026,460.54406291600026,465.6766642910002,460.54406291600026,465.6766642910002,465.77370500000006,466.4055802910002,460.54406291600026,1,1,1.3280051670003559,reldom2_fmri_s004p,001,2024-12-11_16h07.43.687,Where-B-Scan_AC,2022.2.5,None,
40,First_Order,7.0,viswhere,stimulus/viswhere_stim/blank_white.png,stimulus/viswhere_stim/blank_white.png,stimulus/viswhere_stim/60-deg_dot-right_slateblue.png,stimulus/viswhere_stim/90-deg_dot-right_royalblue.png,stimulus/viswhere_stim/blank_white.png,stimulus/viswhere_stim/dot_box.png,stimulus/viswhere_stim/dot_yes.png,stimulus/viswhere_stim/dot_no.png,None,Dot,None,Dot,1,0.0,0,5.125,0,5.125,0,5.125,0,0.0,0.625,0,0.0,0,0.0,1,0.5,1,2.125,0,0.0,0,0.0,0,0.0,0,0.0,0,,,,,0,52,52,52,,,,,,,,,466.60855200000015,466.60855200000015,466.60855200000015,466.60855200000015,466.60855200000015,466.60855200000015,466.60855200000015,466.60855200000015,466.5856955833336,466.60855200000015,466.60855200000015,466.60855200000015,466.5856955833336,466.60855200000015,466.60855200000015,466.60855200000015,468.71896700000025,472.75312325000004,466.60855200000015,466.60855200000015,471.74455991600007,467.09346570800017,468.1012027080001,468.71896700000025,469.73188604100005,466.60855200000015,466.60855200000015,466.6023622500002,466.60855200000015,466.60855200000015,466.60855200000015,466.6023622500002,466.60855200000015,466.60855200000015,471.74455991600007,466.60855200000015,471.74455991600007,471.82884616599995,472.45829329100025,466.60855200000015,1,1,0.6696466670000518,reldom2_fmri_s004p,001,2024-12-11_16h07.43.687,Where-B-Scan_AC,2022.2.5,None,
0,0.0,None,fixation,stimulus/audwhere_stim/blank_white.png,stimulus/audwhere_stim/blank_white.png,stimulus/viswhere_stim/blank_white.png,stimulus/viswhere_stim/blank_white.png,stimulus/audwhere_stim/blank_white.png,stimulus/audwhere_stim/blank_white.png,stimulus/audwhere_stim/blank_white.png,stimulus/audwhere_stim/blank_white.png,0.0,0.0,0.0,0.0,0,0.0,0,0.0,0,0.0,0,0.0,0,0.0,0.0,0,0.0,0,0.0,0,0.0,0,0.0,0,0.0,0,0.0,0,0.0,0,0.0,8,,,,,0,53,53,53,,,,,,,,,472.75312325000004,472.75312325000004,472.75312325000004,472.75312325000004,472.75312325000004,472.75312325000004,472.75312325000004,472.75312325000004,472.6529395413334,472.75312325000004,472.75312325000004,472.75312325000004,472.6529395413334,472.75312325000004,472.75312325000004,472.75312325000004,472.75312325000004,472.75312325000004,472.75312325000004,472.75312325000004,472.75312325000004,472.75312325000004,472.75312325000004,472.75312325000004,472.75312325000004,472.75312325000004,472.75312325000004,472.7029395413334,472.75312325000004,472.75312325000004,472.75312325000004,472.7029395413334,472.75312325000004,472.75312325000004,472.75312325000004,472.75312325000004,472.75312325000004,477.9702561660001,477.9702561660001,480.88434637499995,None,0,,reldom2_fmri_s004p,001,2024-12-11_16h07.43.687,Where-B-Scan_AC,2022.2.5,None,
41,Second_Order,7.0,viswhere,stimulus/viswhere_stim/60-deg_dot-right_seagreen.png,stimulus/viswhere_stim/30-deg_dot-right_mediumslateblue.png,stimulus/viswhere_stim/60-deg_dot-left_mediumslateblue.png,stimulus/viswhere_stim/150-deg_dot-left_salmon.png,stimulus/audwhere_stim/match_blank.png,stimulus/audwhere_stim/match_box.png,stimulus/audwhere_stim/match_yes.png,stimulus/audwhere_stim/match_no.png,1.0,Match,Dot,Dot,1,5.125,0,5.125,0,5.125,0,5.125,0,0.75,0.75,1,0.5,1,2.125,1,0.5,1,2.125,0,0.0,0,0.0,0,0.0,0,0.0,0,,,,,0,54,54,54,,,,,,,,,480.88434637499995,486.00433679100024,481.3646644160003,482.3627256660002,482.98740533299997,483.9837602910002,480.88434637499995,480.88434637499995,480.8967187913337,480.88434637499995,480.88434637499995,480.88434637499995,480.8967187913337,480.88434637499995,486.00433679100024,486.7880970000001,488.874773,492.74094216599997,486.7880970000001,486.7880970000001,491.91193041600036,487.2558139580001,488.27174433300024,488.874773,489.89314466600035,486.7880970000001,486.7880970000001,486.7733358743335,486.7880970000001,486.7880970000001,486.7880970000001,486.7733358743335,486.7880970000001,486.7880970000001,491.91193041600036,486.7880970000001,491.91193041600036,491.99827891600034,492.77867029100025,486.7880970000001,1,1,1.3428447080000296,reldom2_fmri_s004p,001,2024-12-11_16h07.43.687,Where-B-Scan_AC,2022.2.5,None,
42,Second_Order,7.0,viswhere,stimulus/viswhere_stim/90-deg_dot-right_goldenrod.png,stimulus/viswhere_stim/120-deg_dot-right_mediumslateblue.png,stimulus/viswhere_stim/60-deg_dot-right_peru.png,stimulus/viswhere_stim/60-deg_dot-left_mediumslateblue.png,stimulus/audwhere_stim/match_blank.png,stimulus/audwhere_stim/match_box.png,stimulus/audwhere_stim/match_yes.png,stimulus/audwhere_stim/match_no.png,2.0,Match,Dot,Line,2,5.125,0,5.125,0,5.125,0,5.125,0,0.625,0.625,1,0.5,1,2.125,1,0.5,1,2.125,0,0.0,0,0.0,0,0.0,0,0.0,0,,,,,0,55,55,55,,,,,,,,,492.77867029100025,497.89905258299996,493.25879616600014,494.25714125000013,494.88023475,495.87759437500017,492.77867029100025,492.77867029100025,492.790942166,492.77867029100025,492.77867029100025,492.77867029100025,492.790942166,492.77867029100025,497.89905258299996,498.55931279100014,500.64779070800023,504.69152012500035,498.55931279100014,498.55931279100014,503.6944853750001,499.0224399580002,500.0302825829999,500.64779070800023,501.65793487500014,498.55931279100014,498.55931279100014,498.5503636243334,498.55931279100014,498.55931279100014,498.55931279100014,498.5503636243334,498.55931279100014,498.55931279100014,503.6944853750001,498.55931279100014,503.6944853750001,503.7781264580003,504.40997237500005,498.55931279100014,2,1,1.05136312500008,reldom2_fmri_s004p,001,2024-12-11_16h07.43.687,Where-B-Scan_AC,2022.2.5,None,
0,0.0,None,fixation,stimulus/audwhere_stim/blank_white.png,stimulus/audwhere_stim/blank_white.png,stimulus/viswhere_stim/blank_white.png,stimulus/viswhere_stim/blank_white.png,stimulus/audwhere_stim/blank_white.png,stimulus/audwhere_stim/blank_white.png,stimulus/audwhere_stim/blank_white.png,stimulus/audwhere_stim/blank_white.png,0.0,0.0,0.0,0.0,0,0.0,0,0.0,0,0.0,0,0.0,0,0.0,0.0,0,0.0,0,0.0,0,0.0,0,0.0,0,0.0,0,0.0,0,0.0,0,0.0,8,,,,,0,56,56,56,,,,,,,,,504.69152012500035,504.69152012500035,504.69152012500035,504.69152012500035,504.69152012500035,504.69152012500035,504.69152012500035,504.69152012500035,504.59017633333343,504.69152012500035,504.69152012500035,504.69152012500035,504.59017633333343,504.69152012500035,504.69152012500035,504.69152012500035,504.69152012500035,504.69152012500035,504.69152012500035,504.69152012500035,504.69152012500035,504.69152012500035,504.69152012500035,504.69152012500035,504.69152012500035,504.69152012500035,504.69152012500035,504.64017633333344,504.69152012500035,504.69152012500035,504.69152012500035,504.64017633333344,504.69152012500035,504.69152012500035,504.69152012500035,504.69152012500035,504.69152012500035,509.9228938750002,509.9228938750002,512.8942067080002,None,0,,reldom2_fmri_s004p,001,2024-12-11_16h07.43.687,Where-B-Scan_AC,2022.2.5,None,
43,First_Order,8.0,viswhere,stimulus/viswhere_stim/blank_white.png,stimulus/viswhere_stim/blank_white.png,stimulus/viswhere_stim/120-deg_dot-left_lightsseagreen.png,stimulus/viswhere_stim/120-deg_dot-right_royalblue.png,stimulus/viswhere_stim/blank_white.png,stimulus/viswhere_stim/line_box.png,stimulus/viswhere_stim/line_yes.png,stimulus/viswhere_stim/line_no.png,None,Line,None,Line,1,0.0,0,5.125,0,5.125,0,5.125,0,0.0,0.625,0,0.0,0,0.0,1,0.5,1,2.125,0,0.0,0,0.0,0,0.0,0,0.0,0,,,,,0,57,57,57,,,,,,,,,512.8942067080002,512.8942067080002,512.8942067080002,512.8942067080002,512.8942067080002,512.8942067080002,512.8942067080002,512.8942067080002,512.8720761246669,512.8942067080002,512.8942067080002,512.8942067080002,512.8720761246669,512.8942067080002,512.8942067080002,512.8942067080002,514.9996337910002,518.959403458,512.8942067080002,512.8942067080002,518.0199387500002,513.3774289580001,514.383895125,514.9996337910002,516.0109264160001,512.8942067080002,512.8942067080002,512.8887427913336,512.8942067080002,512.8942067080002,512.8942067080002,512.8887427913336,512.8942067080002,512.8942067080002,518.0199387500002,512.8942067080002,518.0199387500002,518.1158357910003,518.742869708,512.8942067080002,1,1,0.9209495420000167,reldom2_fmri_s004p,001,2024-12-11_16h07.43.687,Where-B-Scan_AC,2022.2.5,None,
44,First_Order,8.0,viswhere,stimulus/viswhere_stim/blank_white.png,stimulus/viswhere_stim/blank_white.png,stimulus/viswhere_stim/60-deg_dot-right_peru.png,stimulus/viswhere_stim/90-deg_dot-right_turquoise.png,stimulus/viswhere_stim/blank_white.png,stimulus/viswhere_stim/dot_box.png,stimulus/viswhere_stim/dot_yes.png,stimulus/viswhere_stim/dot_no.png,None,Dot,None,Dot,1,0.0,0,5.125,0,5.125,0,5.125,0,0.0,0.625,0,0.0,0,0.0,1,0.5,1,2.125,0,0.0,0,0.0,0,0.0,0,0.0,0,,,,,0,58,58,58,,,,,,,,,518.959403458,518.959403458,518.959403458,518.959403458,518.959403458,518.959403458,518.959403458,518.959403458,518.9371231663334,518.959403458,518.959403458,518.959403458,518.9371231663334,518.959403458,518.959403458,518.959403458,521.068556958,525.0289545,518.959403458,518.959403458,524.0962012499999,519.4438318330003,520.450483958,521.068556958,522.0829489580001,518.959403458,518.959403458,518.9537898330001,518.959403458,518.959403458,518.959403458,518.9537898330001,518.959403458,518.959403458,524.0962012499999,518.959403458,524.0962012499999,524.1797536660001,524.8068618750003,518.959403458,1,1,0.8221994580003411,reldom2_fmri_s004p,001,2024-12-11_16h07.43.687,Where-B-Scan_AC,2022.2.5,None,
45,First_Order,8.0,viswhere,stimulus/viswhere_stim/blank_white.png,stimulus/viswhere_stim/blank_white.png,stimulus/viswhere_stim/150-deg_dot-right_lightsseagreen.png,stimulus/viswhere_stim/150-deg_dot-left_royalblue.png,stimulus/viswhere_stim/blank_white.png,stimulus/viswhere_stim/dot_box.png,stimulus/viswhere_stim/dot_yes.png,stimulus/viswhere_stim/dot_no.png,None,Dot,None,Line,2,0.0,0,5.125,0,5.125,0,5.125,0,0.0,0.625,0,0.0,0,0.0,1,0.5,1,2.125,0,0.0,0,0.0,0,0.0,0,0.0,0,,,,,0,59,59,59,,,,,,,,,525.0289545,525.0289545,525.0289545,525.0289545,525.0289545,525.0289545,525.0289545,525.0289545,525.0014355833335,525.0289545,525.0289545,525.0289545,525.0014355833335,525.0289545,525.0289545,525.0289545,527.14086125,531.0920716250002,525.0289545,525.0289545,530.162079958,525.4986544160001,526.5168021660002,527.14086125,528.1440976250001,525.0289545,525.0289545,525.0181022500002,525.0289545,525.0289545,525.0289545,525.0181022500002,525.0289545,525.0289545,530.162079958,525.0289545,530.162079958,530.2476914160002,530.8739205410002,525.0289545,2,1,1.351267750000261,reldom2_fmri_s004p,001,2024-12-11_16h07.43.687,Where-B-Scan_AC,2022.2.5,None,
46,First_Order,8.0,viswhere,stimulus/viswhere_stim/blank_white.png,stimulus/viswhere_stim/blank_white.png,stimulus/viswhere_stim/30-deg_dot-left_salmon.png,stimulus/viswhere_stim/150-deg_dot-left_turquoise.png,stimulus/viswhere_stim/blank_white.png,stimulus/viswhere_stim/line_box.png,stimulus/viswhere_stim/line_yes.png,stimulus/viswhere_stim/line_no.png,None,Line,None,Dot,2,0.0,0,5.125,0,5.125,0,5.125,0,0.0,0.625,0,0.0,0,0.0,1,0.5,1,2.125,0,0.0,0,0.0,0,0.0,0,0.0,0,,,,,0,60,60,60,,,,,,,,,531.0920716250002,531.0920716250002,531.0920716250002,531.0920716250002,531.0920716250002,531.0920716250002,531.0920716250002,531.0920716250002,531.0687324583336,531.0920716250002,531.0920716250002,531.0920716250002,531.0687324583336,531.0920716250002,531.0920716250002,531.0920716250002,533.1999756250002,537.235762458,531.0920716250002,531.0920716250002,536.2157912500002,531.5811654580002,532.5970950000001,533.1999756250002,534.220489416,531.0920716250002,531.0920716250002,531.0853991250002,531.0920716250002,531.0920716250002,531.0920716250002,531.0853991250002,531.0920716250002,531.0920716250002,536.2157912500002,531.0920716250002,536.2157912500002,536.3142540000003,536.9405945000003,531.0920716250002,2,1,1.4081882909999877,reldom2_fmri_s004p,001,2024-12-11_16h07.43.687,Where-B-Scan_AC,2022.2.5,None,
0,0.0,None,fixation,stimulus/audwhere_stim/blank_white.png,stimulus/audwhere_stim/blank_white.png,stimulus/viswhere_stim/blank_white.png,stimulus/viswhere_stim/blank_white.png,stimulus/audwhere_stim/blank_white.png,stimulus/audwhere_stim/blank_white.png,stimulus/audwhere_stim/blank_white.png,stimulus/audwhere_stim/blank_white.png,0.0,0.0,0.0,0.0,0,0.0,0,0.0,0,0.0,0,0.0,0,0.0,0.0,0,0.0,0,0.0,0,0.0,0,0.0,0,0.0,0,0.0,0,0.0,0,0.0,9,,,,,0,61,61,61,,,,,,,,,537.235762458,537.235762458,537.235762458,537.235762458,537.235762458,537.235762458,537.235762458,537.235762458,537.1350273333336,537.235762458,537.235762458,537.235762458,537.1350273333336,537.235762458,537.235762458,537.235762458,537.235762458,537.235762458,537.235762458,537.235762458,537.235762458,537.235762458,537.235762458,537.235762458,537.235762458,537.235762458,537.235762458,537.1850273333336,537.235762458,537.235762458,537.235762458,537.1850273333336,537.235762458,537.235762458,537.235762458,537.235762458,537.235762458,542.415655541,542.415655541,546.3657310410003,None,0,,reldom2_fmri_s004p,001,2024-12-11_16h07.43.687,Where-B-Scan_AC,2022.2.5,None,
47,Second_Order,8.0,viswhere,stimulus/viswhere_stim/90-deg_dot-left_lightsseagreen.png,stimulus/viswhere_stim/120-deg_dot-left_royalblue.png,stimulus/viswhere_stim/30-deg_dot-right_mediumslateblue.png,stimulus/viswhere_stim/60-deg_dot-right_lightsseagreen.png,stimulus/audwhere_stim/match_blank.png,stimulus/audwhere_stim/match_box.png,stimulus/audwhere_stim/match_yes.png,stimulus/audwhere_stim/match_no.png,1.0,Match,Dot,Dot,1,5.125,0,5.125,0,5.125,0,5.125,0,0.75,0.75,1,0.5,1,2.125,1,0.5,1,2.125,0,0.0,0,0.0,0,0.0,0,0.0,0,,,,,0,62,62,62,,,,,,,,,546.3657310410003,551.4892140830002,546.8491677080001,547.847265333,548.469891875,549.4674110000001,546.3657310410003,546.3657310410003,546.3782216243336,546.3657310410003,546.3657310410003,546.3657310410003,546.3782216243336,546.3657310410003,551.4892140830002,552.2690801250001,554.3673348330003,558.2550274580003,552.2690801250001,552.2690801250001,557.4065015830001,552.7348851250003,553.7451677080003,554.3673348330003,555.3832122500003,552.2690801250001,552.2690801250001,552.2573446663337,552.2690801250001,552.2690801250001,552.2690801250001,552.2573446663337,552.2690801250001,552.2690801250001,557.4065015830001,552.2690801250001,557.4065015830001,557.4770157080002,558.2550274580003,552.2690801250001,1,1,0.7582876249998662,reldom2_fmri_s004p,001,2024-12-11_16h07.43.687,Where-B-Scan_AC,2022.2.5,None,
48,Second_Order,8.0,viswhere,stimulus/viswhere_stim/60-deg_dot-left_seagreen.png,stimulus/viswhere_stim/90-deg_dot-left_peru.png,stimulus/viswhere_stim/30-deg_dot-right_turquoise.png,stimulus/viswhere_stim/30-deg_dot-left_lightsseagreen.png,stimulus/audwhere_stim/match_blank.png,stimulus/audwhere_stim/match_box.png,stimulus/audwhere_stim/match_yes.png,stimulus/audwhere_stim/match_no.png,2.0,Match,Dot,Line,2,5.125,0,5.125,0,5.125,0,5.125,0,0.625,0.625,1,0.5,1,2.125,1,0.5,1,2.125,0,0.0,0,0.0,0,0.0,0,0.0,0,,,,,0,63,63,63,,,,,,,,,558.2550274580003,563.371561083,558.7394453750003,559.7282896659999,560.365170041,561.361833208,558.2550274580003,558.2550274580003,558.267467291,558.2550274580003,558.2550274580003,558.2550274580003,558.267467291,558.2550274580003,563.371561083,564.0235575000002,566.1179775410001,570.1548303750001,564.0235575000002,564.0235575000002,569.156213666,564.4881972500002,565.4969859160001,566.1179775410001,567.1339532500001,564.0235575000002,564.0235575000002,564.0178799993332,564.0235575000002,564.0235575000002,564.0235575000002,564.0178799993332,564.0235575000002,564.0235575000002,569.156213666,564.0235575000002,569.156213666,569.2403152500001,569.8714479580003,564.0235575000002,2,1,0.784527541999978,reldom2_fmri_s004p,001,2024-12-11_16h07.43.687,Where-B-Scan_AC,2022.2.5,None,
0,0.0,None,fixation,stimulus/audwhere_stim/blank_white.png,stimulus/audwhere_stim/blank_white.png,stimulus/viswhere_stim/blank_white.png,stimulus/viswhere_stim/blank_white.png,stimulus/audwhere_stim/blank_white.png,stimulus/audwhere_stim/blank_white.png,stimulus/audwhere_stim/blank_white.png,stimulus/audwhere_stim/blank_white.png,0.0,0.0,0.0,0.0,0,0.0,0,0.0,0,0.0,0,0.0,0,0.0,0.0,0,0.0,0,0.0,0,0.0,0,0.0,0,0.0,0,0.0,0,0.0,0,0.0,16,,,,,0,64,64,64,,,,,,,,,570.1548303750001,570.1548303750001,570.1548303750001,570.1548303750001,570.1548303750001,570.1548303750001,570.1548303750001,570.1548303750001,570.0531267913333,570.1548303750001,570.1548303750001,570.1548303750001,570.0531267913333,570.1548303750001,570.1548303750001,570.1548303750001,570.1548303750001,570.1548303750001,570.1548303750001,570.1548303750001,570.1548303750001,570.1548303750001,570.1548303750001,570.1548303750001,570.1548303750001,570.1548303750001,570.1548303750001,570.1031267913332,570.1548303750001,570.1548303750001,570.1548303750001,570.1031267913332,570.1548303750001,570.1548303750001,570.1548303750001,570.1548303750001,570.1548303750001,575.3472213330001,575.3472213330001,586.3222840830003,None,0,,reldom2_fmri_s004p,001,2024-12-11_16h07.43.687,Where-B-Scan_AC,2022.2.5,None,
