Trial,Order,Block,Type,Stimuli_File1,Stimuli_File2,Stimuli_File3,Stimuli_File4,Cue_File1,Cue_File2,Response_File_Yes,Response_File_No,Match,Cue_Dimension,Pair1_Dimension,Pair2_Dimension,Key,Cue1_Duration,Cue1_Onset,Cue2_Duration,Cue2_Onset,ResponseYes_Duration,ResponseYes_Onset,ResponseNo_Duration,ResponseNo_Onset,ITI_Within,ITI_Between,Image1_Duration,Image1_Onset,Image2_Duration,Image2_Onset,Image3_Duration,Image3_Onset,Image4_Duration,Image4_Onset,Sound1_Duration,Sound1_Onset,Sound2_Duration,Sound2_Onset,Sound3_Duration,Sound3_Onset,Sound4_Duration,Sound4_Onset,Fixation_Duration,trials_2.thisRepN,trials_2.thisTrialN,trials_2.thisN,trials_2.thisIndex,trials.thisRepN,trials.thisTrialN,trials.thisN,trials.thisIndex,text_start.started,key_resp_start.started,key_resp_start.keys,key_resp_start.rt,text2.started,key_resp_2.started,key_resp_2.keys,key_resp_2.rt,cue_file1.started,cue_file1.stopped,image_1.started,image_1.stopped,image_2.started,image_2.stopped,sound_icon1.started,sound_icon1.stopped,sound_1.started,sound_1.stopped,sound_icon2.started,sound_icon2.stopped,sound_2.started,sound_2.stopped,image_blank_1.started,image_blank_1.stopped,key_press.started,key_press.stopped,fixation_text.started,cue_file2.started,cue_file2.stopped,image_3.started,image_3.stopped,image_4.started,image_4.stopped,sound_icon3.started,sound_icon3.stopped,sound_3.started,sound_3.stopped,sound_icon4.started,sound_icon4.stopped,sound_4.started,sound_4.stopped,response_yes.started,response_yes.stopped,response_no.started,response_no.stopped,iti_blank.started,iti_blank.stopped,fixation_text.stopped,key_press.keys,key_press.corr,key_press.rt,participant,session,date,expName,psychopyVersion,frameRate,
,,,,,,,,,,,,,,,,,,,,,,,,,,,,,,,,,,,,,,,,,,,,,,,,,,,,8.864185625000573,8.864185625000573,2,1.3826663749996442,,,,,,,,,,,,,,,,,,,,,,,,,,,,,,,,,,,,,,,,,,,,,,,,reldom2_fmri_s004p,001,2024-12-11_16h43.36.064,What-B-Scan_AC,2022.2.5,None,
,,,,,,,,,,,,,,,,,,,,,,,,,,,,,,,,,,,,,,,,,,,,0,0,0,0,,,,,,,,,10.269963167000242,10.269963167000242,5,11.206357123999624,,,,,,,,,,,,,,,,,,,,,,,,,,,,,,,,,,,,,,,,,,,,reldom2_fmri_s004p,001,2024-12-11_16h43.36.064,What-B-Scan_AC,2022.2.5,None,
,,,,,,,,,,,,,,,,,,,,,,,,,,,,,,,,,,,,,,,,,,,,1,0,1,0,,,,,,,,,21.49091850000059,21.49091850000059,5,1.9860760409992508,,,,,,,,,,,,,,,,,,,,,,,,,,,,,,,,,,,,,,,,,,,,reldom2_fmri_s004p,001,2024-12-11_16h43.36.064,What-B-Scan_AC,2022.2.5,None,
,,,,,,,,,,,,,,,,,,,,,,,,,,,,,,,,,,,,,,,,,,,,2,0,2,0,,,,,,,,,23.4970079170007,23.4970079170007,5,1.9815345409988367,,,,,,,,,,,,,,,,,,,,,,,,,,,,,,,,,,,,,,,,,,,,reldom2_fmri_s004p,001,2024-12-11_16h43.36.064,What-B-Scan_AC,2022.2.5,None,
,,,,,,,,,,,,,,,,,,,,,,,,,,,,,,,,,,,,,,,,,,,,3,0,3,0,,,,,,,,,25.49290312500034,25.49290312500034,5,1.984078249999584,,,,,,,,,,,,,,,,,,,,,,,,,,,,,,,,,,,,,,,,,,,,reldom2_fmri_s004p,001,2024-12-11_16h43.36.064,What-B-Scan_AC,2022.2.5,None,
0,0.0,None,fixation,stimulus/viswhat_stim/blank_white.png,stimulus/viswhat_stim/blank_white.png,stimulus/audwhat_stim/blank_white.png,stimulus/audwhat_stim/blank_white.png,stimulus/viswhat_stim/blank_white.png,stimulus/viswhat_stim/blank_white.png,stimulus/viswhat_stim/blank_white.png,stimulus/viswhat_stim/blank_white.png,0.0,0.0,0.0,0.0,0,0.0,0,0.0,0,0.0,0,0.0,0,0.0,0.0,0,0.0,0,0.0,0,0.0,0,0.0,0,0.0,0,0.0,0,0.0,0,0.0,16,,,,,0,0,0,0,,,,,,,,,27.687603250000393,27.687603250000393,27.687603250000393,27.687603250000393,27.687603250000393,27.687603250000393,27.687603250000393,27.687603250000393,27.580806833000313,27.687603250000393,27.687603250000393,27.687603250000393,27.580806833000313,27.687603250000393,27.687603250000393,27.687603250000393,27.687603250000393,27.687603250000393,27.687603250000393,27.687603250000393,27.687603250000393,27.687603250000393,27.687603250000393,27.687603250000393,27.687603250000393,27.687603250000393,27.687603250000393,27.64747349966698,27.687603250000393,27.687603250000393,27.687603250000393,27.64747349966698,27.687603250000393,27.687603250000393,27.687603250000393,27.687603250000393,27.687603250000393,32.899353125000744,32.899353125000744,44.13692975000049,None,0,,reldom2_fmri_s004p,001,2024-12-11_16h43.36.064,What-B-Scan_AC,2022.2.5,None,
1,First_Order,1.0,viswhat,stimulus/viswhat_stim/blank_white.png,stimulus/viswhat_stim/blank_white.png,stimulus/viswhat_stim/water_vehicle-pirateship.png,stimulus/viswhat_stim/water_animal-lobster.png,stimulus/viswhat_stim/blank_white.png,stimulus/viswhat_stim/location_box.png,stimulus/viswhat_stim/location_yes.png,stimulus/viswhat_stim/location_no.png,None,Location,None,Location,1,0.0,0,5.125,0,5.125,0,5.125,0,0.0,0.625,0,0.0,0,0.0,1,0.5,1,2.125,0,0.0,0,0.0,0,0.0,0,0.0,0,,,,,0,1,1,1,,,,,,,,,44.13692975000049,44.13692975000049,44.13692975000049,44.13692975000049,44.13692975000049,44.13692975000049,44.13692975000049,44.13692975000049,43.84965933300045,44.13692975000049,44.13692975000049,44.13692975000049,43.84965933300045,44.13692975000049,44.13692975000049,44.13692975000049,46.1465790000002,,44.13692975000049,44.13692975000049,49.45745000000079,44.566061292000086,45.715584542000215,46.1465790000002,47.295711792000475,44.13692975000049,44.13692975000049,43.99965933300045,44.13692975000049,44.13692975000049,44.13692975000049,43.99965933300045,44.13692975000049,44.13692975000049,49.45745000000079,44.13692975000049,49.45745000000079,49.319706333000795,,44.13692975000049,1,1,1.138941457999863,reldom2_fmri_s004p,001,2024-12-11_16h43.36.064,What-B-Scan_AC,2022.2.5,None,
2,First_Order,1.0,viswhat,stimulus/viswhat_stim/blank_white.png,stimulus/viswhat_stim/blank_white.png,stimulus/viswhat_stim/land_vehicle-firetruck.png,stimulus/viswhat_stim/water_vehicle-jetski.png,stimulus/viswhat_stim/blank_white.png,stimulus/viswhat_stim/location_box.png,stimulus/viswhat_stim/location_yes.png,stimulus/viswhat_stim/location_no.png,None,Location,None,Type,2,0.0,0,5.125,0,5.125,0,5.125,0,0.0,0.625,0,0.0,0,0.0,1,0.5,1,2.125,0,0.0,0,0.0,0,0.0,0,0.0,0,,,,,0,2,2,2,,,,,,,,,50.10513962500045,50.10513962500045,50.10513962500045,50.10513962500045,50.10513962500045,50.10513962500045,50.10513962500045,50.10513962500045,50.07185550033349,50.10513962500045,50.10513962500045,50.10513962500045,50.07185550033349,50.10513962500045,50.10513962500045,50.10513962500045,52.21316066700001,56.2552565420001,50.10513962500045,50.10513962500045,55.24265729200033,50.569770958000845,51.60078670800067,52.21316066700001,53.22487050000018,50.10513962500045,50.10513962500045,50.08852216700016,50.10513962500045,50.10513962500045,50.10513962500045,50.08852216700016,50.10513962500045,50.10513962500045,55.24265729200033,50.10513962500045,55.24265729200033,55.31806391700047,55.944831625000006,50.10513962500045,2,1,1.1264204989993232,reldom2_fmri_s004p,001,2024-12-11_16h43.36.064,What-B-Scan_AC,2022.2.5,None,
3,First_Order,1.0,viswhat,stimulus/viswhat_stim/blank_white.png,stimulus/viswhat_stim/blank_white.png,stimulus/viswhat_stim/land_animal-moose.png,stimulus/viswhat_stim/water_animal-jellyfish.png,stimulus/viswhat_stim/blank_white.png,stimulus/viswhat_stim/type_box.png,stimulus/viswhat_stim/type_yes.png,stimulus/viswhat_stim/type_no.png,None,Type,None,Type,1,0.0,0,5.125,0,5.125,0,5.125,0,0.0,0.625,0,0.0,0,0.0,1,0.5,1,2.125,0,0.0,0,0.0,0,0.0,0,0.0,0,,,,,0,3,3,3,,,,,,,,,56.2552565420001,56.2552565420001,56.2552565420001,56.2552565420001,56.2552565420001,56.2552565420001,56.2552565420001,56.2552565420001,56.15809520800085,56.2552565420001,56.2552565420001,56.2552565420001,56.15809520800085,56.2552565420001,56.2552565420001,56.2552565420001,58.335999249999986,62.348493375000544,56.2552565420001,56.2552565420001,61.42849216700051,56.73088608300077,57.80245954200018,58.335999249999986,59.40486308300024,56.2552565420001,56.2552565420001,56.20809520800085,56.2552565420001,56.2552565420001,56.2552565420001,56.20809520800085,56.2552565420001,56.2552565420001,61.42849216700051,56.2552565420001,61.42849216700051,61.48418745800063,62.348493375000544,56.2552565420001,1,1,1.9071234169996387,reldom2_fmri_s004p,001,2024-12-11_16h43.36.064,What-B-Scan_AC,2022.2.5,None,
4,First_Order,1.0,viswhat,stimulus/viswhat_stim/blank_white.png,stimulus/viswhat_stim/blank_white.png,stimulus/viswhat_stim/land_animal-tiger.png,stimulus/viswhat_stim/land_vehicle-rv.png,stimulus/viswhat_stim/blank_white.png,stimulus/viswhat_stim/type_box.png,stimulus/viswhat_stim/type_yes.png,stimulus/viswhat_stim/type_no.png,None,Type,None,Location,2,0.0,0,5.125,0,5.125,0,5.125,0,0.0,0.625,0,0.0,0,0.0,1,0.5,1,2.125,0,0.0,0,0.0,0,0.0,0,0.0,0,,,,,0,4,4,4,,,,,,,,,62.348493375000544,62.348493375000544,62.348493375000544,62.348493375000544,62.348493375000544,62.348493375000544,62.348493375000544,62.348493375000544,62.29968354166673,62.348493375000544,62.348493375000544,62.348493375000544,62.29968354166673,62.348493375000544,62.348493375000544,62.348493375000544,64.43458029200065,68.4914843330007,62.348493375000544,62.348493375000544,67.4956971670008,62.836569000000054,63.880197875000704,64.43458029200065,65.47923741700015,62.348493375000544,62.348493375000544,62.3163502083334,62.348493375000544,62.348493375000544,62.348493375000544,62.3163502083334,62.348493375000544,62.348493375000544,67.4956971670008,62.348493375000544,67.4956971670008,67.55477650000012,68.19455812500019,62.348493375000544,2,1,1.3048920419996648,reldom2_fmri_s004p,001,2024-12-11_16h43.36.064,What-B-Scan_AC,2022.2.5,None,
0,0.0,None,fixation,stimulus/viswhat_stim/blank_white.png,stimulus/viswhat_stim/blank_white.png,stimulus/audwhat_stim/blank_white.png,stimulus/audwhat_stim/blank_white.png,stimulus/viswhat_stim/blank_white.png,stimulus/viswhat_stim/blank_white.png,stimulus/viswhat_stim/blank_white.png,stimulus/viswhat_stim/blank_white.png,0.0,0.0,0.0,0.0,0,0.0,0,0.0,0,0.0,0,0.0,0,0.0,0.0,0,0.0,0,0.0,0,0.0,0,0.0,0,0.0,0,0.0,0,0.0,0,0.0,9,,,,,0,5,5,5,,,,,,,,,68.4914843330007,68.4914843330007,68.4914843330007,68.4914843330007,68.4914843330007,68.4914843330007,68.4914843330007,68.4914843330007,68.39820079166735,68.4914843330007,68.4914843330007,68.4914843330007,68.39820079166735,68.4914843330007,68.4914843330007,68.4914843330007,68.4914843330007,68.4914843330007,68.4914843330007,68.4914843330007,68.4914843330007,68.4914843330007,68.4914843330007,68.4914843330007,68.4914843330007,68.4914843330007,68.4914843330007,68.44820079166736,68.4914843330007,68.4914843330007,68.4914843330007,68.44820079166736,68.4914843330007,68.4914843330007,68.4914843330007,68.4914843330007,68.4914843330007,73.68999125000028,73.68999125000028,77.64405808300035,None,0,,reldom2_fmri_s004p,001,2024-12-11_16h43.36.064,What-B-Scan_AC,2022.2.5,None,
5,Second_Order,1.0,viswhat,stimulus/viswhat_stim/land_animal-bunny.png,stimulus/viswhat_stim/land_vehicle-motorcycle.png,stimulus/viswhat_stim/water_animal-octopus.png,stimulus/viswhat_stim/land_animal-fox.png,stimulus/viswhat_stim/match_blank.png,stimulus/viswhat_stim/match_box.png,stimulus/viswhat_stim/match_yes.png,stimulus/viswhat_stim/match_no.png,2.0,Match,Location,Type,2,5.125,0,5.125,0,5.125,0,5.125,0,0.75,0.75,1,0.5,1,2.125,1,0.5,1,2.125,0,0.0,0,0.0,0,0.0,0,0.0,0,,,,,0,6,6,6,,,,,,,,,77.64405808300035,82.76324987500084,78.0840534580002,79.0830581250002,79.70690750000085,80.70352758300032,77.64405808300035,77.64405808300035,77.65475704166754,77.64405808300035,77.64405808300035,77.64405808300035,77.65475704166754,77.64405808300035,82.76324987500084,83.56290650000028,85.66231891700045,89.55175583300024,83.56290650000028,83.56290650000028,88.71461845800059,84.03130216700083,85.06587404200036,85.66231891700045,86.70345458300017,83.56290650000028,83.56290650000028,83.53002137533397,83.56290650000028,83.56290650000028,83.56290650000028,83.53002137533397,83.56290650000028,83.56290650000028,88.71461845800059,83.56290650000028,88.71461845800059,88.76600995800072,,83.56290650000028,2,1,0.9627717909997955,reldom2_fmri_s004p,001,2024-12-11_16h43.36.064,What-B-Scan_AC,2022.2.5,None,
6,Second_Order,1.0,viswhat,stimulus/viswhat_stim/land_vehicle-tank.png,stimulus/viswhat_stim/land_animal-wolf.png,stimulus/viswhat_stim/water_vehicle-motorboatraft.png,stimulus/viswhat_stim/water_animal-squid.png,stimulus/viswhat_stim/match_blank.png,stimulus/viswhat_stim/match_box.png,stimulus/viswhat_stim/match_yes.png,stimulus/viswhat_stim/match_no.png,1.0,Match,Location,Location,1,5.125,0,5.125,0,5.125,0,5.125,0,0.625,0.625,1,0.5,1,2.125,1,0.5,1,2.125,0,0.0,0,0.0,0,0.0,0,0.0,0,,,,,0,7,7,7,,,,,,,,,89.55175583300024,94.67359950000082,90.02872995800044,91.02690100000018,91.65036937500008,92.64723429200058,89.55175583300024,89.55175583300024,89.55341954166676,89.55175583300024,89.55175583300024,89.55175583300024,89.55341954166676,89.55175583300024,94.67359950000082,95.3518263750002,97.42881862500053,101.48987729200053,95.3518263750002,95.3518263750002,100.51267916699999,95.82589879200077,96.86492795800041,97.42881862500053,98.444968625,95.3518263750002,95.3518263750002,95.33700525000022,95.3518263750002,95.3518263750002,95.3518263750002,95.33700525000022,95.3518263750002,95.3518263750002,100.51267916699999,95.3518263750002,100.51267916699999,100.56140354200033,101.2129394170006,95.3518263750002,2,0,1.549831749999612,reldom2_fmri_s004p,001,2024-12-11_16h43.36.064,What-B-Scan_AC,2022.2.5,None,
0,0.0,None,fixation,stimulus/viswhat_stim/blank_white.png,stimulus/viswhat_stim/blank_white.png,stimulus/audwhat_stim/blank_white.png,stimulus/audwhat_stim/blank_white.png,stimulus/viswhat_stim/blank_white.png,stimulus/viswhat_stim/blank_white.png,stimulus/viswhat_stim/blank_white.png,stimulus/viswhat_stim/blank_white.png,0.0,0.0,0.0,0.0,0,0.0,0,0.0,0,0.0,0,0.0,0,0.0,0.0,0,0.0,0,0.0,0,0.0,0,0.0,0,0.0,0,0.0,0,0.0,0,0.0,9,,,,,0,8,8,8,,,,,,,,,101.48987729200053,101.48987729200053,101.48987729200053,101.48987729200053,101.48987729200053,101.48987729200053,101.48987729200053,101.48987729200053,101.38503816700049,101.48987729200053,101.48987729200053,101.48987729200053,101.38503816700049,101.48987729200053,101.48987729200053,101.48987729200053,101.48987729200053,101.48987729200053,101.48987729200053,101.48987729200053,101.48987729200053,101.48987729200053,101.48987729200053,101.48987729200053,101.48987729200053,101.48987729200053,101.48987729200053,101.45170483366716,101.48987729200053,101.48987729200053,101.48987729200053,101.45170483366716,101.48987729200053,101.48987729200053,101.48987729200053,101.48987729200053,101.48987729200053,106.71703970800081,106.71703970800081,110.92794120800045,None,0,,reldom2_fmri_s004p,001,2024-12-11_16h43.36.064,What-B-Scan_AC,2022.2.5,None,
7,First_Order,2.0,viswhat,stimulus/viswhat_stim/blank_white.png,stimulus/viswhat_stim/blank_white.png,stimulus/viswhat_stim/water_animal-lobster.png,stimulus/viswhat_stim/water_vehicle-canoe.png,stimulus/viswhat_stim/blank_white.png,stimulus/viswhat_stim/location_box.png,stimulus/viswhat_stim/location_yes.png,stimulus/viswhat_stim/location_no.png,None,Location,None,Location,1,0.0,0,5.125,0,5.125,0,5.125,0,0.0,0.625,0,0.0,0,0.0,1,0.5,1,2.125,0,0.0,0,0.0,0,0.0,0,0.0,0,,,,,0,9,9,9,,,,,,,,,110.92794120800045,110.92794120800045,110.92794120800045,110.92794120800045,110.92794120800045,110.92794120800045,110.92794120800045,110.92794120800045,110.64045674966717,110.92794120800045,110.92794120800045,110.92794120800045,110.64045674966717,110.92794120800045,110.92794120800045,110.92794120800045,112.8998598750004,,110.92794120800045,110.92794120800045,116.23491954200017,111.38244045800002,112.59768183300002,112.8998598750004,114.11273504200017,110.92794120800045,110.92794120800045,110.79045674966716,110.92794120800045,110.92794120800045,110.92794120800045,110.79045674966716,110.92794120800045,110.92794120800045,116.23491954200017,110.92794120800045,116.23491954200017,116.08935291700072,,110.92794120800045,1,1,1.6619780410001113,reldom2_fmri_s004p,001,2024-12-11_16h43.36.064,What-B-Scan_AC,2022.2.5,None,
8,First_Order,2.0,viswhat,stimulus/viswhat_stim/blank_white.png,stimulus/viswhat_stim/blank_white.png,stimulus/viswhat_stim/water_animal-jellyfish.png,stimulus/viswhat_stim/land_animal-bunny.png,stimulus/viswhat_stim/blank_white.png,stimulus/viswhat_stim/type_box.png,stimulus/viswhat_stim/type_yes.png,stimulus/viswhat_stim/type_no.png,None,Type,None,Type,1,0.0,0,5.125,0,5.125,0,5.125,0,0.0,0.625,0,0.0,0,0.0,1,0.5,1,2.125,0,0.0,0,0.0,0,0.0,0,0.0,0,,,,,0,10,10,10,,,,,,,,,116.96522537500005,116.96522537500005,116.96522537500005,116.96522537500005,116.96522537500005,116.96522537500005,116.96522537500005,116.96522537500005,116.87682837500014,116.96522537500005,116.96522537500005,116.96522537500005,116.87682837500014,116.96522537500005,116.96522537500005,116.96522537500005,119.02646433300015,123.05934070800049,116.96522537500005,116.96522537500005,122.1496300000008,117.43974920800065,118.50013025000044,119.02646433300015,120.08597529200051,116.96522537500005,116.96522537500005,116.92682837500016,116.96522537500005,116.96522537500005,116.96522537500005,116.92682837500016,116.96522537500005,116.96522537500005,122.1496300000008,116.96522537500005,122.1496300000008,122.1496300000008,122.81096645800062,116.96522537500005,1,1,1.184204499999396,reldom2_fmri_s004p,001,2024-12-11_16h43.36.064,What-B-Scan_AC,2022.2.5,None,
9,First_Order,2.0,viswhat,stimulus/viswhat_stim/blank_white.png,stimulus/viswhat_stim/blank_white.png,stimulus/viswhat_stim/land_animal-cat.png,stimulus/viswhat_stim/water_animal-whale (1).png,stimulus/viswhat_stim/blank_white.png,stimulus/viswhat_stim/location_box.png,stimulus/viswhat_stim/location_yes.png,stimulus/viswhat_stim/location_no.png,None,Location,None,Type,2,0.0,0,5.125,0,5.125,0,5.125,0,0.0,0.625,0,0.0,0,0.0,1,0.5,1,2.125,0,0.0,0,0.0,0,0.0,0,0.0,0,,,,,0,11,11,11,,,,,,,,,123.05934070800049,123.05934070800049,123.05934070800049,123.05934070800049,123.05934070800049,123.05934070800049,123.05934070800049,123.05934070800049,123.00835337500067,123.05934070800049,123.05934070800049,123.05934070800049,123.00835337500067,123.05934070800049,123.05934070800049,123.05934070800049,125.15381191699998,129.16923741700066,123.05934070800049,123.05934070800049,128.20273620800072,123.51947100000052,124.56610987500062,125.15381191699998,126.17420991700055,123.05934070800049,123.05934070800049,123.041686708334,123.05934070800049,123.05934070800049,123.05934070800049,123.041686708334,123.05934070800049,123.05934070800049,128.20273620800072,123.05934070800049,128.20273620800072,128.28390433300046,128.93024533300013,123.05934070800049,2,1,1.3721894169993902,reldom2_fmri_s004p,001,2024-12-11_16h43.36.064,What-B-Scan_AC,2022.2.5,None,
10,First_Order,2.0,viswhat,stimulus/viswhat_stim/blank_white.png,stimulus/viswhat_stim/blank_white.png,stimulus/viswhat_stim/water_animal-shark.png,stimulus/viswhat_stim/water_vehicle-yacht.png,stimulus/viswhat_stim/blank_white.png,stimulus/viswhat_stim/type_box.png,stimulus/viswhat_stim/type_yes.png,stimulus/viswhat_stim/type_no.png,None,Type,None,Location,2,0.0,0,5.125,0,5.125,0,5.125,0,0.0,0.625,0,0.0,0,0.0,1,0.5,1,2.125,0,0.0,0,0.0,0,0.0,0,0.0,0,,,,,0,12,12,12,,,,,,,,,129.16923741700066,129.16923741700066,129.16923741700066,129.16923741700066,129.16923741700066,129.16923741700066,129.16923741700066,129.16923741700066,129.10090708366704,129.16923741700066,129.16923741700066,129.16923741700066,129.10090708366704,129.16923741700066,129.16923741700066,129.16923741700066,131.2524494170002,135.3202045830003,129.16923741700066,129.16923741700066,134.33399729200028,129.64834820800024,130.68996904200048,131.2524494170002,132.29840775000048,129.16923741700066,129.16923741700066,129.13424041700037,129.16923741700066,129.16923741700066,129.16923741700066,129.13424041700037,129.16923741700066,129.16923741700066,134.33399729200028,129.16923741700066,134.33399729200028,134.37152175000028,135.049299667,129.16923741700066,2,1,1.2100360829999772,reldom2_fmri_s004p,001,2024-12-11_16h43.36.064,What-B-Scan_AC,2022.2.5,None,
0,0.0,None,fixation,stimulus/viswhat_stim/blank_white.png,stimulus/viswhat_stim/blank_white.png,stimulus/audwhat_stim/blank_white.png,stimulus/audwhat_stim/blank_white.png,stimulus/viswhat_stim/blank_white.png,stimulus/viswhat_stim/blank_white.png,stimulus/viswhat_stim/blank_white.png,stimulus/viswhat_stim/blank_white.png,0.0,0.0,0.0,0.0,0,0.0,0,0.0,0,0.0,0,0.0,0,0.0,0.0,0,0.0,0,0.0,0,0.0,0,0.0,0,0.0,0,0.0,0,0.0,0,0.0,10,,,,,0,13,13,13,,,,,,,,,135.3202045830003,135.3202045830003,135.3202045830003,135.3202045830003,135.3202045830003,135.3202045830003,135.3202045830003,135.3202045830003,135.22009762533358,135.3202045830003,135.3202045830003,135.3202045830003,135.22009762533358,135.3202045830003,135.3202045830003,135.3202045830003,135.3202045830003,135.3202045830003,135.3202045830003,135.3202045830003,135.3202045830003,135.3202045830003,135.3202045830003,135.3202045830003,135.3202045830003,135.3202045830003,135.3202045830003,135.27009762533356,135.3202045830003,135.3202045830003,135.3202045830003,135.27009762533356,135.3202045830003,135.3202045830003,135.3202045830003,135.3202045830003,135.3202045830003,140.5337795000005,140.5337795000005,145.44169395800054,None,0,,reldom2_fmri_s004p,001,2024-12-11_16h43.36.064,What-B-Scan_AC,2022.2.5,None,
11,Second_Order,2.0,viswhat,stimulus/viswhat_stim/land_animal-ostrich.png,stimulus/viswhat_stim/water_animal-stingray.png,stimulus/viswhat_stim/water_vehicle-cruiseship.png,stimulus/viswhat_stim/water_animal-seaturtle.png,stimulus/viswhat_stim/match_blank.png,stimulus/viswhat_stim/match_box.png,stimulus/viswhat_stim/match_yes.png,stimulus/viswhat_stim/match_no.png,2.0,Match,Type,Location,2,5.125,0,5.125,0,5.125,0,5.125,0,0.75,0.75,1,0.5,1,2.125,1,0.5,1,2.125,0,0.0,0,0.0,0,0.0,0,0.0,0,,,,,0,14,14,14,,,,,,,,,145.44169395800054,150.5644200000006,145.92033012500087,146.90903541700027,147.54566133300068,148.54295866700068,145.44169395800054,145.44169395800054,145.453528166334,145.44169395800054,145.44169395800054,145.44169395800054,145.453528166334,145.44169395800054,150.5644200000006,151.52991483300048,153.5896746670005,,151.52991483300048,151.52991483300048,156.78588050000053,151.94224200000008,153.07379550000041,153.5896746670005,154.72526541700063,151.52991483300048,151.52991483300048,151.4329977913341,151.52991483300048,151.52991483300048,151.52991483300048,151.4329977913341,151.52991483300048,151.52991483300048,156.78588050000053,151.52991483300048,156.78588050000053,156.68890037500023,,151.52991483300048,2,1,0.8993344159989647,reldom2_fmri_s004p,001,2024-12-11_16h43.36.064,What-B-Scan_AC,2022.2.5,None,
12,Second_Order,2.0,viswhat,stimulus/viswhat_stim/land_animal-ostrich.png,stimulus/viswhat_stim/land_vehicle-oldcar.png,stimulus/viswhat_stim/water_vehicle-ship.png,stimulus/viswhat_stim/land_vehicle-vespa.png,stimulus/viswhat_stim/match_blank.png,stimulus/viswhat_stim/match_box.png,stimulus/viswhat_stim/match_yes.png,stimulus/viswhat_stim/match_no.png,2.0,Match,Location,Type,2,5.125,0,5.125,0,5.125,0,5.125,0,0.625,0.625,1,0.5,1,2.125,1,0.5,1,2.125,0,0.0,0,0.0,0,0.0,0,0.0,0,,,,,0,15,15,15,,,,,,,,,157.50411950000034,162.62578833300086,157.96458916700067,158.95421295800043,159.58994925000025,160.58779308300018,157.50411950000034,157.50411950000034,157.50705908333362,157.50411950000034,157.50411950000034,157.50411950000034,157.50705908333362,157.50411950000034,162.62578833300086,163.3900413750007,165.46464600000036,,163.3900413750007,163.3900413750007,168.5798886670009,163.8047827500004,164.9114566670005,165.46464600000036,166.5755665000006,163.3900413750007,163.3900413750007,163.32684420833388,163.3900413750007,163.3900413750007,163.3900413750007,163.32684420833388,163.3900413750007,163.3900413750007,168.5798886670009,163.3900413750007,168.5798886670009,168.5798886670009,169.50132658300026,163.3900413750007,2,1,1.3327740419999827,reldom2_fmri_s004p,001,2024-12-11_16h43.36.064,What-B-Scan_AC,2022.2.5,None,
0,0.0,None,fixation,stimulus/viswhat_stim/blank_white.png,stimulus/viswhat_stim/blank_white.png,stimulus/audwhat_stim/blank_white.png,stimulus/audwhat_stim/blank_white.png,stimulus/viswhat_stim/blank_white.png,stimulus/viswhat_stim/blank_white.png,stimulus/viswhat_stim/blank_white.png,stimulus/viswhat_stim/blank_white.png,0.0,0.0,0.0,0.0,0,0.0,0,0.0,0,0.0,0,0.0,0,0.0,0.0,0,0.0,0,0.0,0,0.0,0,0.0,0,0.0,0,0.0,0,0.0,0,0.0,9,,,,,0,16,16,16,,,,,,,,,169.50132658300026,169.50132658300026,169.50132658300026,169.50132658300026,169.50132658300026,169.50132658300026,169.50132658300026,169.50132658300026,169.39764829133395,169.50132658300026,169.50132658300026,169.50132658300026,169.39764829133395,169.50132658300026,169.50132658300026,169.50132658300026,169.50132658300026,169.50132658300026,169.50132658300026,169.50132658300026,169.50132658300026,169.50132658300026,169.50132658300026,169.50132658300026,169.50132658300026,169.50132658300026,169.50132658300026,169.44764829133396,169.50132658300026,169.50132658300026,169.50132658300026,169.44764829133396,169.50132658300026,169.50132658300026,169.50132658300026,169.50132658300026,169.50132658300026,174.73150845800046,174.73150845800046,178.72943537500032,None,0,,reldom2_fmri_s004p,001,2024-12-11_16h43.36.064,What-B-Scan_AC,2022.2.5,None,
13,First_Order,3.0,audwhat,stimulus/audwhat_stim/dummy.wav,stimulus/audwhat_stim/dummy.wav,stimulus/audwhat_stim/percussion mallet_low-pitch_Ftri_loud.wav,stimulus/audwhat_stim/percussion xylophone_high-pitch_Dtri_loud.wav,stimulus/audwhat_stim/blank_white.png,stimulus/audwhat_stim/pitch_box.png,stimulus/audwhat_stim/pitch_yes.png,stimulus/audwhat_stim/pitch_no.png,None,Pitch,None,Category,2,0.0,0,5.125,0,5.125,0,5.125,0,0.0,0.625,0,0.0,0,0.0,0,0.0,0,0.0,0,0.0,0,0.0,1,0.5,1,2.125,0,,,,,0,17,17,17,,,,,,,,,178.72943537500032,178.72943537500032,178.72943537500032,178.72943537500032,178.72943537500032,178.72943537500032,178.72943537500032,178.72943537500032,178.6510562916671,178.72943537500032,178.72943537500032,178.72943537500032,178.6510562916671,178.72943537500032,178.72943537500032,178.72943537500032,180.83259387500038,,178.72943537500032,178.72943537500032,183.91914191700016,178.72943537500032,178.72943537500032,178.72943537500032,178.72943537500032,179.19609104200026,180.22652279200065,179.1660398746674,,180.83259387500038,181.868201667,180.80189470866688,181.868201667,178.72943537500032,183.91914191700016,178.72943537500032,183.91914191700016,183.91914191700016,184.57575420800003,178.72943537500032,2,1,0.8174708749993442,reldom2_fmri_s004p,001,2024-12-11_16h43.36.064,What-B-Scan_AC,2022.2.5,None,
14,First_Order,3.0,audwhat,stimulus/audwhat_stim/dummy.wav,stimulus/audwhat_stim/dummy.wav,stimulus/audwhat_stim/string cello_low-pitch_D_loud.wav,stimulus/audwhat_stim/percussion mallet_low-pitch_D_loud.wav,stimulus/audwhat_stim/blank_white.png,stimulus/audwhat_stim/pitch_box.png,stimulus/audwhat_stim/pitch_yes.png,stimulus/audwhat_stim/pitch_no.png,None,Pitch,None,Pitch,1,0.0,0,5.125,0,5.125,0,5.125,0,0.0,0.625,0,0.0,0,0.0,0,0.0,0,0.0,0,0.0,0,0.0,1,0.5,1,2.125,0,,,,,0,18,18,18,,,,,,,,,184.8301194580008,184.8301194580008,184.8301194580008,184.8301194580008,184.8301194580008,184.8301194580008,184.8301194580008,184.8301194580008,184.74981183333344,184.8301194580008,184.8301194580008,184.8301194580008,184.74981183333344,184.8301194580008,184.8301194580008,184.8301194580008,186.9408389580003,,184.8301194580008,184.8301194580008,189.98568104200058,184.8301194580008,184.8301194580008,184.8301194580008,184.8301194580008,185.2990530420002,186.3333352080008,185.26848379166702,,186.9408389580003,187.97662554200087,186.91082712466712,,184.8301194580008,189.98568104200058,184.8301194580008,189.98568104200058,190.02709041700018,190.68520762500066,184.8301194580008,1,1,0.6592166659993381,reldom2_fmri_s004p,001,2024-12-11_16h43.36.064,What-B-Scan_AC,2022.2.5,None,
15,First_Order,3.0,audwhat,stimulus/audwhat_stim/dummy.wav,stimulus/audwhat_stim/dummy.wav,stimulus/audwhat_stim/string cello_high-pitch_D_loud.wav,stimulus/audwhat_stim/string cello_low-pitch_Ftri_loud.wav,stimulus/audwhat_stim/blank_white.png,stimulus/audwhat_stim/category_box.png,stimulus/audwhat_stim/category_yes.png,stimulus/audwhat_stim/category_no.png,None,Category,None,Category,1,0.0,0,5.125,0,5.125,0,5.125,0,0.0,0.625,0,0.0,0,0.0,0,0.0,0,0.0,0,0.0,0,0.0,1,0.5,1,2.125,0,,,,,0,19,19,19,,,,,,,,,190.94237825000073,190.94237825000073,190.94237825000073,190.94237825000073,190.94237825000073,190.94237825000073,190.94237825000073,190.94237825000073,190.85887016633401,190.94237825000073,190.94237825000073,190.94237825000073,190.85887016633401,190.94237825000073,190.94237825000073,190.94237825000073,193.0127320420006,,190.94237825000073,190.94237825000073,196.12347570800011,190.94237825000073,190.94237825000073,190.94237825000073,190.94237825000073,191.41323841700068,192.45018091700058,191.38291429166682,,193.0127320420006,194.0528112080001,192.98183524966706,,190.94237825000073,196.12347570800011,190.94237825000073,196.12347570800011,196.16511379200074,196.82723366700066,190.94237825000073,1,1,1.5800193329996546,reldom2_fmri_s004p,001,2024-12-11_16h43.36.064,What-B-Scan_AC,2022.2.5,None,
16,First_Order,3.0,audwhat,stimulus/audwhat_stim/dummy.wav,stimulus/audwhat_stim/dummy.wav,stimulus/audwhat_stim/string viola_low-pitch_F_loud.wav,stimulus/audwhat_stim/percussion mallet_low-pitch_F_loud.wav,stimulus/audwhat_stim/blank_white.png,stimulus/audwhat_stim/category_box.png,stimulus/audwhat_stim/category_yes.png,stimulus/audwhat_stim/category_no.png,None,Category,None,Pitch,2,0.0,0,5.125,0,5.125,0,5.125,0,0.0,0.625,0,0.0,0,0.0,0,0.0,0,0.0,0,0.0,0,0.0,1,0.5,1,2.125,0,,,,,0,20,20,20,,,,,,,,,197.04138879200036,197.04138879200036,197.04138879200036,197.04138879200036,197.04138879200036,197.04138879200036,197.04138879200036,197.04138879200036,196.960567000334,197.04138879200036,197.04138879200036,197.04138879200036,196.960567000334,197.04138879200036,197.04138879200036,197.04138879200036,199.1141157080001,,197.04138879200036,197.04138879200036,202.22703662500044,197.04138879200036,197.04138879200036,197.04138879200036,197.04138879200036,197.51314037500015,198.5497049580008,197.4808252496671,,199.1141157080001,200.15504404200055,199.08354616666682,,197.04138879200036,202.22703662500044,197.04138879200036,202.22703662500044,202.2687428750005,202.93313820800086,197.04138879200036,2,1,1.1822337079993304,reldom2_fmri_s004p,001,2024-12-11_16h43.36.064,What-B-Scan_AC,2022.2.5,None,
0,0.0,None,fixation,stimulus/viswhat_stim/blank_white.png,stimulus/viswhat_stim/blank_white.png,stimulus/audwhat_stim/blank_white.png,stimulus/audwhat_stim/blank_white.png,stimulus/viswhat_stim/blank_white.png,stimulus/viswhat_stim/blank_white.png,stimulus/viswhat_stim/blank_white.png,stimulus/viswhat_stim/blank_white.png,0.0,0.0,0.0,0.0,0,0.0,0,0.0,0,0.0,0,0.0,0,0.0,0.0,0,0.0,0,0.0,0,0.0,0,0.0,0,0.0,0,0.0,0,0.0,0,0.0,9,,,,,0,21,21,21,,,,,,,,,203.1691909580004,203.1691909580004,203.1691909580004,203.1691909580004,203.1691909580004,203.1691909580004,203.1691909580004,203.1691909580004,203.0664715413342,203.1691909580004,203.1691909580004,203.1691909580004,203.0664715413342,203.1691909580004,203.1691909580004,203.1691909580004,203.1691909580004,203.1691909580004,203.1691909580004,203.1691909580004,203.1691909580004,203.1691909580004,203.1691909580004,203.1691909580004,203.1691909580004,203.1691909580004,203.1691909580004,203.1164715413342,203.1691909580004,203.1691909580004,203.1691909580004,203.1164715413342,203.1691909580004,203.1691909580004,203.1691909580004,203.1691909580004,203.1691909580004,208.36051104200033,208.36051104200033,212.3516864580006,None,0,,reldom2_fmri_s004p,001,2024-12-11_16h43.36.064,What-B-Scan_AC,2022.2.5,None,
17,Second_Order,3.0,audwhat,stimulus/audwhat_stim/percussion mallet_high-pitch_Ftri_loud.wav,stimulus/audwhat_stim/string cello_high-pitch_Ftri_loud.wav,stimulus/audwhat_stim/percussion mallet_low-pitch_D_loud.wav,stimulus/audwhat_stim/string viola_low-pitch_D_loud.wav,stimulus/viswhat_stim/match_blank.png,stimulus/viswhat_stim/match_box.png,stimulus/viswhat_stim/match_yes.png,stimulus/viswhat_stim/match_no.png,1.0,Match,Pitch,Pitch,1,5.125,0,5.125,0,5.125,0,5.125,0,0.75,0.75,0,0.0,0,0.0,0,0.0,0,0.0,1,0.5,1,2.125,1,0.5,1,2.125,0,,,,,0,22,22,22,,,,,,,,,212.3516864580006,217.47329133300082,212.3516864580006,212.3516864580006,212.3516864580006,212.3516864580006,212.8077828330006,213.79697141700035,212.81134954166671,213.8101325000007,214.433642125,215.43064445800064,214.44523337466697,,217.47329133300082,218.30591279200053,220.4018659580006,,218.30591279200053,218.30591279200053,223.4867747920007,218.30591279200053,218.30591279200053,218.30591279200053,218.30591279200053,218.77064087500003,219.84289637500024,218.74066229166718,,220.4018659580006,221.4329038750002,220.37121245866754,,218.30591279200053,223.4867747920007,218.30591279200053,223.4867747920007,223.4867747920007,,218.30591279200053,1,1,1.4620342489988616,reldom2_fmri_s004p,001,2024-12-11_16h43.36.064,What-B-Scan_AC,2022.2.5,None,
18,Second_Order,3.0,audwhat,stimulus/audwhat_stim/percussion mallet_high-pitch_Dtri_loud.wav,stimulus/audwhat_stim/string cello_high-pitch_Dtri_loud.wav,stimulus/audwhat_stim/string viola_low-pitch_Ftri_loud.wav,stimulus/audwhat_stim/percussion mallet_low-pitch_Ftri_loud.wav,stimulus/viswhat_stim/match_blank.png,stimulus/viswhat_stim/match_box.png,stimulus/viswhat_stim/match_yes.png,stimulus/viswhat_stim/match_no.png,1.0,Match,Pitch,Pitch,1,5.125,0,5.125,0,5.125,0,5.125,0,0.625,0.625,0,0.0,0,0.0,0,0.0,0,0.0,1,0.5,1,2.125,1,0.5,1,2.125,0,,,,,0,23,23,23,,,,,,,,,224.3052022920001,229.41734312500012,224.3052022920001,224.3052022920001,224.3052022920001,224.3052022920001,224.75622929200017,225.75461441700008,224.76926079166722,225.76244470800066,226.38923520800017,227.3779696670008,226.39314112466698,,229.41734312500012,230.12909379200028,232.21509512500052,,230.12909379200028,230.12909379200028,235.2934909580008,230.12909379200028,230.12909379200028,230.12909379200028,230.12909379200028,230.5907270000007,231.65749500000038,230.56102416666752,,232.21509512500052,233.28869858300004,232.1851082916667,,230.12909379200028,235.2934909580008,230.12909379200028,235.2934909580008,235.33471341700078,235.99310437500026,230.12909379200028,1,1,0.5983257079997202,reldom2_fmri_s004p,001,2024-12-11_16h43.36.064,What-B-Scan_AC,2022.2.5,None,
0,0.0,None,fixation,stimulus/viswhat_stim/blank_white.png,stimulus/viswhat_stim/blank_white.png,stimulus/audwhat_stim/blank_white.png,stimulus/audwhat_stim/blank_white.png,stimulus/viswhat_stim/blank_white.png,stimulus/viswhat_stim/blank_white.png,stimulus/viswhat_stim/blank_white.png,stimulus/viswhat_stim/blank_white.png,0.0,0.0,0.0,0.0,0,0.0,0,0.0,0,0.0,0,0.0,0,0.0,0.0,0,0.0,0,0.0,0,0.0,0,0.0,0,0.0,0,0.0,0,0.0,0,0.0,8,,,,,0,24,24,24,,,,,,,,,236.22754366700065,236.22754366700065,236.22754366700065,236.22754366700065,236.22754366700065,236.22754366700065,236.22754366700065,236.22754366700065,236.1264377083336,236.22754366700065,236.22754366700065,236.22754366700065,236.1264377083336,236.22754366700065,236.22754366700065,236.22754366700065,236.22754366700065,236.22754366700065,236.22754366700065,236.22754366700065,236.22754366700065,236.22754366700065,236.22754366700065,236.22754366700065,236.22754366700065,236.22754366700065,236.22754366700065,236.1764377083336,236.22754366700065,236.22754366700065,236.22754366700065,236.1764377083336,236.22754366700065,236.22754366700065,236.22754366700065,236.22754366700065,236.22754366700065,241.4255207920005,241.4255207920005,244.45907520800029,None,0,,reldom2_fmri_s004p,001,2024-12-11_16h43.36.064,What-B-Scan_AC,2022.2.5,None,
19,First_Order,4.0,audwhat,stimulus/audwhat_stim/dummy.wav,stimulus/audwhat_stim/dummy.wav,stimulus/audwhat_stim/percussion mallet_low-pitch_Ftri_loud.wav,stimulus/audwhat_stim/string viola_low-pitch_Ftri_loud.wav,stimulus/audwhat_stim/blank_white.png,stimulus/audwhat_stim/pitch_box.png,stimulus/audwhat_stim/pitch_yes.png,stimulus/audwhat_stim/pitch_no.png,None,Pitch,None,Pitch,1,0.0,0,5.125,0,5.125,0,5.125,0,0.0,0.625,0,0.0,0,0.0,0,0.0,0,0.0,0,0.0,0,0.0,1,0.5,1,2.125,0,,,,,0,25,25,25,,,,,,,,,244.45907520800029,244.45907520800029,244.45907520800029,244.45907520800029,244.45907520800029,244.45907520800029,244.45907520800029,244.45907520800029,244.3838401246673,244.45907520800029,244.45907520800029,244.45907520800029,244.3838401246673,244.45907520800029,244.45907520800029,244.45907520800029,246.56265275000078,,244.45907520800029,244.45907520800029,249.6116173750006,244.45907520800029,244.45907520800029,244.45907520800029,244.45907520800029,244.92665883300015,245.9567549580006,244.89593695866668,,246.56265275000078,247.5966025000007,246.5320396246673,,244.45907520800029,249.6116173750006,244.45907520800029,249.6116173750006,249.6532617920002,250.31118883300041,244.45907520800029,1,1,1.5515762080003697,reldom2_fmri_s004p,001,2024-12-11_16h43.36.064,What-B-Scan_AC,2022.2.5,None,
20,First_Order,4.0,audwhat,stimulus/audwhat_stim/dummy.wav,stimulus/audwhat_stim/dummy.wav,stimulus/audwhat_stim/string viola_low-pitch_F_loud.wav,stimulus/audwhat_stim/string cello_high-pitch_Ftri_loud.wav,stimulus/audwhat_stim/blank_white.png,stimulus/audwhat_stim/category_box.png,stimulus/audwhat_stim/category_yes.png,stimulus/audwhat_stim/category_no.png,None,Category,None,Category,1,0.0,0,5.125,0,5.125,0,5.125,0,0.0,0.625,0,0.0,0,0.0,0,0.0,0,0.0,0,0.0,0,0.0,1,0.5,1,2.125,0,,,,,0,26,26,26,,,,,,,,,250.56844895800077,250.56844895800077,250.56844895800077,250.56844895800077,250.56844895800077,250.56844895800077,250.56844895800077,250.56844895800077,250.48587425033398,250.56844895800077,250.56844895800077,250.56844895800077,250.48587425033398,250.56844895800077,250.56844895800077,250.56844895800077,252.64287954200063,,250.56844895800077,250.56844895800077,255.75157304200002,250.56844895800077,250.56844895800077,250.56844895800077,250.56844895800077,251.03993720800008,252.07955879200017,251.0092827496667,,252.64287954200063,253.68304887500017,252.6123078746671,,250.56844895800077,255.75157304200002,250.56844895800077,255.75157304200002,255.79261166700053,256.4534345000002,250.56844895800077,1,1,1.0119077910003398,reldom2_fmri_s004p,001,2024-12-11_16h43.36.064,What-B-Scan_AC,2022.2.5,None,
21,First_Order,4.0,audwhat,stimulus/audwhat_stim/dummy.wav,stimulus/audwhat_stim/dummy.wav,stimulus/audwhat_stim/string viola_high-pitch_F_loud.wav,stimulus/audwhat_stim/percussion mallet_high-pitch_F_loud.wav,stimulus/audwhat_stim/blank_white.png,stimulus/audwhat_stim/category_box.png,stimulus/audwhat_stim/category_yes.png,stimulus/audwhat_stim/category_no.png,None,Category,None,Pitch,2,0.0,0,5.125,0,5.125,0,5.125,0,0.0,0.625,0,0.0,0,0.0,0,0.0,0,0.0,0,0.0,0,0.0,1,0.5,1,2.125,0,,,,,0,27,27,27,,,,,,,,,256.6696135000002,256.6696135000002,256.6696135000002,256.6696135000002,256.6696135000002,256.6696135000002,256.6696135000002,256.6696135000002,256.5867678333335,256.6696135000002,256.6696135000002,256.6696135000002,256.5867678333335,256.6696135000002,256.6696135000002,256.6696135000002,258.7501838750004,262.7982100420004,256.6696135000002,256.6696135000002,261.83660625000084,256.6696135000002,256.6696135000002,256.6696135000002,256.6696135000002,257.14015241700054,258.1825087500001,257.1093331666673,,258.7501838750004,259.8032513750004,258.71868762466715,259.75598891700065,256.6696135000002,261.83660625000084,256.6696135000002,261.83660625000084,261.8785928750003,262.5400132500008,256.6696135000002,2,1,1.6522944579992327,reldom2_fmri_s004p,001,2024-12-11_16h43.36.064,What-B-Scan_AC,2022.2.5,None,
22,First_Order,4.0,audwhat,stimulus/audwhat_stim/dummy.wav,stimulus/audwhat_stim/dummy.wav,stimulus/audwhat_stim/percussion xylophone_high-pitch_D_loud.wav,stimulus/audwhat_stim/percussion mallet_low-pitch_F_loud.wav,stimulus/audwhat_stim/blank_white.png,stimulus/audwhat_stim/pitch_box.png,stimulus/audwhat_stim/pitch_yes.png,stimulus/audwhat_stim/pitch_no.png,None,Pitch,None,Category,2,0.0,0,5.125,0,5.125,0,5.125,0,0.0,0.625,0,0.0,0,0.0,0,0.0,0,0.0,0,0.0,0,0.0,1,0.5,1,2.125,0,,,,,0,28,28,28,,,,,,,,,262.7982100420004,262.7982100420004,262.7982100420004,262.7982100420004,262.7982100420004,262.7982100420004,262.7982100420004,262.7982100420004,262.7147748753333,262.7982100420004,262.7982100420004,262.7982100420004,262.7147748753333,262.7982100420004,262.7982100420004,262.7982100420004,264.8719570830008,,262.7982100420004,262.7982100420004,267.9788962920002,262.7982100420004,262.7982100420004,262.7982100420004,262.7982100420004,263.26896979200046,264.30862233300013,263.23847558366674,264.30862233300013,264.8719570830008,265.91167525000037,264.84103924966735,,262.7982100420004,267.9788962920002,262.7982100420004,267.9788962920002,268.02056770800027,268.6820077080001,262.7982100420004,2,1,1.4342750830001023,reldom2_fmri_s004p,001,2024-12-11_16h43.36.064,What-B-Scan_AC,2022.2.5,None,
0,0.0,None,fixation,stimulus/viswhat_stim/blank_white.png,stimulus/viswhat_stim/blank_white.png,stimulus/audwhat_stim/blank_white.png,stimulus/audwhat_stim/blank_white.png,stimulus/viswhat_stim/blank_white.png,stimulus/viswhat_stim/blank_white.png,stimulus/viswhat_stim/blank_white.png,stimulus/viswhat_stim/blank_white.png,0.0,0.0,0.0,0.0,0,0.0,0,0.0,0,0.0,0,0.0,0,0.0,0.0,0,0.0,0,0.0,0,0.0,0,0.0,0,0.0,0,0.0,0,0.0,0,0.0,10,,,,,0,29,29,29,,,,,,,,,268.9228149170003,268.9228149170003,268.9228149170003,268.9228149170003,268.9228149170003,268.9228149170003,268.9228149170003,268.9228149170003,268.81534104133345,268.9228149170003,268.9228149170003,268.9228149170003,268.81534104133345,268.9228149170003,268.9228149170003,268.9228149170003,268.9228149170003,268.9228149170003,268.9228149170003,268.9228149170003,268.9228149170003,268.9228149170003,268.9228149170003,268.9228149170003,268.9228149170003,268.9228149170003,268.9228149170003,268.8820077080001,268.9228149170003,268.9228149170003,268.9228149170003,268.8820077080001,268.9228149170003,268.9228149170003,268.9228149170003,268.9228149170003,268.9228149170003,274.11392179200084,274.11392179200084,279.07603200000085,None,0,,reldom2_fmri_s004p,001,2024-12-11_16h43.36.064,What-B-Scan_AC,2022.2.5,None,
23,Second_Order,4.0,audwhat,stimulus/audwhat_stim/percussion mallet_high-pitch_Ftri_loud.wav,stimulus/audwhat_stim/percussion mallet_low-pitch_Dtri_loud.wav,stimulus/audwhat_stim/percussion mallet_high-pitch_D_loud.wav,stimulus/audwhat_stim/string viola_high-pitch_D_loud.wav,stimulus/viswhat_stim/match_blank.png,stimulus/viswhat_stim/match_box.png,stimulus/viswhat_stim/match_yes.png,stimulus/viswhat_stim/match_no.png,2.0,Match,Category,Pitch,2,5.125,0,5.125,0,5.125,0,5.125,0,0.75,0.75,0,0.0,0,0.0,0,0.0,0,0.0,1,0.5,1,2.125,1,0.5,1,2.125,0,,,,,0,30,30,30,,,,,,,,,279.07603200000085,284.19390770800055,279.07603200000085,279.07603200000085,279.07603200000085,279.07603200000085,279.53147400000034,280.51816858300026,279.544372833667,280.5386192920005,281.15426679200027,282.15165937500024,281.1658367086668,282.1596430420004,284.19390770800055,285.0245285830006,287.08370087500043,291.0368085830005,285.0245285830006,285.0245285830006,290.17701283300084,285.0245285830006,285.0245285830006,285.0245285830006,285.0245285830006,285.49430929200025,286.56948745800037,285.46269641666754,,287.08370087500043,288.11650954200013,287.05329849966733,,285.0245285830006,290.17701283300084,285.0245285830006,290.17701283300084,290.21791808300077,,285.0245285830006,2,1,1.4138429989998258,reldom2_fmri_s004p,001,2024-12-11_16h43.36.064,What-B-Scan_AC,2022.2.5,None,
24,Second_Order,4.0,audwhat,stimulus/audwhat_stim/string viola_high-pitch_Dtri_loud.wav,stimulus/audwhat_stim/percussion mallet_high-pitch_Dtri_loud.wav,stimulus/audwhat_stim/string cello_low-pitch_Dtri_loud.wav,stimulus/audwhat_stim/string viola_high-pitch_Ftri_loud.wav,stimulus/viswhat_stim/match_blank.png,stimulus/viswhat_stim/match_box.png,stimulus/viswhat_stim/match_yes.png,stimulus/viswhat_stim/match_no.png,2.0,Match,Pitch,Category,2,5.125,0,5.125,0,5.125,0,5.125,0,0.625,0.625,0,0.0,0,0.0,0,0.0,0,0.0,1,0.5,1,2.125,1,0.5,1,2.125,0,,,,,0,31,31,31,,,,,,,,,291.0368085830005,296.1549197080003,291.0368085830005,291.0368085830005,291.0368085830005,291.0368085830005,291.4950672920004,292.49163229200076,291.50635266666745,,293.1146350420004,294.1120855420004,293.12662766666676,294.1193437080001,296.1549197080003,296.868708125,298.9628044580004,,296.868708125,296.868708125,302.0457348330001,296.868708125,296.868708125,296.868708125,296.868708125,297.3317446250003,298.4030290420005,297.3017772086671,,298.9628044580004,300.03905054200004,298.93217179166663,,296.868708125,302.0457348330001,296.868708125,302.0457348330001,302.0457348330001,302.704402417,296.868708125,2,1,0.74351091599965,reldom2_fmri_s004p,001,2024-12-11_16h43.36.064,What-B-Scan_AC,2022.2.5,None,
0,0.0,None,fixation,stimulus/viswhat_stim/blank_white.png,stimulus/viswhat_stim/blank_white.png,stimulus/audwhat_stim/blank_white.png,stimulus/audwhat_stim/blank_white.png,stimulus/viswhat_stim/blank_white.png,stimulus/viswhat_stim/blank_white.png,stimulus/viswhat_stim/blank_white.png,stimulus/viswhat_stim/blank_white.png,0.0,0.0,0.0,0.0,0,0.0,0,0.0,0,0.0,0,0.0,0,0.0,0.0,0,0.0,0,0.0,0,0.0,0,0.0,0,0.0,0,0.0,0,0.0,0,0.0,9,,,,,0,32,32,32,,,,,,,,,302.9832750830001,302.9832750830001,302.9832750830001,302.9832750830001,302.9832750830001,302.9832750830001,302.9832750830001,302.9832750830001,302.87873520833375,302.9832750830001,302.9832750830001,302.9832750830001,302.87873520833375,302.9832750830001,302.9832750830001,302.9832750830001,302.9832750830001,302.9832750830001,302.9832750830001,302.9832750830001,302.9832750830001,302.9832750830001,302.9832750830001,302.9832750830001,302.9832750830001,302.9832750830001,302.9832750830001,302.92873520833376,302.9832750830001,302.9832750830001,302.9832750830001,302.92873520833376,302.9832750830001,302.9832750830001,302.9832750830001,302.9832750830001,302.9832750830001,308.19358504200045,308.19358504200045,312.2842652920008,None,0,,reldom2_fmri_s004p,001,2024-12-11_16h43.36.064,What-B-Scan_AC,2022.2.5,None,
25,First_Order,5.0,viswhat,stimulus/viswhat_stim/blank_white.png,stimulus/viswhat_stim/blank_white.png,stimulus/viswhat_stim/land_animal-elephant.png,stimulus/viswhat_stim/land_vehicle-firetruck.png,stimulus/viswhat_stim/blank_white.png,stimulus/viswhat_stim/location_box.png,stimulus/viswhat_stim/location_yes.png,stimulus/viswhat_stim/location_no.png,None,Location,None,Location,1,0.0,0,5.125,0,5.125,0,5.125,0,0.0,0.625,0,0.0,0,0.0,1,0.5,1,2.125,0,0.0,0,0.0,0,0.0,0,0.0,0,,,,,0,33,33,33,,,,,,,,,312.2842652920008,312.2842652920008,312.2842652920008,312.2842652920008,312.2842652920008,312.2842652920008,312.2842652920008,312.2842652920008,312.17996887466745,312.2842652920008,312.2842652920008,312.2842652920008,312.17996887466745,312.2842652920008,312.2842652920008,312.2842652920008,314.3938617500007,,312.2842652920008,312.2842652920008,317.4615156250002,312.7652245420004,313.8526995830007,314.3938617500007,315.4810957920008,312.2842652920008,312.2842652920008,312.22996887466746,312.2842652920008,312.2842652920008,312.2842652920008,312.22996887466746,312.2842652920008,312.2842652920008,317.4615156250002,312.2842652920008,317.4615156250002,317.4615156250002,318.3130481670005,312.2842652920008,1,1,1.6773172079992946,reldom2_fmri_s004p,001,2024-12-11_16h43.36.064,What-B-Scan_AC,2022.2.5,None,
26,First_Order,5.0,viswhat,stimulus/viswhat_stim/blank_white.png,stimulus/viswhat_stim/blank_white.png,stimulus/viswhat_stim/land_vehicle-tank.png,stimulus/viswhat_stim/land_animal-pig.png,stimulus/viswhat_stim/blank_white.png,stimulus/viswhat_stim/type_box.png,stimulus/viswhat_stim/type_yes.png,stimulus/viswhat_stim/type_no.png,None,Type,None,Location,2,0.0,0,5.125,0,5.125,0,5.125,0,0.0,0.625,0,0.0,0,0.0,1,0.5,1,2.125,0,0.0,0,0.0,0,0.0,0,0.0,0,,,,,0,34,34,34,,,,,,,,,318.3130481670005,318.3130481670005,318.3130481670005,318.3130481670005,318.3130481670005,318.3130481670005,318.3130481670005,318.3130481670005,318.2853552916673,318.3130481670005,318.3130481670005,318.3130481670005,318.2853552916673,318.3130481670005,318.3130481670005,318.3130481670005,320.4259917920008,324.48091291700075,318.3130481670005,318.3130481670005,323.4579920420001,318.8021572080006,319.82760970800064,320.4259917920008,321.4525230830004,318.3130481670005,318.3130481670005,318.302021958334,318.3130481670005,318.3130481670005,318.3130481670005,318.302021958334,318.3130481670005,318.3130481670005,323.4579920420001,318.3130481670005,323.4579920420001,323.5258086670001,324.1557375420007,318.3130481670005,2,1,1.3384698330000901,reldom2_fmri_s004p,001,2024-12-11_16h43.36.064,What-B-Scan_AC,2022.2.5,None,
27,First_Order,5.0,viswhat,stimulus/viswhat_stim/blank_white.png,stimulus/viswhat_stim/blank_white.png,stimulus/viswhat_stim/land_animal-moose.png,stimulus/viswhat_stim/land_vehicle-vespa.png,stimulus/viswhat_stim/blank_white.png,stimulus/viswhat_stim/location_box.png,stimulus/viswhat_stim/location_yes.png,stimulus/viswhat_stim/location_no.png,None,Location,None,Location,1,0.0,0,5.125,0,5.125,0,5.125,0,0.0,0.625,0,0.0,0,0.0,1,0.5,1,2.125,0,0.0,0,0.0,0,0.0,0,0.0,0,,,,,0,35,35,35,,,,,,,,,324.48091291700075,324.48091291700075,324.48091291700075,324.48091291700075,324.48091291700075,324.48091291700075,324.48091291700075,324.48091291700075,324.3542551663334,324.48091291700075,324.48091291700075,324.48091291700075,324.3542551663334,324.48091291700075,324.48091291700075,324.48091291700075,326.58704662500077,330.61448604200086,324.48091291700075,324.48091291700075,329.71275833300024,324.95582554200064,326.04430270800003,326.58704662500077,327.6788709580005,324.48091291700075,324.48091291700075,324.4209218330001,324.48091291700075,324.48091291700075,324.48091291700075,324.4209218330001,324.48091291700075,324.48091291700075,329.71275833300024,324.48091291700075,329.71275833300024,329.71275833300024,330.61448604200086,324.48091291700075,1,1,0.6428727080001408,reldom2_fmri_s004p,001,2024-12-11_16h43.36.064,What-B-Scan_AC,2022.2.5,None,
28,First_Order,5.0,viswhat,stimulus/viswhat_stim/blank_white.png,stimulus/viswhat_stim/blank_white.png,stimulus/viswhat_stim/land_animal-giraffe.png,stimulus/viswhat_stim/water_animal-squid.png,stimulus/viswhat_stim/blank_white.png,stimulus/viswhat_stim/location_box.png,stimulus/viswhat_stim/location_yes.png,stimulus/viswhat_stim/location_no.png,None,Location,None,Type,2,0.0,0,5.125,0,5.125,0,5.125,0,0.0,0.625,0,0.0,0,0.0,1,0.5,1,2.125,0,0.0,0,0.0,0,0.0,0,0.0,0,,,,,0,36,36,36,,,,,,,,,330.61448604200086,330.61448604200086,330.61448604200086,330.61448604200086,330.61448604200086,330.61448604200086,330.61448604200086,330.61448604200086,330.51923841633374,330.61448604200086,330.61448604200086,330.61448604200086,330.51923841633374,330.61448604200086,330.61448604200086,330.61448604200086,332.6943536250001,336.75553041700005,330.61448604200086,330.61448604200086,335.786932125,331.0619732080004,332.1314598750005,332.6943536250001,333.767430375,330.61448604200086,330.61448604200086,330.5692384163337,330.61448604200086,330.61448604200086,330.61448604200086,330.5692384163337,330.61448604200086,330.61448604200086,335.786932125,330.61448604200086,335.786932125,335.8372202500004,336.75553041700005,330.61448604200086,2,1,1.4268071249998684,reldom2_fmri_s004p,001,2024-12-11_16h43.36.064,What-B-Scan_AC,2022.2.5,None,
0,0.0,None,fixation,stimulus/viswhat_stim/blank_white.png,stimulus/viswhat_stim/blank_white.png,stimulus/audwhat_stim/blank_white.png,stimulus/audwhat_stim/blank_white.png,stimulus/viswhat_stim/blank_white.png,stimulus/viswhat_stim/blank_white.png,stimulus/viswhat_stim/blank_white.png,stimulus/viswhat_stim/blank_white.png,0.0,0.0,0.0,0.0,0,0.0,0,0.0,0,0.0,0,0.0,0,0.0,0.0,0,0.0,0,0.0,0,0.0,0,0.0,0,0.0,0,0.0,0,0.0,0,0.0,9,,,,,0,37,37,37,,,,,,,,,336.75553041700005,336.75553041700005,336.75553041700005,336.75553041700005,336.75553041700005,336.75553041700005,336.75553041700005,336.75553041700005,336.64363400000036,336.75553041700005,336.75553041700005,336.75553041700005,336.64363400000036,336.75553041700005,336.75553041700005,336.75553041700005,336.75553041700005,336.75553041700005,336.75553041700005,336.75553041700005,336.75553041700005,336.75553041700005,336.75553041700005,336.75553041700005,336.75553041700005,336.75553041700005,336.75553041700005,336.710300666667,336.75553041700005,336.75553041700005,336.75553041700005,336.710300666667,336.75553041700005,336.75553041700005,336.75553041700005,336.75553041700005,336.75553041700005,341.96802283300076,341.96802283300076,345.8928241250005,None,0,,reldom2_fmri_s004p,001,2024-12-11_16h43.36.064,What-B-Scan_AC,2022.2.5,None,
29,Second_Order,5.0,viswhat,stimulus/viswhat_stim/water_vehicle-pirateship.png,stimulus/viswhat_stim/land_vehicle-schoolbus.png,stimulus/viswhat_stim/water_animal-dolphin.png,stimulus/viswhat_stim/land_animal-cat.png,stimulus/viswhat_stim/match_blank.png,stimulus/viswhat_stim/match_box.png,stimulus/viswhat_stim/match_yes.png,stimulus/viswhat_stim/match_no.png,1.0,Match,Type,Type,1,5.125,0,5.125,0,5.125,0,5.125,0,0.75,0.75,1,0.5,1,2.125,1,0.5,1,2.125,0,0.0,0,0.0,0,0.0,0,0.0,0,,,,,0,38,38,38,,,,,,,,,345.8928241250005,351.01492679200055,346.3660861670005,347.35565054200015,347.991433958,348.9889037920002,345.8928241250005,345.8928241250005,345.8954908753341,345.8928241250005,345.8928241250005,345.8928241250005,345.8954908753341,345.8928241250005,351.01492679200055,351.8216086250004,353.9126781670002,357.8756284580004,351.8216086250004,351.8216086250004,356.95728520800003,352.2787366250004,353.3237664170001,353.9126781670002,354.9309667920006,351.8216086250004,351.8216086250004,351.79998275000054,351.8216086250004,351.8216086250004,351.8216086250004,351.79998275000054,351.8216086250004,351.8216086250004,356.95728520800003,351.8216086250004,356.95728520800003,357.01123800000005,,351.8216086250004,1,1,0.8974765000002662,reldom2_fmri_s004p,001,2024-12-11_16h43.36.064,What-B-Scan_AC,2022.2.5,None,
30,Second_Order,5.0,viswhat,stimulus/viswhat_stim/water_animal-orka.png,stimulus/viswhat_stim/land_animal-bunny.png,stimulus/viswhat_stim/land_vehicle-motorcycle.png,stimulus/viswhat_stim/water_vehicle-motorboatraft.png,stimulus/viswhat_stim/match_blank.png,stimulus/viswhat_stim/match_box.png,stimulus/viswhat_stim/match_yes.png,stimulus/viswhat_stim/match_no.png,1.0,Match,Type,Type,1,5.125,0,5.125,0,5.125,0,5.125,0,0.625,0.625,1,0.5,1,2.125,1,0.5,1,2.125,0,0.0,0,0.0,0,0.0,0,0.0,0,,,,,0,39,39,39,,,,,,,,,357.8756284580004,362.99228462500014,358.2809002920003,359.27902016700045,359.9021582080004,360.89938000000075,357.8756284580004,357.8756284580004,357.88787725000054,357.8756284580004,357.8756284580004,357.8756284580004,357.88787725000054,357.8756284580004,362.99228462500014,363.6662334170005,365.7513907500006,369.8020207080008,363.6662334170005,363.6662334170005,368.8065501250003,364.11984029200084,365.1472902500009,365.7513907500006,366.78118316700056,363.6662334170005,363.6662334170005,363.6391362913341,363.6662334170005,363.6662334170005,363.6662334170005,363.6391362913341,363.6662334170005,363.6662334170005,368.8065501250003,363.6662334170005,368.8065501250003,368.88007754200044,369.51878654200027,363.6662334170005,1,1,1.7914727909992507,reldom2_fmri_s004p,001,2024-12-11_16h43.36.064,What-B-Scan_AC,2022.2.5,None,
0,0.0,None,fixation,stimulus/viswhat_stim/blank_white.png,stimulus/viswhat_stim/blank_white.png,stimulus/audwhat_stim/blank_white.png,stimulus/audwhat_stim/blank_white.png,stimulus/viswhat_stim/blank_white.png,stimulus/viswhat_stim/blank_white.png,stimulus/viswhat_stim/blank_white.png,stimulus/viswhat_stim/blank_white.png,0.0,0.0,0.0,0.0,0,0.0,0,0.0,0,0.0,0,0.0,0,0.0,0.0,0,0.0,0,0.0,0,0.0,0,0.0,0,0.0,0,0.0,0,0.0,0,0.0,9,,,,,0,40,40,40,,,,,,,,,369.8020207080008,369.8020207080008,369.8020207080008,369.8020207080008,369.8020207080008,369.8020207080008,369.8020207080008,369.8020207080008,369.7087495416671,369.8020207080008,369.8020207080008,369.8020207080008,369.7087495416671,369.8020207080008,369.8020207080008,369.8020207080008,369.8020207080008,369.8020207080008,369.8020207080008,369.8020207080008,369.8020207080008,369.8020207080008,369.8020207080008,369.8020207080008,369.8020207080008,369.8020207080008,369.8020207080008,369.75874954166704,369.8020207080008,369.8020207080008,369.8020207080008,369.75874954166704,369.8020207080008,369.8020207080008,369.8020207080008,369.8020207080008,369.8020207080008,375.02160916700086,375.02160916700086,379.06912679200013,None,0,,reldom2_fmri_s004p,001,2024-12-11_16h43.36.064,What-B-Scan_AC,2022.2.5,None,
31,First_Order,6.0,viswhat,stimulus/viswhat_stim/blank_white.png,stimulus/viswhat_stim/blank_white.png,stimulus/viswhat_stim/water_vehicle-ship.png,stimulus/viswhat_stim/land_vehicle-schoolbus.png,stimulus/viswhat_stim/blank_white.png,stimulus/viswhat_stim/location_box.png,stimulus/viswhat_stim/location_yes.png,stimulus/viswhat_stim/location_no.png,None,Location,None,Type,2,0.0,0,5.125,0,5.125,0,5.125,0,0.0,0.625,0,0.0,0,0.0,1,0.5,1,2.125,0,0.0,0,0.0,0,0.0,0,0.0,0,,,,,0,41,41,41,,,,,,,,,379.06912679200013,379.06912679200013,379.06912679200013,379.06912679200013,379.06912679200013,379.06912679200013,379.06912679200013,379.06912679200013,378.96310370866706,379.06912679200013,379.06912679200013,379.06912679200013,378.96310370866706,379.06912679200013,379.06912679200013,379.06912679200013,381.14769162500033,,379.06912679200013,379.06912679200013,384.26387929200064,379.55971641700035,380.66040104200056,381.14769162500033,382.2500206250006,379.06912679200013,379.06912679200013,379.0131037086671,379.06912679200013,379.06912679200013,379.06912679200013,379.0131037086671,379.06912679200013,379.06912679200013,384.26387929200064,379.06912679200013,384.26387929200064,384.26387929200064,384.92693704200065,379.06912679200013,2,1,1.8106007919996046,reldom2_fmri_s004p,001,2024-12-11_16h43.36.064,What-B-Scan_AC,2022.2.5,None,
32,First_Order,6.0,viswhat,stimulus/viswhat_stim/blank_white.png,stimulus/viswhat_stim/blank_white.png,stimulus/viswhat_stim/land_vehicle-bus.png,stimulus/viswhat_stim/water_vehicle-jetski.png,stimulus/viswhat_stim/blank_white.png,stimulus/viswhat_stim/type_box.png,stimulus/viswhat_stim/type_yes.png,stimulus/viswhat_stim/type_no.png,None,Type,None,Type,1,0.0,0,5.125,0,5.125,0,5.125,0,0.0,0.625,0,0.0,0,0.0,1,0.5,1,2.125,0,0.0,0,0.0,0,0.0,0,0.0,0,,,,,0,42,42,42,,,,,,,,,385.13698770800056,385.13698770800056,385.13698770800056,385.13698770800056,385.13698770800056,385.13698770800056,385.13698770800056,385.13698770800056,385.0936037086673,385.13698770800056,385.13698770800056,385.13698770800056,385.0936037086673,385.13698770800056,385.13698770800056,385.13698770800056,387.2371993330007,391.2372335,385.13698770800056,385.13698770800056,390.2925737500009,385.6117300420001,386.6462110830007,387.2371993330007,388.2499796250004,385.13698770800056,385.13698770800056,385.110270375334,385.13698770800056,385.13698770800056,385.13698770800056,385.110270375334,385.13698770800056,385.13698770800056,390.2925737500009,385.13698770800056,390.2925737500009,390.3637012500003,391.00711825000053,385.13698770800056,1,1,1.1969703329996264,reldom2_fmri_s004p,001,2024-12-11_16h43.36.064,What-B-Scan_AC,2022.2.5,None,
33,First_Order,6.0,viswhat,stimulus/viswhat_stim/blank_white.png,stimulus/viswhat_stim/blank_white.png,stimulus/viswhat_stim/water_animal-seahorse.png,stimulus/viswhat_stim/water_vehicle-cabincruiser.png,stimulus/viswhat_stim/blank_white.png,stimulus/viswhat_stim/type_box.png,stimulus/viswhat_stim/type_yes.png,stimulus/viswhat_stim/type_no.png,None,Type,None,Location,2,0.0,0,5.125,0,5.125,0,5.125,0,0.0,0.625,0,0.0,0,0.0,1,0.5,1,2.125,0,0.0,0,0.0,0,0.0,0,0.0,0,,,,,0,43,43,43,,,,,,,,,391.2372335,391.2372335,391.2372335,391.2372335,391.2372335,391.2372335,391.2372335,391.2372335,391.1786802500006,391.2372335,391.2372335,391.2372335,391.1786802500006,391.2372335,391.2372335,391.2372335,393.3428495830003,397.3535240420006,391.2372335,391.2372335,396.40082104200064,391.69399095800054,392.74618091700086,393.3428495830003,394.3669249170007,391.2372335,391.2372335,391.21201358333394,391.2372335,391.2372335,391.2372335,391.21201358333394,391.2372335,391.2372335,396.40082104200064,391.2372335,396.40082104200064,396.45946104200084,397.1063425000002,391.2372335,2,1,1.640646416999516,reldom2_fmri_s004p,001,2024-12-11_16h43.36.064,What-B-Scan_AC,2022.2.5,None,
34,First_Order,6.0,viswhat,stimulus/viswhat_stim/blank_white.png,stimulus/viswhat_stim/blank_white.png,stimulus/viswhat_stim/land_animal-tiger.png,stimulus/viswhat_stim/water_animal-octopus.png,stimulus/viswhat_stim/blank_white.png,stimulus/viswhat_stim/type_box.png,stimulus/viswhat_stim/type_yes.png,stimulus/viswhat_stim/type_no.png,None,Type,None,Type,1,0.0,0,5.125,0,5.125,0,5.125,0,0.0,0.625,0,0.0,0,0.0,1,0.5,1,2.125,0,0.0,0,0.0,0,0.0,0,0.0,0,,,,,0,44,44,44,,,,,,,,,397.3535240420006,397.3535240420006,397.3535240420006,397.3535240420006,397.3535240420006,397.3535240420006,397.3535240420006,397.3535240420006,397.2813147496671,397.3535240420006,397.3535240420006,397.3535240420006,397.2813147496671,397.3535240420006,397.3535240420006,397.3535240420006,399.4581289580001,403.4917717920007,397.3535240420006,397.3535240420006,402.5328897920008,397.83800158300073,398.8896022500003,399.4581289580001,400.5142930000002,397.3535240420006,397.3535240420006,397.3146480830004,397.3535240420006,397.3535240420006,397.3535240420006,397.3146480830004,397.3535240420006,397.3535240420006,402.5328897920008,397.3535240420006,402.5328897920008,402.5713631670005,403.2200102500001,397.3535240420006,1,1,1.1512009580001177,reldom2_fmri_s004p,001,2024-12-11_16h43.36.064,What-B-Scan_AC,2022.2.5,None,
0,0.0,None,fixation,stimulus/viswhat_stim/blank_white.png,stimulus/viswhat_stim/blank_white.png,stimulus/audwhat_stim/blank_white.png,stimulus/audwhat_stim/blank_white.png,stimulus/viswhat_stim/blank_white.png,stimulus/viswhat_stim/blank_white.png,stimulus/viswhat_stim/blank_white.png,stimulus/viswhat_stim/blank_white.png,0.0,0.0,0.0,0.0,0,0.0,0,0.0,0,0.0,0,0.0,0,0.0,0.0,0,0.0,0,0.0,0,0.0,0,0.0,0,0.0,0,0.0,0,0.0,0,0.0,8,,,,,0,45,45,45,,,,,,,,,403.4917717920007,403.4917717920007,403.4917717920007,403.4917717920007,403.4917717920007,403.4917717920007,403.4917717920007,403.4917717920007,403.39110754133355,403.4917717920007,403.4917717920007,403.4917717920007,403.39110754133355,403.4917717920007,403.4917717920007,403.4917717920007,403.4917717920007,403.4917717920007,403.4917717920007,403.4917717920007,403.4917717920007,403.4917717920007,403.4917717920007,403.4917717920007,403.4917717920007,403.4917717920007,403.4917717920007,403.44110754133357,403.4917717920007,403.4917717920007,403.4917717920007,403.44110754133357,403.4917717920007,403.4917717920007,403.4917717920007,403.4917717920007,403.4917717920007,408.70120700000007,408.70120700000007,411.64922600000045,None,0,,reldom2_fmri_s004p,001,2024-12-11_16h43.36.064,What-B-Scan_AC,2022.2.5,None,
35,Second_Order,6.0,viswhat,stimulus/viswhat_stim/land_animal-wolf.png,stimulus/viswhat_stim/land_vehicle-schoolbus.png,stimulus/viswhat_stim/water_animal-shark.png,stimulus/viswhat_stim/water_vehicle-ship.png,stimulus/viswhat_stim/match_blank.png,stimulus/viswhat_stim/match_box.png,stimulus/viswhat_stim/match_yes.png,stimulus/viswhat_stim/match_no.png,1.0,Match,Location,Location,1,5.125,0,5.125,0,5.125,0,5.125,0,0.75,0.75,1,0.5,1,2.125,1,0.5,1,2.125,0,0.0,0,0.0,0,0.0,0,0.0,0,,,,,0,46,46,46,,,,,,,,,411.64922600000045,416.7668112500005,412.1217299580003,413.11988504200053,413.74392870800057,414.7403720830007,411.64922600000045,411.64922600000045,411.65456108333376,411.64922600000045,411.64922600000045,411.64922600000045,411.65456108333376,411.64922600000045,416.7668112500005,417.64284987500014,419.691472042,,417.64284987500014,417.64284987500014,422.8775406250006,418.06618037500084,419.1261161250004,419.691472042,420.75662058300077,417.64284987500014,417.64284987500014,417.58370508333365,417.64284987500014,417.64284987500014,417.64284987500014,417.58370508333365,417.64284987500014,417.64284987500014,422.8775406250006,417.64284987500014,422.8775406250006,422.812262292,,417.64284987500014,1,1,2.4103527910001503,reldom2_fmri_s004p,001,2024-12-11_16h43.36.064,What-B-Scan_AC,2022.2.5,None,
36,Second_Order,6.0,viswhat,stimulus/viswhat_stim/land_vehicle-oldcar.png,stimulus/viswhat_stim/land_animal-cat.png,stimulus/viswhat_stim/water_vehicle-cargoboat.png,stimulus/viswhat_stim/water_animal-orka.png,stimulus/viswhat_stim/match_blank.png,stimulus/viswhat_stim/match_box.png,stimulus/viswhat_stim/match_yes.png,stimulus/viswhat_stim/match_no.png,1.0,Match,Location,Location,1,5.125,0,5.125,0,5.125,0,5.125,0,0.625,0.625,1,0.5,1,2.125,1,0.5,1,2.125,0,0.0,0,0.0,0,0.0,0,0.0,0,,,,,0,47,47,47,,,,,,,,,423.63390891700055,428.75616983300006,424.0826872920006,425.08103391700024,425.70338212500064,426.7013274580004,423.63390891700055,423.63390891700055,423.64560095833343,423.63390891700055,423.63390891700055,423.63390891700055,423.64560095833343,423.63390891700055,428.75616983300006,429.5181272920008,431.5882442080001,,429.5181272920008,429.5181272920008,434.7235639170003,429.9843094580001,431.0544214170004,431.5882442080001,432.65741479200005,429.5181272920008,429.5181272920008,429.45753245833413,429.5181272920008,429.5181272920008,429.5181272920008,429.45753245833413,429.5181272920008,429.5181272920008,434.7235639170003,429.5181272920008,434.7235639170003,434.7235639170003,435.6182535000007,429.5181272920008,1,1,1.1409455419989172,reldom2_fmri_s004p,001,2024-12-11_16h43.36.064,What-B-Scan_AC,2022.2.5,None,
0,0.0,None,fixation,stimulus/viswhat_stim/blank_white.png,stimulus/viswhat_stim/blank_white.png,stimulus/audwhat_stim/blank_white.png,stimulus/audwhat_stim/blank_white.png,stimulus/viswhat_stim/blank_white.png,stimulus/viswhat_stim/blank_white.png,stimulus/viswhat_stim/blank_white.png,stimulus/viswhat_stim/blank_white.png,0.0,0.0,0.0,0.0,0,0.0,0,0.0,0,0.0,0,0.0,0,0.0,0.0,0,0.0,0,0.0,0,0.0,0,0.0,0,0.0,0,0.0,0,0.0,0,0.0,10,,,,,0,48,48,48,,,,,,,,,435.6182535000007,435.6182535000007,435.6182535000007,435.6182535000007,435.6182535000007,435.6182535000007,435.6182535000007,435.6182535000007,435.5176565003339,435.6182535000007,435.6182535000007,435.6182535000007,435.5176565003339,435.6182535000007,435.6182535000007,435.6182535000007,435.6182535000007,435.6182535000007,435.6182535000007,435.6182535000007,435.6182535000007,435.6182535000007,435.6182535000007,435.6182535000007,435.6182535000007,435.6182535000007,435.6182535000007,435.56765650033384,435.6182535000007,435.6182535000007,435.6182535000007,435.56765650033384,435.6182535000007,435.6182535000007,435.6182535000007,435.6182535000007,435.6182535000007,440.84190975,440.84190975,445.88860233300056,None,0,,reldom2_fmri_s004p,001,2024-12-11_16h43.36.064,What-B-Scan_AC,2022.2.5,None,
37,First_Order,7.0,audwhat,stimulus/audwhat_stim/dummy.wav,stimulus/audwhat_stim/dummy.wav,stimulus/audwhat_stim/string viola_low-pitch_Ftri_loud.wav,stimulus/audwhat_stim/string viola_high-pitch_Dtri_loud.wav,stimulus/audwhat_stim/blank_white.png,stimulus/audwhat_stim/category_box.png,stimulus/audwhat_stim/category_yes.png,stimulus/audwhat_stim/category_no.png,None,Category,None,Category,1,0.0,0,5.125,0,5.125,0,5.125,0,0.0,0.625,0,0.0,0,0.0,0,0.0,0,0.0,0,0.0,0,0.0,1,0.5,1,2.125,0,,,,,0,49,49,49,,,,,,,,,445.88860233300056,445.88860233300056,445.88860233300056,445.88860233300056,445.88860233300056,445.88860233300056,445.88860233300056,445.88860233300056,445.81156708366746,445.88860233300056,445.88860233300056,445.88860233300056,445.81156708366746,445.88860233300056,445.88860233300056,445.88860233300056,447.9668729170007,452.00715991700054,445.88860233300056,445.88860233300056,451.082346958,445.88860233300056,445.88860233300056,445.88860233300056,445.88860233300056,446.3603980830003,447.3996055000007,446.32947354166686,,447.9668729170007,449.00647175000086,447.93588662466686,,445.88860233300056,451.082346958,445.88860233300056,451.082346958,451.082346958,451.7497487080009,445.88860233300056,1,1,1.044704832998832,reldom2_fmri_s004p,001,2024-12-11_16h43.36.064,What-B-Scan_AC,2022.2.5,None,
38,First_Order,7.0,audwhat,stimulus/audwhat_stim/dummy.wav,stimulus/audwhat_stim/dummy.wav,stimulus/audwhat_stim/percussion mallet_high-pitch_D_loud.wav,stimulus/audwhat_stim/string viola_high-pitch_D_loud.wav,stimulus/audwhat_stim/blank_white.png,stimulus/audwhat_stim/pitch_box.png,stimulus/audwhat_stim/pitch_yes.png,stimulus/audwhat_stim/pitch_no.png,None,Pitch,None,Pitch,1,0.0,0,5.125,0,5.125,0,5.125,0,0.0,0.625,0,0.0,0,0.0,0,0.0,0,0.0,0,0.0,0,0.0,1,0.5,1,2.125,0,,,,,0,50,50,50,,,,,,,,,452.00715991700054,452.00715991700054,452.00715991700054,452.00715991700054,452.00715991700054,452.00715991700054,452.00715991700054,452.00715991700054,451.92453779133405,452.00715991700054,452.00715991700054,452.00715991700054,451.92453779133405,452.00715991700054,452.00715991700054,452.00715991700054,454.077296292,,452.00715991700054,452.00715991700054,457.1820010000001,452.00715991700054,452.00715991700054,452.00715991700054,452.00715991700054,452.4777337080004,453.5134817500002,452.44696412466715,,454.077296292,455.1147868750004,454.0472525416674,,452.00715991700054,457.1820010000001,452.00715991700054,457.1820010000001,457.2234943330004,457.8875867500001,452.00715991700054,1,1,0.9464217079994341,reldom2_fmri_s004p,001,2024-12-11_16h43.36.064,What-B-Scan_AC,2022.2.5,None,
39,First_Order,7.0,audwhat,stimulus/audwhat_stim/dummy.wav,stimulus/audwhat_stim/dummy.wav,stimulus/audwhat_stim/string viola_low-pitch_Dtri_loud.wav,stimulus/audwhat_stim/percussion mallet_low-pitch_Dtri_loud.wav,stimulus/audwhat_stim/blank_white.png,stimulus/audwhat_stim/category_box.png,stimulus/audwhat_stim/category_yes.png,stimulus/audwhat_stim/category_no.png,None,Category,None,Pitch,2,0.0,0,5.125,0,5.125,0,5.125,0,0.0,0.625,0,0.0,0,0.0,0,0.0,0,0.0,0,0.0,0,0.0,1,0.5,1,2.125,0,,,,,0,51,51,51,,,,,,,,,458.1046962500004,458.1046962500004,458.1046962500004,458.1046962500004,458.1046962500004,458.1046962500004,458.1046962500004,458.1046962500004,458.0209200833334,458.1046962500004,458.1046962500004,458.1046962500004,458.0209200833334,458.1046962500004,458.1046962500004,458.1046962500004,460.1860562080001,464.2259478750002,458.1046962500004,458.1046962500004,463.2552607920006,458.1046962500004,458.1046962500004,458.1046962500004,458.1046962500004,458.57699904200035,459.61802566700044,458.5467004996674,,460.1860562080001,461.22688845800076,460.15453624966744,,458.1046962500004,463.2552607920006,458.1046962500004,463.2552607920006,463.2972372920003,463.9641853330004,458.1046962500004,2,1,0.7417184169999018,reldom2_fmri_s004p,001,2024-12-11_16h43.36.064,What-B-Scan_AC,2022.2.5,None,
40,First_Order,7.0,audwhat,stimulus/audwhat_stim/dummy.wav,stimulus/audwhat_stim/dummy.wav,stimulus/audwhat_stim/string viola_high-pitch_F_loud.wav,stimulus/audwhat_stim/string viola_low-pitch_Ftri_loud.wav,stimulus/audwhat_stim/blank_white.png,stimulus/audwhat_stim/pitch_box.png,stimulus/audwhat_stim/pitch_yes.png,stimulus/audwhat_stim/pitch_no.png,None,Pitch,None,Category,2,0.0,0,5.125,0,5.125,0,5.125,0,0.0,0.625,0,0.0,0,0.0,0,0.0,0,0.0,0,0.0,0,0.0,1,0.5,1,2.125,0,,,,,0,52,52,52,,,,,,,,,464.2259478750002,464.2259478750002,464.2259478750002,464.2259478750002,464.2259478750002,464.2259478750002,464.2259478750002,464.2259478750002,464.1392596253337,464.2259478750002,464.2259478750002,464.2259478750002,464.1392596253337,464.2259478750002,464.2259478750002,464.2259478750002,466.2998094580007,,464.2259478750002,464.2259478750002,469.40736908300005,464.2259478750002,464.2259478750002,464.2259478750002,464.2259478750002,464.6972722500004,465.7349897080003,464.66638545866704,,466.2998094580007,467.3391436670008,466.2691804586668,,464.2259478750002,469.40736908300005,464.2259478750002,469.40736908300005,469.4493673750003,470.11662850000084,464.2259478750002,2,1,0.8391141659994901,reldom2_fmri_s004p,001,2024-12-11_16h43.36.064,What-B-Scan_AC,2022.2.5,None,
0,0.0,None,fixation,stimulus/viswhat_stim/blank_white.png,stimulus/viswhat_stim/blank_white.png,stimulus/audwhat_stim/blank_white.png,stimulus/audwhat_stim/blank_white.png,stimulus/viswhat_stim/blank_white.png,stimulus/viswhat_stim/blank_white.png,stimulus/viswhat_stim/blank_white.png,stimulus/viswhat_stim/blank_white.png,0.0,0.0,0.0,0.0,0,0.0,0,0.0,0,0.0,0,0.0,0,0.0,0.0,0,0.0,0,0.0,0,0.0,0,0.0,0,0.0,0,0.0,0,0.0,0,0.0,9,,,,,0,53,53,53,,,,,,,,,470.35609679200024,470.35609679200024,470.35609679200024,470.35609679200024,470.35609679200024,470.35609679200024,470.35609679200024,470.35609679200024,470.24996183333417,470.35609679200024,470.35609679200024,470.35609679200024,470.24996183333417,470.35609679200024,470.35609679200024,470.35609679200024,470.35609679200024,470.35609679200024,470.35609679200024,470.35609679200024,470.35609679200024,470.35609679200024,470.35609679200024,470.35609679200024,470.35609679200024,470.35609679200024,470.35609679200024,470.31662850000083,470.35609679200024,470.35609679200024,470.35609679200024,470.31662850000083,470.35609679200024,470.35609679200024,470.35609679200024,470.35609679200024,470.35609679200024,475.56900208300067,475.56900208300067,479.5156417500002,None,0,,reldom2_fmri_s004p,001,2024-12-11_16h43.36.064,What-B-Scan_AC,2022.2.5,None,
41,Second_Order,7.0,audwhat,stimulus/audwhat_stim/percussion mallet_low-pitch_F_loud.wav,stimulus/audwhat_stim/percussion mallet_high-pitch_D_loud.wav,stimulus/audwhat_stim/string cello_low-pitch_Dtri_loud.wav,stimulus/audwhat_stim/string viola_high-pitch_F_loud.wav,stimulus/viswhat_stim/match_blank.png,stimulus/viswhat_stim/match_box.png,stimulus/viswhat_stim/match_yes.png,stimulus/viswhat_stim/match_no.png,1.0,Match,Category,Category,1,5.125,0,5.125,0,5.125,0,5.125,0,0.75,0.75,0,0.0,0,0.0,0,0.0,0,0.0,1,0.5,1,2.125,1,0.5,1,2.125,0,,,,,0,54,54,54,,,,,,,,,479.5156417500002,484.63967912500084,479.5156417500002,479.5156417500002,479.5156417500002,479.5156417500002,479.96142670800054,480.94727220800087,479.9740434996668,480.9675364170007,481.59456537500046,482.5879348750004,481.5978169166667,482.5879348750004,484.63967912500084,485.47089983300066,487.5394013750001,,485.47089983300066,485.47089983300066,490.63957420800034,485.47089983300066,485.47089983300066,485.47089983300066,485.47089983300066,485.94066470800044,486.9744731670007,485.9103050836668,,487.5394013750001,488.57773158300006,487.5081347496673,,485.47089983300066,490.63957420800034,485.47089983300066,490.63957420800034,490.68140091700025,,485.47089983300066,1,1,0.455754290999721,reldom2_fmri_s004p,001,2024-12-11_16h43.36.064,What-B-Scan_AC,2022.2.5,None,
42,Second_Order,7.0,audwhat,stimulus/audwhat_stim/percussion mallet_high-pitch_Ftri_loud.wav,stimulus/audwhat_stim/percussion mallet_low-pitch_F_loud.wav,stimulus/audwhat_stim/percussion mallet_low-pitch_Dtri_loud.wav,stimulus/audwhat_stim/string viola_low-pitch_Dtri_loud.wav,stimulus/viswhat_stim/match_blank.png,stimulus/viswhat_stim/match_box.png,stimulus/viswhat_stim/match_yes.png,stimulus/viswhat_stim/match_no.png,2.0,Match,Category,Pitch,2,5.125,0,5.125,0,5.125,0,5.125,0,0.625,0.625,0,0.0,0,0.0,0,0.0,0,0.0,1,0.5,1,2.125,1,0.5,1,2.125,0,,,,,0,55,55,55,,,,,,,,,491.4617295420003,496.58551500000067,491.4617295420003,491.4617295420003,491.4617295420003,491.4617295420003,491.9184203750001,492.907839083,491.92154970866727,492.9205350000002,493.5436019580002,494.5411350830009,493.555638916667,494.5495106670005,496.58551500000067,497.2959554170002,499.35359400000016,503.42539529200076,497.2959554170002,497.2959554170002,502.4471294170007,497.2959554170002,497.2959554170002,497.2959554170002,497.2959554170002,497.7624476250003,498.792538875,497.73255824966714,,499.35359400000016,500.38831041700087,499.3233051246673,,497.2959554170002,502.4471294170007,497.2959554170002,502.4471294170007,502.48792958300055,503.1483077920002,497.2959554170002,2,1,0.4284414169997035,reldom2_fmri_s004p,001,2024-12-11_16h43.36.064,What-B-Scan_AC,2022.2.5,None,
0,0.0,None,fixation,stimulus/viswhat_stim/blank_white.png,stimulus/viswhat_stim/blank_white.png,stimulus/audwhat_stim/blank_white.png,stimulus/audwhat_stim/blank_white.png,stimulus/viswhat_stim/blank_white.png,stimulus/viswhat_stim/blank_white.png,stimulus/viswhat_stim/blank_white.png,stimulus/viswhat_stim/blank_white.png,0.0,0.0,0.0,0.0,0,0.0,0,0.0,0,0.0,0,0.0,0,0.0,0.0,0,0.0,0,0.0,0,0.0,0,0.0,0,0.0,0,0.0,0,0.0,0,0.0,9,,,,,0,56,56,56,,,,,,,,,503.42539529200076,503.42539529200076,503.42539529200076,503.42539529200076,503.42539529200076,503.42539529200076,503.42539529200076,503.42539529200076,503.32256429133406,503.42539529200076,503.42539529200076,503.42539529200076,503.32256429133406,503.42539529200076,503.42539529200076,503.42539529200076,503.42539529200076,503.42539529200076,503.42539529200076,503.42539529200076,503.42539529200076,503.42539529200076,503.42539529200076,503.42539529200076,503.42539529200076,503.42539529200076,503.42539529200076,503.3725642913341,503.42539529200076,503.42539529200076,503.42539529200076,503.3725642913341,503.42539529200076,503.42539529200076,503.42539529200076,503.42539529200076,503.42539529200076,508.64842195800065,508.64842195800065,512.6702683330004,None,0,,reldom2_fmri_s004p,001,2024-12-11_16h43.36.064,What-B-Scan_AC,2022.2.5,None,
43,First_Order,8.0,audwhat,stimulus/audwhat_stim/dummy.wav,stimulus/audwhat_stim/dummy.wav,stimulus/audwhat_stim/string cello_high-pitch_D_loud.wav,stimulus/audwhat_stim/string cello_low-pitch_F_loud.wav,stimulus/audwhat_stim/blank_white.png,stimulus/audwhat_stim/pitch_box.png,stimulus/audwhat_stim/pitch_yes.png,stimulus/audwhat_stim/pitch_no.png,None,Pitch,None,Category,2,0.0,0,5.125,0,5.125,0,5.125,0,0.0,0.625,0,0.0,0,0.0,0,0.0,0,0.0,0,0.0,0,0.0,1,0.5,1,2.125,0,,,,,0,57,57,57,,,,,,,,,512.6702683330004,512.6702683330004,512.6702683330004,512.6702683330004,512.6702683330004,512.6702683330004,512.6702683330004,512.6702683330004,512.5931397916671,512.6702683330004,512.6702683330004,512.6702683330004,512.5931397916671,512.6702683330004,512.6702683330004,512.6702683330004,514.7398553750008,,512.6702683330004,512.6702683330004,517.8508091250005,512.6702683330004,512.6702683330004,512.6702683330004,512.6702683330004,513.1408223750004,514.1772323330006,513.1099197496671,,514.7398553750008,515.7806617920005,514.7100101246672,,512.6702683330004,517.8508091250005,512.6702683330004,517.8508091250005,517.8923091250008,518.5550387920002,512.6702683330004,2,1,1.098237416000302,reldom2_fmri_s004p,001,2024-12-11_16h43.36.064,What-B-Scan_AC,2022.2.5,None,
44,First_Order,8.0,audwhat,stimulus/audwhat_stim/dummy.wav,stimulus/audwhat_stim/dummy.wav,stimulus/audwhat_stim/percussion mallet_low-pitch_F_loud.wav,stimulus/audwhat_stim/string cello_low-pitch_F_loud.wav,stimulus/audwhat_stim/blank_white.png,stimulus/audwhat_stim/pitch_box.png,stimulus/audwhat_stim/pitch_yes.png,stimulus/audwhat_stim/pitch_no.png,None,Pitch,None,Pitch,1,0.0,0,5.125,0,5.125,0,5.125,0,0.0,0.625,0,0.0,0,0.0,0,0.0,0,0.0,0,0.0,0,0.0,1,0.5,1,2.125,0,,,,,0,58,58,58,,,,,,,,,518.7714311250002,518.7714311250002,518.7714311250002,518.7714311250002,518.7714311250002,518.7714311250002,518.7714311250002,518.7714311250002,518.6883721253336,518.7714311250002,518.7714311250002,518.7714311250002,518.6883721253336,518.7714311250002,518.7714311250002,518.7714311250002,520.8880219580005,,518.7714311250002,518.7714311250002,523.9533657920001,518.7714311250002,518.7714311250002,518.7714311250002,518.7714311250002,519.2420615000001,520.2781318330008,519.2118853336672,,520.8880219580005,521.9288082080002,520.8576581666669,,518.7714311250002,523.9533657920001,518.7714311250002,523.9533657920001,523.9948749170007,524.6612430000005,518.7714311250002,1,1,1.1097094159995322,reldom2_fmri_s004p,001,2024-12-11_16h43.36.064,What-B-Scan_AC,2022.2.5,None,
45,First_Order,8.0,audwhat,stimulus/audwhat_stim/dummy.wav,stimulus/audwhat_stim/dummy.wav,stimulus/audwhat_stim/string viola_low-pitch_Dtri_loud.wav,stimulus/audwhat_stim/string cello_high-pitch_Ftri_loud.wav,stimulus/audwhat_stim/blank_white.png,stimulus/audwhat_stim/category_box.png,stimulus/audwhat_stim/category_yes.png,stimulus/audwhat_stim/category_no.png,None,Category,None,Category,1,0.0,0,5.125,0,5.125,0,5.125,0,0.0,0.625,0,0.0,0,0.0,0,0.0,0,0.0,0,0.0,0,0.0,1,0.5,1,2.125,0,,,,,0,59,59,59,,,,,,,,,524.8784166250007,524.8784166250007,524.8784166250007,524.8784166250007,524.8784166250007,524.8784166250007,524.8784166250007,524.8784166250007,524.7945763333338,524.8784166250007,524.8784166250007,524.8784166250007,524.7945763333338,524.8784166250007,524.8784166250007,524.8784166250007,526.9596131670005,530.9998022500004,524.8784166250007,524.8784166250007,530.0356952500006,524.8784166250007,524.8784166250007,524.8784166250007,524.8784166250007,525.3519030830003,526.3942919170004,525.3211833746675,,526.9596131670005,528.004646333,526.9289149166673,,524.8784166250007,530.0356952500006,524.8784166250007,530.0356952500006,530.0768768750004,530.7416223750006,524.8784166250007,1,1,0.48034329100028117,reldom2_fmri_s004p,001,2024-12-11_16h43.36.064,What-B-Scan_AC,2022.2.5,None,
46,First_Order,8.0,audwhat,stimulus/audwhat_stim/dummy.wav,stimulus/audwhat_stim/dummy.wav,stimulus/audwhat_stim/string viola_high-pitch_Ftri_loud.wav,stimulus/audwhat_stim/percussion xylophone_high-pitch_Ftri_loud.wav,stimulus/audwhat_stim/blank_white.png,stimulus/audwhat_stim/category_box.png,stimulus/audwhat_stim/category_yes.png,stimulus/audwhat_stim/category_no.png,None,Category,None,Pitch,2,0.0,0,5.125,0,5.125,0,5.125,0,0.0,0.625,0,0.0,0,0.0,0,0.0,0,0.0,0,0.0,0,0.0,1,0.5,1,2.125,0,,,,,0,60,60,60,,,,,,,,,530.9998022500004,530.9998022500004,530.9998022500004,530.9998022500004,530.9998022500004,530.9998022500004,530.9998022500004,530.9998022500004,530.9162053753336,530.9998022500004,530.9998022500004,530.9998022500004,530.9162053753336,530.9998022500004,530.9998022500004,530.9998022500004,533.0806847080003,,530.9998022500004,530.9998022500004,536.1703075830001,530.9998022500004,530.9998022500004,530.9998022500004,530.9998022500004,531.472536708,532.5140861670006,531.4416248336668,,533.0806847080003,534.1308288330001,533.0496201246672,534.1308288330001,530.9998022500004,536.1703075830001,530.9998022500004,536.1703075830001,536.2123906670004,536.8757490830003,530.9998022500004,2,1,0.487760291000086,reldom2_fmri_s004p,001,2024-12-11_16h43.36.064,What-B-Scan_AC,2022.2.5,None,
0,0.0,None,fixation,stimulus/viswhat_stim/blank_white.png,stimulus/viswhat_stim/blank_white.png,stimulus/audwhat_stim/blank_white.png,stimulus/audwhat_stim/blank_white.png,stimulus/viswhat_stim/blank_white.png,stimulus/viswhat_stim/blank_white.png,stimulus/viswhat_stim/blank_white.png,stimulus/viswhat_stim/blank_white.png,0.0,0.0,0.0,0.0,0,0.0,0,0.0,0,0.0,0,0.0,0,0.0,0.0,0,0.0,0,0.0,0,0.0,0,0.0,0,0.0,0,0.0,0,0.0,0,0.0,8,,,,,0,61,61,61,,,,,,,,,537.1178146250004,537.1178146250004,537.1178146250004,537.1178146250004,537.1178146250004,537.1178146250004,537.1178146250004,537.1178146250004,537.0090824163336,537.1178146250004,537.1178146250004,537.1178146250004,537.0090824163336,537.1178146250004,537.1178146250004,537.1178146250004,537.1178146250004,537.1178146250004,537.1178146250004,537.1178146250004,537.1178146250004,537.1178146250004,537.1178146250004,537.1178146250004,537.1178146250004,537.1178146250004,537.1178146250004,537.0757490830002,537.1178146250004,537.1178146250004,537.1178146250004,537.0757490830002,537.1178146250004,537.1178146250004,537.1178146250004,537.1178146250004,537.1178146250004,542.3333128330005,542.3333128330005,545.2472407500009,None,0,,reldom2_fmri_s004p,001,2024-12-11_16h43.36.064,What-B-Scan_AC,2022.2.5,None,
47,Second_Order,8.0,audwhat,stimulus/audwhat_stim/string cello_low-pitch_Dtri_loud.wav,stimulus/audwhat_stim/string viola_high-pitch_D_loud.wav,stimulus/audwhat_stim/percussion xylophone_high-pitch_F_loud.wav,stimulus/audwhat_stim/percussion mallet_low-pitch_D_loud.wav,stimulus/viswhat_stim/match_blank.png,stimulus/viswhat_stim/match_box.png,stimulus/viswhat_stim/match_yes.png,stimulus/viswhat_stim/match_no.png,1.0,Match,Category,Category,1,5.125,0,5.125,0,5.125,0,5.125,0,0.75,0.75,0,0.0,0,0.0,0,0.0,0,0.0,1,0.5,1,2.125,1,0.5,1,2.125,0,,,,,0,62,62,62,,,,,,,,,545.2472407500009,550.3698371670007,545.2472407500009,545.2472407500009,545.2472407500009,545.2472407500009,545.6950916250007,546.6813967080006,545.7094357496674,,547.3297943330008,548.3178625420005,547.3331587496671,,550.3698371670007,551.2047664170004,553.2794538330008,557.2097820000008,551.2047664170004,551.2047664170004,556.3869147500009,551.2047664170004,551.2047664170004,551.2047664170004,551.2047664170004,551.6762660420009,552.7155351670008,551.6454472916669,552.7155351670008,553.2794538330008,554.3167978330002,553.2491333336668,,551.2047664170004,556.3869147500009,551.2047664170004,556.3869147500009,556.3869147500009,,551.2047664170004,1,1,1.1360999159996936,reldom2_fmri_s004p,001,2024-12-11_16h43.36.064,What-B-Scan_AC,2022.2.5,None,
48,Second_Order,8.0,audwhat,stimulus/audwhat_stim/percussion mallet_high-pitch_D_loud.wav,stimulus/audwhat_stim/percussion mallet_low-pitch_Dtri_loud.wav,stimulus/audwhat_stim/string viola_high-pitch_F_loud.wav,stimulus/audwhat_stim/string viola_low-pitch_Dtri_loud.wav,stimulus/viswhat_stim/match_blank.png,stimulus/viswhat_stim/match_box.png,stimulus/viswhat_stim/match_yes.png,stimulus/viswhat_stim/match_no.png,1.0,Match,Category,Category,1,5.125,0,5.125,0,5.125,0,5.125,0,0.625,0.625,0,0.0,0,0.0,0,0.0,0,0.0,1,0.5,1,2.125,1,0.5,1,2.125,0,,,,,0,63,63,63,,,,,,,,,557.2097820000008,562.3308914170002,557.2097820000008,557.2097820000008,557.2097820000008,557.2097820000008,557.6573964170002,558.6556945830007,557.6699581246669,558.6635539170002,559.2904353330005,560.2794795830005,559.2956308746673,560.2927618330004,562.3308914170002,563.045871583,565.1505530830009,569.1793342500005,563.045871583,563.045871583,568.2007673330008,563.045871583,563.045871583,563.045871583,563.045871583,563.512931792,564.5431064170007,563.4815555836669,,565.1505530830009,566.1865455420002,565.1205006246666,,563.045871583,568.2007673330008,563.045871583,568.2007673330008,568.2417758330002,568.9015454170003,563.045871583,1,1,0.4640776249998453,reldom2_fmri_s004p,001,2024-12-11_16h43.36.064,What-B-Scan_AC,2022.2.5,None,
0,0.0,None,fixation,stimulus/viswhat_stim/blank_white.png,stimulus/viswhat_stim/blank_white.png,stimulus/audwhat_stim/blank_white.png,stimulus/audwhat_stim/blank_white.png,stimulus/viswhat_stim/blank_white.png,stimulus/viswhat_stim/blank_white.png,stimulus/viswhat_stim/blank_white.png,stimulus/viswhat_stim/blank_white.png,0.0,0.0,0.0,0.0,0,0.0,0,0.0,0,0.0,0,0.0,0,0.0,0.0,0,0.0,0,0.0,0,0.0,0,0.0,0,0.0,0,0.0,0,0.0,0,0.0,16,,,,,0,64,64,64,,,,,,,,,569.1793342500005,569.1793342500005,569.1793342500005,569.1793342500005,569.1793342500005,569.1793342500005,569.1793342500005,569.1793342500005,569.0761917913334,569.1793342500005,569.1793342500005,569.1793342500005,569.0761917913334,569.1793342500005,569.1793342500005,569.1793342500005,569.1793342500005,569.1793342500005,569.1793342500005,569.1793342500005,569.1793342500005,569.1793342500005,569.1793342500005,569.1793342500005,569.1793342500005,569.1793342500005,569.1793342500005,569.1261917913333,569.1793342500005,569.1793342500005,569.1793342500005,569.1261917913333,569.1793342500005,569.1793342500005,569.1793342500005,569.1793342500005,569.1793342500005,574.4130202080005,574.4130202080005,585.3118302080002,None,0,,reldom2_fmri_s004p,001,2024-12-11_16h43.36.064,What-B-Scan_AC,2022.2.5,None,
