Trial,Order,Block,Type,Stimuli_File1,Stimuli_File2,Stimuli_File3,Stimuli_File4,Cue_File1,Cue_File2,Response_File_Yes,Response_File_No,Match,Cue_Dimension,Pair1_Dimension,Pair2_Dimension,Key,Cue1_Duration,Cue1_Onset,Cue2_Duration,Cue2_Onset,ResponseYes_Duration,ResponseYes_Onset,ResponseNo_Duration,ResponseNo_Onset,ITI_Within,ITI_Between,Image1_Duration,Image1_Onset,Image2_Duration,Image2_Onset,Image3_Duration,Image3_Onset,Image4_Duration,Image4_Onset,Sound1_Duration,Sound1_Onset,Sound2_Duration,Sound2_Onset,Sound3_Duration,Sound3_Onset,Sound4_Duration,Sound4_Onset,Fixation_Duration,trials_2.thisRepN,trials_2.thisTrialN,trials_2.thisN,trials_2.thisIndex,trials.thisRepN,trials.thisTrialN,trials.thisN,trials.thisIndex,text_start.started,key_resp_start.started,key_resp_start.keys,key_resp_start.rt,text2.started,key_resp_2.started,key_resp_2.keys,key_resp_2.rt,cue_file1.started,cue_file1.stopped,image_1.started,image_1.stopped,image_2.started,image_2.stopped,sound_icon1.started,sound_icon1.stopped,sound_1.started,sound_1.stopped,sound_icon2.started,sound_icon2.stopped,sound_2.started,sound_2.stopped,image_blank_1.started,image_blank_1.stopped,key_press.started,key_press.stopped,fixation_text.started,cue_file2.started,cue_file2.stopped,image_3.started,image_3.stopped,image_4.started,image_4.stopped,sound_icon3.started,sound_icon3.stopped,sound_3.started,sound_3.stopped,sound_icon4.started,sound_icon4.stopped,sound_4.started,sound_4.stopped,response_yes.started,response_yes.stopped,response_no.started,response_no.stopped,iti_blank.started,iti_blank.stopped,fixation_text.stopped,key_press.keys,key_press.corr,key_press.rt,participant,session,date,expName,psychopyVersion,frameRate,
,,,,,,,,,,,,,,,,,,,,,,,,,,,,,,,,,,,,,,,,,,,,,,,,,,,,9.883813625000585,9.883813625000585,2,1.3756605830003537,,,,,,,,,,,,,,,,,,,,,,,,,,,,,,,,,,,,,,,,,,,,,,,,reldom2_fmri_s004p,001,2024-12-11_16h32.15.339,Vis-B-Scan_AC,2022.2.5,None,
,,,,,,,,,,,,,,,,,,,,,,,,,,,,,,,,,,,,,,,,,,,,0,0,0,0,,,,,,,,,11.292340625000179,11.292340625000179,5,13.778266958000131,,,,,,,,,,,,,,,,,,,,,,,,,,,,,,,,,,,,,,,,,,,,reldom2_fmri_s004p,001,2024-12-11_16h32.15.339,Vis-B-Scan_AC,2022.2.5,None,
,,,,,,,,,,,,,,,,,,,,,,,,,,,,,,,,,,,,,,,,,,,,1,0,1,0,,,,,,,,,25.08418037499996,25.08418037499996,5,1.986351458000172,,,,,,,,,,,,,,,,,,,,,,,,,,,,,,,,,,,,,,,,,,,,reldom2_fmri_s004p,001,2024-12-11_16h32.15.339,Vis-B-Scan_AC,2022.2.5,None,
,,,,,,,,,,,,,,,,,,,,,,,,,,,,,,,,,,,,,,,,,,,,2,0,2,0,,,,,,,,,27.08725270800005,27.08725270800005,5,1.982753958000103,,,,,,,,,,,,,,,,,,,,,,,,,,,,,,,,,,,,,,,,,,,,reldom2_fmri_s004p,001,2024-12-11_16h32.15.339,Vis-B-Scan_AC,2022.2.5,None,
,,,,,,,,,,,,,,,,,,,,,,,,,,,,,,,,,,,,,,,,,,,,3,0,3,0,,,,,,,,,29.084672708000653,29.084672708000653,5,1.9855921250000392,,,,,,,,,,,,,,,,,,,,,,,,,,,,,,,,,,,,,,,,,,,,reldom2_fmri_s004p,001,2024-12-11_16h32.15.339,Vis-B-Scan_AC,2022.2.5,None,
0,0.0,None,fixation,stimulus/viswhere_stim/blank_white.png,stimulus/viswhere_stim/blank_white.png,stimulus/viswhat_stim/blank_white.png,stimulus/viswhat_stim/blank_white.png,stimulus/viswhere_stim/blank_white.png,stimulus/viswhere_stim/blank_white.png,stimulus/viswhere_stim/blank_white.png,stimulus/viswhere_stim/blank_white.png,0.0,0.0,0.0,0.0,0,0.0,0,0.0,0,0.0,0,0.0,0,0.0,0.0,0,0.0,0,0.0,0,0.0,0,0.0,0,0,0,0,0,0,0,0,16,,,,,0,0,0,0,,,,,,,,,31.26472566600023,31.26472566600023,31.26472566600023,31.26472566600023,31.26472566600023,31.26472566600023,31.26472566600023,31.26472566600023,31.172686250000513,31.26472566600023,31.26472566600023,31.26472566600023,31.172686250000513,31.26472566600023,31.26472566600023,31.26472566600023,31.26472566600023,31.26472566600023,31.26472566600023,31.26472566600023,31.26472566600023,31.26472566600023,31.26472566600023,31.26472566600023,31.26472566600023,31.26472566600023,31.26472566600023,31.222686250000514,31.26472566600023,31.26472566600023,31.26472566600023,31.222686250000514,31.26472566600023,31.26472566600023,31.26472566600023,31.26472566600023,31.26472566600023,36.44049858300059,36.44049858300059,47.45651308300057,None,0,,reldom2_fmri_s004p,001,2024-12-11_16h32.15.339,Vis-B-Scan_AC,2022.2.5,None,
1,First_Order,1.0,viswhere,stimulus/viswhere_stim/blank_white.png,stimulus/viswhere_stim/blank_white.png,stimulus/viswhere_stim/150-deg_dot-left_royalblue.png,stimulus/viswhere_stim/150-deg_dot-right_peru.png,stimulus/viswhere_stim/blank_white.png,stimulus/viswhere_stim/dot_box.png,stimulus/viswhere_stim/dot_yes.png,stimulus/viswhere_stim/dot_no.png,None,Dot,None,Line,2,0.0,0,5.125,0,5.125,0,5.125,0,0.0,0.625,0,0.0,0,0.0,1,0.5,1,2.125,0,0,0,0,0,0,0,0,0,,,,,0,1,1,1,,,,,,,,,47.45651308300057,47.45651308300057,47.45651308300057,47.45651308300057,47.45651308300057,47.45651308300057,47.45651308300057,47.45651308300057,47.43644783300024,47.45651308300057,47.45651308300057,47.45651308300057,47.43644783300024,47.45651308300057,47.45651308300057,47.45651308300057,49.566082916000596,53.519581958000344,47.45651308300057,47.45651308300057,52.582927458000086,47.93156325000018,48.938645375000306,49.566082916000596,50.58116083300047,47.45651308300057,47.45651308300057,47.4531144996669,47.45651308300057,47.45651308300057,47.45651308300057,47.4531144996669,47.45651308300057,47.45651308300057,52.582927458000086,47.45651308300057,52.582927458000086,52.67892070800008,53.30652379100047,47.45651308300057,2,1,0.8935837919998448,reldom2_fmri_s004p,001,2024-12-11_16h32.15.339,Vis-B-Scan_AC,2022.2.5,None,
2,First_Order,1.0,viswhere,stimulus/viswhere_stim/blank_white.png,stimulus/viswhere_stim/blank_white.png,stimulus/viswhere_stim/30-deg_dot-left_salmon.png,stimulus/viswhere_stim/30-deg_dot-right_seagreen.png,stimulus/viswhere_stim/blank_white.png,stimulus/viswhere_stim/dot_box.png,stimulus/viswhere_stim/dot_yes.png,stimulus/viswhere_stim/dot_no.png,None,Dot,None,Line,2,0.0,0,5.125,0,5.125,0,5.125,0,0.0,0.625,0,0.0,0,0.0,1,0.5,1,2.125,0,0,0,0,0,0,0,0,0,,,,,0,2,2,2,,,,,,,,,53.519581958000344,53.519581958000344,53.519581958000344,53.519581958000344,53.519581958000344,53.519581958000344,53.519581958000344,53.519581958000344,53.500127333334,53.519581958000344,53.519581958000344,53.519581958000344,53.500127333334,53.519581958000344,53.519581958000344,53.519581958000344,55.618861625000136,59.59051887500027,53.519581958000344,53.519581958000344,58.64058604100046,53.99248616600016,54.994407083000624,55.618861625000136,56.627088833000016,53.519581958000344,53.519581958000344,53.500127333334,53.519581958000344,53.519581958000344,53.519581958000344,53.500127333334,53.519581958000344,53.519581958000344,58.64058604100046,53.519581958000344,58.64058604100046,58.74913012500019,59.38692524999988,53.519581958000344,2,1,1.0887444159998267,reldom2_fmri_s004p,001,2024-12-11_16h32.15.339,Vis-B-Scan_AC,2022.2.5,None,
3,First_Order,1.0,viswhere,stimulus/viswhere_stim/blank_white.png,stimulus/viswhere_stim/blank_white.png,stimulus/viswhere_stim/120-deg_dot-left_goldenrod.png,stimulus/viswhere_stim/30-deg_dot-left_slateblue.png,stimulus/viswhere_stim/blank_white.png,stimulus/viswhere_stim/dot_box.png,stimulus/viswhere_stim/dot_yes.png,stimulus/viswhere_stim/dot_no.png,None,Dot,None,Dot,1,0.0,0,5.125,0,5.125,0,5.125,0,0.0,0.625,0,0.0,0,0.0,1,0.5,1,2.125,0,0,0,0,0,0,0,0,0,,,,,0,3,3,3,,,,,,,,,59.59051887500027,59.59051887500027,59.59051887500027,59.59051887500027,59.59051887500027,59.59051887500027,59.59051887500027,59.59051887500027,59.57058591633389,59.59051887500027,59.59051887500027,59.59051887500027,59.57058591633389,59.59051887500027,59.59051887500027,59.59051887500027,61.69980129100077,65.65368949999993,59.59051887500027,59.59051887500027,64.71611904100064,60.06446958300057,61.071512916000756,61.69980129100077,62.71203491600045,59.59051887500027,59.59051887500027,59.587252583000556,59.59051887500027,59.59051887500027,59.59051887500027,59.587252583000556,59.59051887500027,59.59051887500027,64.71611904100064,59.59051887500027,64.71611904100064,64.81620700000076,65.45110895800008,59.59051887500027,1,1,1.315707624999959,reldom2_fmri_s004p,001,2024-12-11_16h32.15.339,Vis-B-Scan_AC,2022.2.5,None,
4,First_Order,1.0,viswhere,stimulus/viswhere_stim/blank_white.png,stimulus/viswhere_stim/blank_white.png,stimulus/viswhere_stim/150-deg_dot-right_royalblue.png,stimulus/viswhere_stim/30-deg_dot-right_salmon.png,stimulus/viswhere_stim/blank_white.png,stimulus/viswhere_stim/line_box.png,stimulus/viswhere_stim/line_yes.png,stimulus/viswhere_stim/line_no.png,None,Line,None,Dot,2,0.0,0,5.125,0,5.125,0,5.125,0,0.0,0.625,0,0.0,0,0.0,1,0.5,1,2.125,0,0,0,0,0,0,0,0,0,,,,,0,4,4,4,,,,,,,,,65.65368949999993,65.65368949999993,65.65368949999993,65.65368949999993,65.65368949999993,65.65368949999993,65.65368949999993,65.65368949999993,65.63463441633333,65.65368949999993,65.65368949999993,65.65368949999993,65.63463441633333,65.65368949999993,65.65368949999993,65.65368949999993,67.7536983330001,71.79828562500006,65.65368949999993,65.65368949999993,70.77498237500004,66.13525508300063,67.1378809580001,67.7536983330001,68.76235541599999,65.65368949999993,65.65368949999993,65.63463441633333,65.65368949999993,65.65368949999993,65.65368949999993,65.63463441633333,65.65368949999993,65.65368949999993,70.77498237500004,65.65368949999993,70.77498237500004,70.87137187500048,71.50586637500055,65.65368949999993,2,1,1.2815029160001359,reldom2_fmri_s004p,001,2024-12-11_16h32.15.339,Vis-B-Scan_AC,2022.2.5,None,
0,0.0,None,fixation,stimulus/viswhere_stim/blank_white.png,stimulus/viswhere_stim/blank_white.png,stimulus/viswhat_stim/blank_white.png,stimulus/viswhat_stim/blank_white.png,stimulus/viswhere_stim/blank_white.png,stimulus/viswhere_stim/blank_white.png,stimulus/viswhere_stim/blank_white.png,stimulus/viswhere_stim/blank_white.png,0.0,0.0,0.0,0.0,0,0.0,0,0.0,0,0.0,0,0.0,0,0.0,0.0,0,0.0,0,0.0,0,0.0,0,0.0,0,0,0,0,0,0,0,0,9,,,,,0,5,5,5,,,,,,,,,71.79828562500006,71.79828562500006,71.79828562500006,71.79828562500006,71.79828562500006,71.79828562500006,71.79828562500006,71.79828562500006,71.70103487433364,71.79828562500006,71.79828562500006,71.79828562500006,71.70103487433364,71.79828562500006,71.79828562500006,71.79828562500006,71.79828562500006,71.79828562500006,71.79828562500006,71.79828562500006,71.79828562500006,71.79828562500006,71.79828562500006,71.79828562500006,71.79828562500006,71.79828562500006,71.79828562500006,71.75103487433364,71.79828562500006,71.79828562500006,71.79828562500006,71.75103487433364,71.79828562500006,71.79828562500006,71.79828562500006,71.79828562500006,71.79828562500006,77.00878954100062,77.00878954100062,80.91983775000062,None,0,,reldom2_fmri_s004p,001,2024-12-11_16h32.15.339,Vis-B-Scan_AC,2022.2.5,None,
5,Second_Order,1.0,viswhere,stimulus/viswhere_stim/90-deg_dot-left_mediumslateblue.png,stimulus/viswhere_stim/30-deg_dot-left_slateblue.png,stimulus/viswhere_stim/90-deg_dot-left_royalblue.png,stimulus/viswhere_stim/90-deg_dot-right_goldenrod.png,stimulus/viswhere_stim/match_blank.png,stimulus/viswhere_stim/match_box.png,stimulus/viswhere_stim/match_yes.png,stimulus/viswhere_stim/match_no.png,2.0,Match,Dot,Line,2,5.125,0,5.125,0,5.125,0,5.125,0,0.75,0.75,1,0.5,1,2.125,1,0.5,1,2.125,0,0,0,0,0,0,0,0,0,,,,,0,6,6,6,,,,,,,,,80.91983775000062,86.03744829100015,81.39271054100027,82.39146250000067,83.0256741660005,84.0150184160002,80.91983775000062,80.91983775000062,80.93394383333373,80.91983775000062,80.91983775000062,80.91983775000062,80.93394383333373,80.91983775000062,86.03744829100015,86.81432787500034,88.90318566600035,92.80368720800016,86.81432787500034,86.81432787500034,91.95245204100047,87.27969466600007,88.28524429100071,88.90318566600035,89.91715029100033,86.81432787500034,86.81432787500034,86.80511999933381,86.81432787500034,86.81432787500034,86.81432787500034,86.80511999933381,86.81432787500034,86.81432787500034,91.95245204100047,86.81432787500034,91.95245204100047,92.02300470800037,92.80368720800016,86.81432787500034,2,1,1.2783470409995061,reldom2_fmri_s004p,001,2024-12-11_16h32.15.339,Vis-B-Scan_AC,2022.2.5,None,
6,Second_Order,1.0,viswhere,stimulus/viswhere_stim/30-deg_dot-right_turquoise.png,stimulus/viswhere_stim/30-deg_dot-left_goldenrod.png,stimulus/viswhere_stim/60-deg_dot-left_salmon.png,stimulus/viswhere_stim/60-deg_dot-right_slateblue.png,stimulus/viswhere_stim/match_blank.png,stimulus/viswhere_stim/match_box.png,stimulus/viswhere_stim/match_yes.png,stimulus/viswhere_stim/match_no.png,1.0,Match,Line,Line,1,5.125,0,5.125,0,5.125,0,5.125,0,0.625,0.625,1,0.5,1,2.125,1,0.5,1,2.125,0,0,0,0,0,0,0,0,0,,,,,0,7,7,7,,,,,,,,,92.80368720800016,97.9269967500004,93.28679316600028,94.28490312500071,94.90921195800001,95.90537920800034,92.80368720800016,92.80368720800016,92.81642316600009,92.80368720800016,92.80368720800016,92.80368720800016,92.81642316600009,92.80368720800016,97.9269967500004,98.58960833299989,100.68198358300015,104.72122129099989,98.58960833299989,98.58960833299989,103.71595816600075,99.04798712499996,100.06738079100069,100.68198358300015,101.69048983300036,98.58960833299989,98.58960833299989,98.5783625833333,98.58960833299989,98.58960833299989,98.58960833299989,98.5783625833333,98.58960833299989,98.58960833299989,103.71595816600075,98.58960833299989,103.71595816600075,103.80009250000057,104.42675512500045,98.58960833299989,1,1,0.5136834579998322,reldom2_fmri_s004p,001,2024-12-11_16h32.15.339,Vis-B-Scan_AC,2022.2.5,None,
0,0.0,None,fixation,stimulus/viswhere_stim/blank_white.png,stimulus/viswhere_stim/blank_white.png,stimulus/viswhat_stim/blank_white.png,stimulus/viswhat_stim/blank_white.png,stimulus/viswhere_stim/blank_white.png,stimulus/viswhere_stim/blank_white.png,stimulus/viswhere_stim/blank_white.png,stimulus/viswhere_stim/blank_white.png,0.0,0.0,0.0,0.0,0,0.0,0,0.0,0,0.0,0,0.0,0,0.0,0.0,0,0.0,0,0.0,0,0.0,0,0.0,0,0,0,0,0,0,0,0,9,,,,,0,8,8,8,,,,,,,,,104.72122129099989,104.72122129099989,104.72122129099989,104.72122129099989,104.72122129099989,104.72122129099989,104.72122129099989,104.72122129099989,104.62159249933332,104.72122129099989,104.72122129099989,104.72122129099989,104.62159249933332,104.72122129099989,104.72122129099989,104.72122129099989,104.72122129099989,104.72122129099989,104.72122129099989,104.72122129099989,104.72122129099989,104.72122129099989,104.72122129099989,104.72122129099989,104.72122129099989,104.72122129099989,104.72122129099989,104.67159249933331,104.72122129099989,104.72122129099989,104.72122129099989,104.67159249933331,104.72122129099989,104.72122129099989,104.72122129099989,104.72122129099989,104.72122129099989,109.94135662500048,109.94135662500048,113.93869754100069,None,0,,reldom2_fmri_s004p,001,2024-12-11_16h32.15.339,Vis-B-Scan_AC,2022.2.5,None,
7,First_Order,2.0,viswhere,stimulus/viswhere_stim/blank_white.png,stimulus/viswhere_stim/blank_white.png,stimulus/viswhere_stim/60-deg_dot-right_peru.png,stimulus/viswhere_stim/120-deg_dot-right_goldenrod.png,stimulus/viswhere_stim/blank_white.png,stimulus/viswhere_stim/line_box.png,stimulus/viswhere_stim/line_yes.png,stimulus/viswhere_stim/line_no.png,None,Line,None,Dot,2,0.0,0,5.125,0,5.125,0,5.125,0,0.0,0.625,0,0.0,0,0.0,1,0.5,1,2.125,0,0,0,0,0,0,0,0,0,,,,,0,9,9,9,,,,,,,,,113.93869754100069,113.93869754100069,113.93869754100069,113.93869754100069,113.93869754100069,113.93869754100069,113.93869754100069,113.93869754100069,113.91975891666668,113.93869754100069,113.93869754100069,113.93869754100069,113.91975891666668,113.93869754100069,113.93869754100069,113.93869754100069,116.0430432080002,120.00742687500042,113.93869754100069,113.93869754100069,119.06247616600012,114.42139495800075,115.42698679100067,116.0430432080002,117.05113633300061,113.93869754100069,113.93869754100069,113.91975891666668,113.93869754100069,113.93869754100069,113.93869754100069,113.91975891666668,113.93869754100069,113.93869754100069,119.06247616600012,113.93869754100069,119.06247616600012,119.16063554100037,119.78691433299991,113.93869754100069,2,1,1.0747084590002487,reldom2_fmri_s004p,001,2024-12-11_16h32.15.339,Vis-B-Scan_AC,2022.2.5,None,
8,First_Order,2.0,viswhere,stimulus/viswhere_stim/blank_white.png,stimulus/viswhere_stim/blank_white.png,stimulus/viswhere_stim/90-deg_dot-left_turquoise.png,stimulus/viswhere_stim/90-deg_dot-right_peru.png,stimulus/viswhere_stim/blank_white.png,stimulus/viswhere_stim/line_box.png,stimulus/viswhere_stim/line_yes.png,stimulus/viswhere_stim/line_no.png,None,Line,None,Line,1,0.0,0,5.125,0,5.125,0,5.125,0,0.0,0.625,0,0.0,0,0.0,1,0.5,1,2.125,0,0,0,0,0,0,0,0,0,,,,,0,10,10,10,,,,,,,,,120.00742687500042,120.00742687500042,120.00742687500042,120.00742687500042,120.00742687500042,120.00742687500042,120.00742687500042,120.00742687500042,119.9807232493334,120.00742687500042,120.00742687500042,120.00742687500042,119.9807232493334,120.00742687500042,120.00742687500042,120.00742687500042,122.10230979100015,126.06486229100028,120.00742687500042,120.00742687500042,125.13891416600018,120.49260416600009,121.50192662500012,122.10230979100015,123.11756704100026,120.00742687500042,120.00742687500042,119.99738991600006,120.00742687500042,120.00742687500042,120.00742687500042,119.99738991600006,120.00742687500042,120.00742687500042,125.13891416600018,120.00742687500042,125.13891416600018,125.2221944160001,125.84803975000068,120.00742687500042,1,1,1.499466709000444,reldom2_fmri_s004p,001,2024-12-11_16h32.15.339,Vis-B-Scan_AC,2022.2.5,None,
9,First_Order,2.0,viswhere,stimulus/viswhere_stim/blank_white.png,stimulus/viswhere_stim/blank_white.png,stimulus/viswhere_stim/60-deg_dot-right_seagreen.png,stimulus/viswhere_stim/120-deg_dot-right_salmon.png,stimulus/viswhere_stim/blank_white.png,stimulus/viswhere_stim/dot_box.png,stimulus/viswhere_stim/dot_yes.png,stimulus/viswhere_stim/dot_no.png,None,Dot,None,Dot,1,0.0,0,5.125,0,5.125,0,5.125,0,0.0,0.625,0,0.0,0,0.0,1,0.5,1,2.125,0,0,0,0,0,0,0,0,0,,,,,0,11,11,11,,,,,,,,,126.06486229100028,126.06486229100028,126.06486229100028,126.06486229100028,126.06486229100028,126.06486229100028,126.06486229100028,126.06486229100028,126.043015499334,126.06486229100028,126.06486229100028,126.06486229100028,126.043015499334,126.06486229100028,126.06486229100028,126.06486229100028,128.16769600000043,132.1351650000006,126.06486229100028,126.06486229100028,131.1884445830001,126.54769608300012,127.55187712499992,128.16769600000043,129.17680216600002,126.06486229100028,126.06486229100028,126.05968216600067,126.06486229100028,126.06486229100028,126.06486229100028,126.05968216600067,126.06486229100028,126.06486229100028,131.1884445830001,126.06486229100028,131.1884445830001,131.2862470830005,131.9116677080001,126.06486229100028,1,1,1.6343724999996994,reldom2_fmri_s004p,001,2024-12-11_16h32.15.339,Vis-B-Scan_AC,2022.2.5,None,
10,First_Order,2.0,viswhere,stimulus/viswhere_stim/blank_white.png,stimulus/viswhere_stim/blank_white.png,stimulus/viswhere_stim/120-deg_dot-right_cyan.png,stimulus/viswhere_stim/120-deg_dot-left_turquoise.png,stimulus/viswhere_stim/blank_white.png,stimulus/viswhere_stim/line_box.png,stimulus/viswhere_stim/line_yes.png,stimulus/viswhere_stim/line_no.png,None,Line,None,Line,1,0.0,0,5.125,0,5.125,0,5.125,0,0.0,0.625,0,0.0,0,0.0,1,0.5,1,2.125,0,0,0,0,0,0,0,0,0,,,,,0,12,12,12,,,,,,,,,132.1351650000006,132.1351650000006,132.1351650000006,132.1351650000006,132.1351650000006,132.1351650000006,132.1351650000006,132.1351650000006,132.1116204993335,132.1351650000006,132.1351650000006,132.1351650000006,132.1116204993335,132.1351650000006,132.1351650000006,132.1351650000006,134.24823933300013,138.27920133299995,132.1351650000006,132.1351650000006,137.26181912500033,132.6204589580002,133.62947379100024,134.24823933300013,135.26500620800016,132.1351650000006,132.1351650000006,132.12828716600018,132.1351650000006,132.1351650000006,132.1351650000006,132.12828716600018,132.1351650000006,132.1351650000006,137.26181912500033,132.1351650000006,137.26181912500033,137.35800845800077,137.98498658300014,132.1351650000006,1,1,0.9435722079997504,reldom2_fmri_s004p,001,2024-12-11_16h32.15.339,Vis-B-Scan_AC,2022.2.5,None,
0,0.0,None,fixation,stimulus/viswhere_stim/blank_white.png,stimulus/viswhere_stim/blank_white.png,stimulus/viswhat_stim/blank_white.png,stimulus/viswhat_stim/blank_white.png,stimulus/viswhere_stim/blank_white.png,stimulus/viswhere_stim/blank_white.png,stimulus/viswhere_stim/blank_white.png,stimulus/viswhere_stim/blank_white.png,0.0,0.0,0.0,0.0,0,0.0,0,0.0,0,0.0,0,0.0,0,0.0,0.0,0,0.0,0,0.0,0,0.0,0,0.0,0,0,0,0,0,0,0,0,8,,,,,0,13,13,13,,,,,,,,,138.27920133299995,138.27920133299995,138.27920133299995,138.27920133299995,138.27920133299995,138.27920133299995,138.27920133299995,138.27920133299995,138.1789916663341,138.27920133299995,138.27920133299995,138.27920133299995,138.1789916663341,138.27920133299995,138.27920133299995,138.27920133299995,138.27920133299995,138.27920133299995,138.27920133299995,138.27920133299995,138.27920133299995,138.27920133299995,138.27920133299995,138.27920133299995,138.27920133299995,138.27920133299995,138.27920133299995,138.2289916663341,138.27920133299995,138.27920133299995,138.27920133299995,138.2289916663341,138.27920133299995,138.27920133299995,138.27920133299995,138.27920133299995,138.27920133299995,143.50128466600017,143.50128466600017,146.4197322910004,None,0,,reldom2_fmri_s004p,001,2024-12-11_16h32.15.339,Vis-B-Scan_AC,2022.2.5,None,
11,Second_Order,2.0,viswhere,stimulus/viswhere_stim/120-deg_dot-left_slateblue.png,stimulus/viswhere_stim/60-deg_dot-left_seagreen.png,stimulus/viswhere_stim/90-deg_dot-right_seagreen.png,stimulus/viswhere_stim/30-deg_dot-right_mediumslateblue.png,stimulus/viswhere_stim/match_blank.png,stimulus/viswhere_stim/match_box.png,stimulus/viswhere_stim/match_yes.png,stimulus/viswhere_stim/match_no.png,1.0,Match,Dot,Dot,1,5.125,0,5.125,0,5.125,0,5.125,0,0.75,0.75,1,0.5,1,2.125,1,0.5,1,2.125,0,0,0,0,0,0,0,0,0,,,,,0,14,14,14,,,,,,,,,146.4197322910004,151.53851312500046,146.89353937500073,147.8916784160001,148.52687558300022,149.51589537500058,146.4197322910004,146.4197322910004,146.43157629133398,146.4197322910004,146.4197322910004,146.4197322910004,146.43157629133398,146.4197322910004,151.53851312500046,152.31985795800028,154.4043535410001,158.29967062500054,152.31985795800028,152.31985795800028,157.45448962499995,152.7875189160004,153.80249025000012,154.4043535410001,155.40682237500005,152.31985795800028,152.31985795800028,152.3069625833337,152.31985795800028,152.31985795800028,152.31985795800028,152.3069625833337,152.31985795800028,152.31985795800028,157.45448962499995,152.31985795800028,157.45448962499995,157.52433008300068,158.29967062500054,152.31985795800028,1,1,0.7306359579997661,reldom2_fmri_s004p,001,2024-12-11_16h32.15.339,Vis-B-Scan_AC,2022.2.5,None,
12,Second_Order,2.0,viswhere,stimulus/viswhere_stim/90-deg_dot-right_cyan.png,stimulus/viswhere_stim/90-deg_dot-left_salmon.png,stimulus/viswhere_stim/30-deg_dot-left_goldenrod.png,stimulus/viswhere_stim/60-deg_dot-left_turquoise.png,stimulus/viswhere_stim/match_blank.png,stimulus/viswhere_stim/match_box.png,stimulus/viswhere_stim/match_yes.png,stimulus/viswhere_stim/match_no.png,2.0,Match,Line,Dot,2,5.125,0,5.125,0,5.125,0,5.125,0,0.625,0.625,1,0.5,1,2.125,1,0.5,1,2.125,0,0,0,0,0,0,0,0,0,,,,,0,15,15,15,,,,,,,,,158.29967062500054,163.415706666,158.78343737500018,159.77321675000076,160.40861725000013,161.4064914999999,158.29967062500054,158.29967062500054,158.31220970800024,158.29967062500054,158.29967062500054,158.29967062500054,158.31220970800024,158.29967062500054,163.415706666,164.0711553330002,166.1658733330005,170.20832041599988,164.0711553330002,164.0711553330002,169.20106983300047,164.53574387500066,165.54610475000027,166.1658733330005,167.17980279099993,164.0711553330002,164.0711553330002,164.0624273333338,164.0711553330002,164.0711553330002,164.0711553330002,164.0624273333338,164.0711553330002,164.0711553330002,169.20106983300047,164.0711553330002,169.20106983300047,169.28470329100037,169.91125075000036,164.0711553330002,2,1,2.540256749999571,reldom2_fmri_s004p,001,2024-12-11_16h32.15.339,Vis-B-Scan_AC,2022.2.5,None,
0,0.0,None,fixation,stimulus/viswhere_stim/blank_white.png,stimulus/viswhere_stim/blank_white.png,stimulus/viswhat_stim/blank_white.png,stimulus/viswhat_stim/blank_white.png,stimulus/viswhere_stim/blank_white.png,stimulus/viswhere_stim/blank_white.png,stimulus/viswhere_stim/blank_white.png,stimulus/viswhere_stim/blank_white.png,0.0,0.0,0.0,0.0,0,0.0,0,0.0,0,0.0,0,0.0,0,0.0,0.0,0,0.0,0,0.0,0,0.0,0,0.0,0,0,0,0,0,0,0,0,10,,,,,0,16,16,16,,,,,,,,,170.20832041599988,170.20832041599988,170.20832041599988,170.20832041599988,170.20832041599988,170.20832041599988,170.20832041599988,170.20832041599988,170.10583983333376,170.20832041599988,170.20832041599988,170.20832041599988,170.10583983333376,170.20832041599988,170.20832041599988,170.20832041599988,170.20832041599988,170.20832041599988,170.20832041599988,170.20832041599988,170.20832041599988,170.20832041599988,170.20832041599988,170.20832041599988,170.20832041599988,170.20832041599988,170.20832041599988,170.15583983333377,170.20832041599988,170.20832041599988,170.20832041599988,170.15583983333377,170.20832041599988,170.20832041599988,170.20832041599988,170.20832041599988,170.20832041599988,175.39600129100018,175.39600129100018,180.4892113750002,None,0,,reldom2_fmri_s004p,001,2024-12-11_16h32.15.339,Vis-B-Scan_AC,2022.2.5,None,
13,First_Order,3.0,viswhat,stimulus/viswhat_stim/blank_white.png,stimulus/viswhat_stim/blank_white.png,stimulus/viswhat_stim/land_animal-moose.png,stimulus/viswhat_stim/water_animal-whale (1).png,stimulus/viswhat_stim/blank_white.png,stimulus/viswhat_stim/type_box.png,stimulus/viswhat_stim/type_yes.png,stimulus/viswhat_stim/type_no.png,None,Type,None,Type,1,0.0,0,5.125,0,5.125,0,5.125,0,0.0,0.625,0,0.0,0,0.0,1,0.5,1,2.125,0,0,0,0,0,0,0,0,0,,,,,0,17,17,17,,,,,,,,,180.4892113750002,180.4892113750002,180.4892113750002,180.4892113750002,180.4892113750002,180.4892113750002,180.4892113750002,180.4892113750002,180.38271270766717,180.4892113750002,180.4892113750002,180.4892113750002,180.38271270766717,180.4892113750002,180.4892113750002,180.4892113750002,182.56844754100075,,180.4892113750002,180.4892113750002,185.65491012500024,180.96361683300074,182.035216708,182.56844754100075,183.63693733299988,180.4892113750002,180.4892113750002,180.43271270766715,180.4892113750002,180.4892113750002,180.4892113750002,180.43271270766715,180.4892113750002,180.4892113750002,185.65491012500024,180.4892113750002,185.65491012500024,185.70837920800022,186.5546548330003,180.4892113750002,1,1,1.61382041700017,reldom2_fmri_s004p,001,2024-12-11_16h32.15.339,Vis-B-Scan_AC,2022.2.5,None,
14,First_Order,3.0,viswhat,stimulus/viswhat_stim/blank_white.png,stimulus/viswhat_stim/blank_white.png,stimulus/viswhat_stim/land_vehicle-trolley.png,stimulus/viswhat_stim/water_vehicle-jetski.png,stimulus/viswhat_stim/blank_white.png,stimulus/viswhat_stim/location_box.png,stimulus/viswhat_stim/location_yes.png,stimulus/viswhat_stim/location_no.png,None,Location,None,Type,2,0.0,0,5.125,0,5.125,0,5.125,0,0.0,0.625,0,0.0,0,0.0,1,0.5,1,2.125,0,0,0,0,0,0,0,0,0,,,,,0,18,18,18,,,,,,,,,186.5546548330003,186.5546548330003,186.5546548330003,186.5546548330003,186.5546548330003,186.5546548330003,186.5546548330003,186.5546548330003,186.51837533266706,186.5546548330003,186.5546548330003,186.5546548330003,186.51837533266706,186.5546548330003,186.5546548330003,186.5546548330003,188.6465900000003,192.62717545800024,186.5546548330003,186.5546548330003,191.6937456250007,187.03905870800008,188.06081066600018,188.6465900000003,189.67438616600066,186.5546548330003,186.5546548330003,186.5350419993337,186.5546548330003,186.5546548330003,186.5546548330003,186.5350419993337,186.5546548330003,186.5546548330003,191.6937456250007,186.5546548330003,191.6937456250007,191.77250900000035,192.40103579100014,186.5546548330003,2,1,1.3281226250001055,reldom2_fmri_s004p,001,2024-12-11_16h32.15.339,Vis-B-Scan_AC,2022.2.5,None,
15,First_Order,3.0,viswhat,stimulus/viswhat_stim/blank_white.png,stimulus/viswhat_stim/blank_white.png,stimulus/viswhat_stim/land_animal-ostrich.png,stimulus/viswhat_stim/land_vehicle-train.png,stimulus/viswhat_stim/blank_white.png,stimulus/viswhat_stim/location_box.png,stimulus/viswhat_stim/location_yes.png,stimulus/viswhat_stim/location_no.png,None,Location,None,Location,1,0.0,0,5.125,0,5.125,0,5.125,0,0.0,0.625,0,0.0,0,0.0,1,0.5,1,2.125,0,0,0,0,0,0,0,0,0,,,,,0,19,19,19,,,,,,,,,192.62717545800024,192.62717545800024,192.62717545800024,192.62717545800024,192.62717545800024,192.62717545800024,192.62717545800024,192.62717545800024,192.59904270800018,192.62717545800024,192.62717545800024,192.62717545800024,192.59904270800018,192.62717545800024,192.62717545800024,192.62717545800024,194.73387295800057,199.04193966599996,192.62717545800024,192.62717545800024,197.75537254100072,193.0973524580004,194.10370479100038,194.73387295800057,195.74529133300075,192.62717545800024,192.62717545800024,192.61570937466684,192.62717545800024,192.62717545800024,192.62717545800024,192.61570937466684,192.62717545800024,192.62717545800024,197.75537254100072,192.62717545800024,197.75537254100072,197.84472487499988,198.47946404100003,192.62717545800024,1,1,1.7555755419998604,reldom2_fmri_s004p,001,2024-12-11_16h32.15.339,Vis-B-Scan_AC,2022.2.5,None,
16,First_Order,3.0,viswhat,stimulus/viswhat_stim/blank_white.png,stimulus/viswhat_stim/blank_white.png,stimulus/viswhat_stim/water_animal-lobster.png,stimulus/viswhat_stim/land_animal-moose.png,stimulus/viswhat_stim/blank_white.png,stimulus/viswhat_stim/location_box.png,stimulus/viswhat_stim/location_yes.png,stimulus/viswhat_stim/location_no.png,None,Location,None,Type,2,0.0,0,5.125,0,5.125,0,5.125,0,0.0,0.625,0,0.0,0,0.0,1,0.5,1,2.125,0,0,0,0,0,0,0,0,0,,,,,0,20,20,20,,,,,,,,,199.04193966599996,199.04193966599996,199.04193966599996,199.04193966599996,199.04193966599996,199.04193966599996,199.04193966599996,199.04193966599996,198.6675621663338,199.04193966599996,199.04193966599996,199.04193966599996,198.6675621663338,199.04193966599996,199.04193966599996,199.04193966599996,201.04820279100022,,199.04193966599996,199.04193966599996,204.32896600000004,199.40847633300018,200.68432308299998,201.04820279100022,202.32833441599996,199.04193966599996,199.04193966599996,198.8675621663338,199.04193966599996,199.04193966599996,199.04193966599996,198.8675621663338,199.04193966599996,199.04193966599996,204.32896600000004,199.04193966599996,204.32896600000004,204.1531545830003,,199.04193966599996,2,1,1.1370475829999123,reldom2_fmri_s004p,001,2024-12-11_16h32.15.339,Vis-B-Scan_AC,2022.2.5,None,
0,0.0,None,fixation,stimulus/viswhere_stim/blank_white.png,stimulus/viswhere_stim/blank_white.png,stimulus/viswhat_stim/blank_white.png,stimulus/viswhat_stim/blank_white.png,stimulus/viswhere_stim/blank_white.png,stimulus/viswhere_stim/blank_white.png,stimulus/viswhere_stim/blank_white.png,stimulus/viswhere_stim/blank_white.png,0.0,0.0,0.0,0.0,0,0.0,0,0.0,0,0.0,0,0.0,0,0.0,0.0,0,0.0,0,0.0,0,0.0,0,0.0,0,0,0,0,0,0,0,0,8,,,,,0,21,21,21,,,,,,,,,205.01716220800063,205.01716220800063,205.01716220800063,205.01716220800063,205.01716220800063,205.01716220800063,205.01716220800063,205.01716220800063,204.90720062500023,205.01716220800063,205.01716220800063,205.01716220800063,204.90720062500023,205.01716220800063,205.01716220800063,205.01716220800063,205.01716220800063,205.01716220800063,205.01716220800063,205.01716220800063,205.01716220800063,205.01716220800063,205.01716220800063,205.01716220800063,205.01716220800063,205.01716220800063,205.01716220800063,204.9738672916669,205.01716220800063,205.01716220800063,205.01716220800063,204.9738672916669,205.01716220800063,205.01716220800063,205.01716220800063,205.01716220800063,205.01716220800063,210.20344208300048,210.20344208300048,213.17019375000018,None,0,,reldom2_fmri_s004p,001,2024-12-11_16h32.15.339,Vis-B-Scan_AC,2022.2.5,None,
17,Second_Order,3.0,viswhat,stimulus/viswhat_stim/land_animal-giraffe.png,stimulus/viswhat_stim/water_animal-stingray.png,stimulus/viswhat_stim/water_animal-squid.png,stimulus/viswhat_stim/water_vehicle-yacht.png,stimulus/viswhere_stim/match_blank.png,stimulus/viswhere_stim/match_box.png,stimulus/viswhere_stim/match_yes.png,stimulus/viswhere_stim/match_no.png,2.0,Match,Type,Location,2,5.125,0,5.125,0,5.125,0,5.125,0,0.75,0.75,1,0.5,1,2.125,1,0.5,1,2.125,0,0,0,0,0,0,0,0,0,,,,,0,22,22,22,,,,,,,,,213.17019375000018,218.2926292910006,213.61465675,214.6122943750006,215.24750958300046,216.23648550000053,213.17019375000018,213.17019375000018,213.16906262500052,213.17019375000018,213.17019375000018,213.17019375000018,213.16906262500052,213.17019375000018,218.2926292910006,219.10939579100068,221.17499750000025,225.12043504100075,219.10939579100068,219.10939579100068,224.27650779100077,219.5683060830006,220.60182629100018,221.17499750000025,222.21049066600062,219.10939579100068,219.10939579100068,219.07661287499997,219.10939579100068,219.10939579100068,219.10939579100068,219.07661287499997,219.10939579100068,219.10939579100068,224.27650779100077,219.10939579100068,224.27650779100077,224.30942975000016,,219.10939579100068,2,1,1.1699481250007011,reldom2_fmri_s004p,001,2024-12-11_16h32.15.339,Vis-B-Scan_AC,2022.2.5,None,
18,Second_Order,3.0,viswhat,stimulus/viswhat_stim/water_animal-whale (1).png,stimulus/viswhat_stim/land_animal-tiger.png,stimulus/viswhat_stim/water_animal-orka.png,stimulus/viswhat_stim/water_vehicle-cargoboat.png,stimulus/viswhere_stim/match_blank.png,stimulus/viswhere_stim/match_box.png,stimulus/viswhere_stim/match_yes.png,stimulus/viswhere_stim/match_no.png,2.0,Match,Type,Location,2,5.125,0,5.125,0,5.125,0,5.125,0,0.625,0.625,1,0.5,1,2.125,1,0.5,1,2.125,0,0,0,0,0,0,0,0,0,,,,,0,23,23,23,,,,,,,,,225.12043504100075,230.23642545800067,225.57492945800004,226.5734029160003,227.20821520800018,228.19786816600026,225.12043504100075,225.12043504100075,225.12258866600007,225.12043504100075,225.12043504100075,225.12043504100075,225.12258866600007,225.12043504100075,230.23642545800067,230.9887079580003,233.0461529160002,237.11549325000033,230.9887079580003,230.9887079580003,236.16698016600003,231.45289554100054,232.51314354100032,233.0461529160002,234.1131920000007,230.9887079580003,230.9887079580003,230.93332199933351,230.9887079580003,230.9887079580003,230.9887079580003,230.93332199933351,230.9887079580003,230.9887079580003,236.16698016600003,230.9887079580003,236.16698016600003,236.16698016600003,237.11549325000033,230.9887079580003,1,0,1.2656936659996063,reldom2_fmri_s004p,001,2024-12-11_16h32.15.339,Vis-B-Scan_AC,2022.2.5,None,
0,0.0,None,fixation,stimulus/viswhere_stim/blank_white.png,stimulus/viswhere_stim/blank_white.png,stimulus/viswhat_stim/blank_white.png,stimulus/viswhat_stim/blank_white.png,stimulus/viswhere_stim/blank_white.png,stimulus/viswhere_stim/blank_white.png,stimulus/viswhere_stim/blank_white.png,stimulus/viswhere_stim/blank_white.png,0.0,0.0,0.0,0.0,0,0.0,0,0.0,0,0.0,0,0.0,0,0.0,0.0,0,0.0,0,0.0,0,0.0,0,0.0,0,0,0,0,0,0,0,0,9,,,,,0,24,24,24,,,,,,,,,237.11549325000033,237.11549325000033,237.11549325000033,237.11549325000033,237.11549325000033,237.11549325000033,237.11549325000033,237.11549325000033,237.01674487433405,237.11549325000033,237.11549325000033,237.11549325000033,237.01674487433405,237.11549325000033,237.11549325000033,237.11549325000033,237.11549325000033,237.11549325000033,237.11549325000033,237.11549325000033,237.11549325000033,237.11549325000033,237.11549325000033,237.11549325000033,237.11549325000033,237.11549325000033,237.11549325000033,237.06674487433406,237.11549325000033,237.11549325000033,237.11549325000033,237.06674487433406,237.11549325000033,237.11549325000033,237.11549325000033,237.11549325000033,237.11549325000033,242.31627820800077,242.31627820800077,246.33694812500016,None,0,,reldom2_fmri_s004p,001,2024-12-11_16h32.15.339,Vis-B-Scan_AC,2022.2.5,None,
19,First_Order,4.0,viswhat,stimulus/viswhat_stim/blank_white.png,stimulus/viswhat_stim/blank_white.png,stimulus/viswhat_stim/water_animal-dolphin.png,stimulus/viswhat_stim/water_vehicle-canoe.png,stimulus/viswhat_stim/blank_white.png,stimulus/viswhat_stim/type_box.png,stimulus/viswhat_stim/type_yes.png,stimulus/viswhat_stim/type_no.png,None,Type,None,Location,2,0.0,0,5.125,0,5.125,0,5.125,0,0.0,0.625,0,0.0,0,0.0,1,0.5,1,2.125,0,0,0,0,0,0,0,0,0,,,,,0,25,25,25,,,,,,,,,246.33694812500016,246.33694812500016,246.33694812500016,246.33694812500016,246.33694812500016,246.33694812500016,246.33694812500016,246.33694812500016,246.29238354166745,246.33694812500016,246.33694812500016,246.33694812500016,246.29238354166745,246.33694812500016,246.33694812500016,246.33694812500016,248.42300650000016,252.48362862500016,246.33694812500016,246.33694812500016,251.48894375000054,246.8067948329999,247.83696645800046,248.42300650000016,249.4600859580005,246.33694812500016,246.33694812500016,246.3090502083341,246.33694812500016,246.33694812500016,246.33694812500016,246.3090502083341,246.33694812500016,246.33694812500016,251.48894375000054,246.33694812500016,251.48894375000054,251.56022166599996,252.19977008300066,246.33694812500016,2,1,0.9650989589999881,reldom2_fmri_s004p,001,2024-12-11_16h32.15.339,Vis-B-Scan_AC,2022.2.5,None,
20,First_Order,4.0,viswhat,stimulus/viswhat_stim/blank_white.png,stimulus/viswhat_stim/blank_white.png,stimulus/viswhat_stim/land_animal-elephant.png,stimulus/viswhat_stim/land_vehicle-pickuptruck.png,stimulus/viswhat_stim/blank_white.png,stimulus/viswhat_stim/type_box.png,stimulus/viswhat_stim/type_yes.png,stimulus/viswhat_stim/type_no.png,None,Type,None,Location,2,0.0,0,5.125,0,5.125,0,5.125,0,0.0,0.625,0,0.0,0,0.0,1,0.5,1,2.125,0,0,0,0,0,0,0,0,0,,,,,0,26,26,26,,,,,,,,,252.48362862500016,252.48362862500016,252.48362862500016,252.48362862500016,252.48362862500016,252.48362862500016,252.48362862500016,252.48362862500016,252.37054287500052,252.48362862500016,252.48362862500016,252.48362862500016,252.37054287500052,252.48362862500016,252.48362862500016,252.48362862500016,254.53667762500027,,252.48362862500016,252.48362862500016,257.67355533299997,252.96599712500029,254.05565449999995,254.53667762500027,255.62484787500034,252.48362862500016,252.48362862500016,252.4372095416672,252.48362862500016,252.48362862500016,252.48362862500016,252.4372095416672,252.48362862500016,252.48362862500016,257.67355533299997,252.48362862500016,257.67355533299997,257.67355533299997,258.7314141659999,252.48362862500016,2,1,1.590010166999491,reldom2_fmri_s004p,001,2024-12-11_16h32.15.339,Vis-B-Scan_AC,2022.2.5,None,
21,First_Order,4.0,viswhat,stimulus/viswhat_stim/blank_white.png,stimulus/viswhat_stim/blank_white.png,stimulus/viswhat_stim/water_vehicle-cruiseship.png,stimulus/viswhat_stim/land_vehicle-oldcar.png,stimulus/viswhat_stim/blank_white.png,stimulus/viswhat_stim/type_box.png,stimulus/viswhat_stim/type_yes.png,stimulus/viswhat_stim/type_no.png,None,Type,None,Type,1,0.0,0,5.125,0,5.125,0,5.125,0,0.0,0.625,0,0.0,0,0.0,1,0.5,1,2.125,0,0,0,0,0,0,0,0,0,,,,,0,27,27,27,,,,,,,,,258.7314141659999,258.7314141659999,258.7314141659999,258.7314141659999,258.7314141659999,258.7314141659999,258.7314141659999,258.7314141659999,258.4971534996672,258.7314141659999,258.7314141659999,258.7314141659999,258.4971534996672,258.7314141659999,258.7314141659999,258.7314141659999,260.72954354100057,,258.7314141659999,258.7314141659999,264.01573033300065,259.2028623750002,260.3774435000005,260.72954354100057,261.90616329100067,258.7314141659999,258.7314141659999,258.6138201663339,258.7314141659999,258.7314141659999,258.7314141659999,258.6138201663339,258.7314141659999,258.7314141659999,264.01573033300065,258.7314141659999,264.01573033300065,263.9038153750007,,258.7314141659999,1,1,1.4204361250003785,reldom2_fmri_s004p,001,2024-12-11_16h32.15.339,Vis-B-Scan_AC,2022.2.5,None,
22,First_Order,4.0,viswhat,stimulus/viswhat_stim/blank_white.png,stimulus/viswhat_stim/blank_white.png,stimulus/viswhat_stim/water_vehicle-pirateship.png,stimulus/viswhat_stim/water_animal-orka.png,stimulus/viswhat_stim/blank_white.png,stimulus/viswhat_stim/location_box.png,stimulus/viswhat_stim/location_yes.png,stimulus/viswhat_stim/location_no.png,None,Location,None,Location,1,0.0,0,5.125,0,5.125,0,5.125,0,0.0,0.625,0,0.0,0,0.0,1,0.5,1,2.125,0,0,0,0,0,0,0,0,0,,,,,0,28,28,28,,,,,,,,,264.873252333,264.873252333,264.873252333,264.873252333,264.873252333,264.873252333,264.873252333,264.873252333,264.74585441633326,264.873252333,264.873252333,264.873252333,264.74585441633326,264.873252333,264.873252333,264.873252333,266.91620229100045,271.0155444580005,264.873252333,264.873252333,270.0485440000002,265.35276116600016,266.44124762499996,266.91620229100045,268.008301375,264.873252333,264.873252333,264.8125210829999,264.873252333,264.873252333,264.873252333,264.8125210829999,264.873252333,264.873252333,270.0485440000002,264.873252333,270.0485440000002,270.0485440000002,270.73343279100027,264.873252333,1,1,1.3507839999992939,reldom2_fmri_s004p,001,2024-12-11_16h32.15.339,Vis-B-Scan_AC,2022.2.5,None,
0,0.0,None,fixation,stimulus/viswhere_stim/blank_white.png,stimulus/viswhere_stim/blank_white.png,stimulus/viswhat_stim/blank_white.png,stimulus/viswhat_stim/blank_white.png,stimulus/viswhere_stim/blank_white.png,stimulus/viswhere_stim/blank_white.png,stimulus/viswhere_stim/blank_white.png,stimulus/viswhere_stim/blank_white.png,0.0,0.0,0.0,0.0,0,0.0,0,0.0,0,0.0,0,0.0,0,0.0,0.0,0,0.0,0,0.0,0,0.0,0,0.0,0,0,0,0,0,0,0,0,10,,,,,0,29,29,29,,,,,,,,,271.0155444580005,271.0155444580005,271.0155444580005,271.0155444580005,271.0155444580005,271.0155444580005,271.0155444580005,271.0155444580005,270.9167661243336,271.0155444580005,271.0155444580005,271.0155444580005,270.9167661243336,271.0155444580005,271.0155444580005,271.0155444580005,271.0155444580005,271.0155444580005,271.0155444580005,271.0155444580005,271.0155444580005,271.0155444580005,271.0155444580005,271.0155444580005,271.0155444580005,271.0155444580005,271.0155444580005,270.96676612433356,271.0155444580005,271.0155444580005,271.0155444580005,270.96676612433356,271.0155444580005,271.0155444580005,271.0155444580005,271.0155444580005,271.0155444580005,276.2135093750003,276.2135093750003,281.1671765000001,None,0,,reldom2_fmri_s004p,001,2024-12-11_16h32.15.339,Vis-B-Scan_AC,2022.2.5,None,
23,Second_Order,4.0,viswhat,stimulus/viswhat_stim/land_vehicle-pickuptruck.png,stimulus/viswhat_stim/land_animal-lion.png,stimulus/viswhat_stim/water_animal-jellyfish.png,stimulus/viswhat_stim/water_vehicle-cabincruiser.png,stimulus/viswhere_stim/match_blank.png,stimulus/viswhere_stim/match_box.png,stimulus/viswhere_stim/match_yes.png,stimulus/viswhere_stim/match_no.png,1.0,Match,Location,Location,1,5.125,0,5.125,0,5.125,0,5.125,0,0.75,0.75,1,0.5,1,2.125,1,0.5,1,2.125,0,0,0,0,0,0,0,0,0,,,,,0,30,30,30,,,,,,,,,281.1671765000001,286.2821857910003,281.6212197499999,282.61926316600056,283.2587641660002,284.2563916250001,281.1671765000001,281.1671765000001,281.17930600000034,281.1671765000001,281.1671765000001,281.1671765000001,281.17930600000034,281.1671765000001,286.2821857910003,287.1048931660007,289.17050087500047,,287.1048931660007,287.1048931660007,292.25582083300014,287.5501329580002,288.601781458,289.17050087500047,290.2288619159999,287.1048931660007,287.1048931660007,287.0667610409999,287.1048931660007,287.1048931660007,287.1048931660007,287.0667610409999,287.1048931660007,287.1048931660007,292.25582083300014,287.1048931660007,292.25582083300014,292.29085929100074,,287.1048931660007,1,1,1.5758822090001559,reldom2_fmri_s004p,001,2024-12-11_16h32.15.339,Vis-B-Scan_AC,2022.2.5,None,
24,Second_Order,4.0,viswhat,stimulus/viswhat_stim/water_vehicle-pirateship.png,stimulus/viswhat_stim/land_vehicle-oldcar.png,stimulus/viswhat_stim/land_animal-zebra.png,stimulus/viswhat_stim/water_animal-seahorse.png,stimulus/viswhere_stim/match_blank.png,stimulus/viswhere_stim/match_box.png,stimulus/viswhere_stim/match_yes.png,stimulus/viswhere_stim/match_no.png,1.0,Match,Type,Type,1,5.125,0,5.125,0,5.125,0,5.125,0,0.625,0.625,1,0.5,1,2.125,1,0.5,1,2.125,0,0,0,0,0,0,0,0,0,,,,,0,31,31,31,,,,,,,,,293.09195166600057,298.20988220800064,293.54865450000034,294.5471743750004,295.16972529100076,296.1674425830006,293.09195166600057,293.09195166600057,293.1029005826666,293.09195166600057,293.09195166600057,293.09195166600057,293.1029005826666,293.09195166600057,298.20988220800064,298.87879179100037,300.9762592500001,305.0077355000003,298.87879179100037,298.87879179100037,304.0165823750003,299.34807595800066,300.36112120800044,300.9762592500001,301.99151091600015,298.87879179100037,298.87879179100037,298.85680641633326,298.87879179100037,298.87879179100037,298.87879179100037,298.85680641633326,298.87879179100037,298.87879179100037,304.0165823750003,298.87879179100037,304.0165823750003,304.09257487500054,304.73594825000055,298.87879179100037,1,1,1.1385946250002235,reldom2_fmri_s004p,001,2024-12-11_16h32.15.339,Vis-B-Scan_AC,2022.2.5,None,
0,0.0,None,fixation,stimulus/viswhere_stim/blank_white.png,stimulus/viswhere_stim/blank_white.png,stimulus/viswhat_stim/blank_white.png,stimulus/viswhat_stim/blank_white.png,stimulus/viswhere_stim/blank_white.png,stimulus/viswhere_stim/blank_white.png,stimulus/viswhere_stim/blank_white.png,stimulus/viswhere_stim/blank_white.png,0.0,0.0,0.0,0.0,0,0.0,0,0.0,0,0.0,0,0.0,0,0.0,0.0,0,0.0,0,0.0,0,0.0,0,0.0,0,0,0,0,0,0,0,0,9,,,,,0,32,32,32,,,,,,,,,305.0077355000003,305.0077355000003,305.0077355000003,305.0077355000003,305.0077355000003,305.0077355000003,305.0077355000003,305.0077355000003,304.91192737500074,305.0077355000003,305.0077355000003,305.0077355000003,304.91192737500074,305.0077355000003,305.0077355000003,305.0077355000003,305.0077355000003,305.0077355000003,305.0077355000003,305.0077355000003,305.0077355000003,305.0077355000003,305.0077355000003,305.0077355000003,305.0077355000003,305.0077355000003,305.0077355000003,304.96192737500076,305.0077355000003,305.0077355000003,305.0077355000003,304.96192737500076,305.0077355000003,305.0077355000003,305.0077355000003,305.0077355000003,305.0077355000003,310.2140620830005,310.2140620830005,314.2239345830003,None,0,,reldom2_fmri_s004p,001,2024-12-11_16h32.15.339,Vis-B-Scan_AC,2022.2.5,None,
25,First_Order,5.0,viswhere,stimulus/viswhere_stim/blank_white.png,stimulus/viswhere_stim/blank_white.png,stimulus/viswhere_stim/90-deg_dot-right_seagreen.png,stimulus/viswhere_stim/150-deg_dot-right_turquoise.png,stimulus/viswhere_stim/blank_white.png,stimulus/viswhere_stim/line_box.png,stimulus/viswhere_stim/line_yes.png,stimulus/viswhere_stim/line_no.png,None,Line,None,Dot,2,0.0,0,5.125,0,5.125,0,5.125,0,0.0,0.625,0,0.0,0,0.0,1,0.5,1,2.125,0,0,0,0,0,0,0,0,0,,,,,0,33,33,33,,,,,,,,,314.2239345830003,314.2239345830003,314.2239345830003,314.2239345830003,314.2239345830003,314.2239345830003,314.2239345830003,314.2239345830003,314.19851645766687,314.2239345830003,314.2239345830003,314.2239345830003,314.19851645766687,314.2239345830003,314.2239345830003,314.2239345830003,316.316700333,320.28453787500075,314.2239345830003,314.2239345830003,319.37003575000017,314.69290279100005,315.712357333,316.316700333,317.3382786660004,314.2239345830003,314.2239345830003,314.2151831243336,314.2239345830003,314.2239345830003,314.2239345830003,314.2151831243336,314.2239345830003,314.2239345830003,319.37003575000017,314.2239345830003,319.37003575000017,319.4418740000001,320.06549670799996,314.2239345830003,2,1,1.5249552909999693,reldom2_fmri_s004p,001,2024-12-11_16h32.15.339,Vis-B-Scan_AC,2022.2.5,None,
26,First_Order,5.0,viswhere,stimulus/viswhere_stim/blank_white.png,stimulus/viswhere_stim/blank_white.png,stimulus/viswhere_stim/150-deg_dot-left_seagreen.png,stimulus/viswhere_stim/150-deg_dot-right_seagreen.png,stimulus/viswhere_stim/blank_white.png,stimulus/viswhere_stim/dot_box.png,stimulus/viswhere_stim/dot_yes.png,stimulus/viswhere_stim/dot_no.png,None,Dot,None,Line,2,0.0,0,5.125,0,5.125,0,5.125,0,0.0,0.625,0,0.0,0,0.0,1,0.5,1,2.125,0,0,0,0,0,0,0,0,0,,,,,0,34,34,34,,,,,,,,,320.28453787500075,320.28453787500075,320.28453787500075,320.28453787500075,320.28453787500075,320.28453787500075,320.28453787500075,320.28453787500075,320.26091162433323,320.28453787500075,320.28453787500075,320.28453787500075,320.26091162433323,320.28453787500075,320.28453787500075,320.28453787500075,322.3998768750007,326.34447254099996,320.28453787500075,320.28453787500075,325.42089987500003,320.7745744160002,321.7952515830002,322.3998768750007,323.4034160000001,320.28453787500075,320.28453787500075,320.2775782909999,320.28453787500075,320.28453787500075,320.28453787500075,320.2775782909999,320.28453787500075,320.28453787500075,325.42089987500003,320.28453787500075,325.42089987500003,325.5064809579999,326.14100733300074,320.28453787500075,2,1,1.8599113750005927,reldom2_fmri_s004p,001,2024-12-11_16h32.15.339,Vis-B-Scan_AC,2022.2.5,None,
27,First_Order,5.0,viswhere,stimulus/viswhere_stim/blank_white.png,stimulus/viswhere_stim/blank_white.png,stimulus/viswhere_stim/90-deg_dot-left_turquoise.png,stimulus/viswhere_stim/90-deg_dot-right_seagreen.png,stimulus/viswhere_stim/blank_white.png,stimulus/viswhere_stim/line_box.png,stimulus/viswhere_stim/line_yes.png,stimulus/viswhere_stim/line_no.png,None,Line,None,Line,1,0.0,0,5.125,0,5.125,0,5.125,0,0.0,0.625,0,0.0,0,0.0,1,0.5,1,2.125,0,0,0,0,0,0,0,0,0,,,,,0,35,35,35,,,,,,,,,326.34447254099996,326.34447254099996,326.34447254099996,326.34447254099996,326.34447254099996,326.34447254099996,326.34447254099996,326.34447254099996,326.3215802083335,326.34447254099996,326.34447254099996,326.34447254099996,326.3215802083335,326.34447254099996,326.34447254099996,326.34447254099996,328.4480450000001,332.41627779100054,326.34447254099996,326.34447254099996,331.4749715000007,326.8311814160006,327.8452958329999,328.4480450000001,329.4670519580004,326.34447254099996,326.34447254099996,326.33824687500015,326.34447254099996,326.34447254099996,326.34447254099996,326.33824687500015,326.34447254099996,326.34447254099996,331.4749715000007,326.34447254099996,331.4749715000007,331.5731013750001,332.19975658300064,326.34447254099996,1,1,1.0147151660003146,reldom2_fmri_s004p,001,2024-12-11_16h32.15.339,Vis-B-Scan_AC,2022.2.5,None,
28,First_Order,5.0,viswhere,stimulus/viswhere_stim/blank_white.png,stimulus/viswhere_stim/blank_white.png,stimulus/viswhere_stim/120-deg_dot-right_mediumslateblue.png,stimulus/viswhere_stim/90-deg_dot-right_lightsseagreen.png,stimulus/viswhere_stim/blank_white.png,stimulus/viswhere_stim/dot_box.png,stimulus/viswhere_stim/dot_yes.png,stimulus/viswhere_stim/dot_no.png,None,Dot,None,Dot,1,0.0,0,5.125,0,5.125,0,5.125,0,0.0,0.625,0,0.0,0,0.0,1,0.5,1,2.125,0,0,0,0,0,0,0,0,0,,,,,0,36,36,36,,,,,,,,,332.41627779100054,332.41627779100054,332.41627779100054,332.41627779100054,332.41627779100054,332.41627779100054,332.41627779100054,332.41627779100054,332.39384358333365,332.41627779100054,332.41627779100054,332.41627779100054,332.39384358333365,332.41627779100054,332.41627779100054,332.41627779100054,334.53147104100026,338.5564658330004,332.41627779100054,332.41627779100054,337.5620428330003,332.90289208300055,333.91226379100044,334.53147104100026,335.54633108300004,332.41627779100054,332.41627779100054,332.4105102500003,332.41627779100054,332.41627779100054,332.41627779100054,332.4105102500003,332.41627779100054,332.41627779100054,337.5620428330003,332.41627779100054,337.5620428330003,337.63352454100004,338.2607151250004,332.41627779100054,1,1,1.336305041999367,reldom2_fmri_s004p,001,2024-12-11_16h32.15.339,Vis-B-Scan_AC,2022.2.5,None,
0,0.0,None,fixation,stimulus/viswhere_stim/blank_white.png,stimulus/viswhere_stim/blank_white.png,stimulus/viswhat_stim/blank_white.png,stimulus/viswhat_stim/blank_white.png,stimulus/viswhere_stim/blank_white.png,stimulus/viswhere_stim/blank_white.png,stimulus/viswhere_stim/blank_white.png,stimulus/viswhere_stim/blank_white.png,0.0,0.0,0.0,0.0,0,0.0,0,0.0,0,0.0,0,0.0,0,0.0,0.0,0,0.0,0,0.0,0,0.0,0,0.0,0,0,0,0,0,0,0,0,10,,,,,0,37,37,37,,,,,,,,,338.5564658330004,338.5564658330004,338.5564658330004,338.5564658330004,338.5564658330004,338.5564658330004,338.5564658330004,338.5564658330004,338.45508745833405,338.5564658330004,338.5564658330004,338.5564658330004,338.45508745833405,338.5564658330004,338.5564658330004,338.5564658330004,338.5564658330004,338.5564658330004,338.5564658330004,338.5564658330004,338.5564658330004,338.5564658330004,338.5564658330004,338.5564658330004,338.5564658330004,338.5564658330004,338.5564658330004,338.50508745833406,338.5564658330004,338.5564658330004,338.5564658330004,338.50508745833406,338.5564658330004,338.5564658330004,338.5564658330004,338.5564658330004,338.5564658330004,343.763280958,343.763280958,348.7073257080001,None,0,,reldom2_fmri_s004p,001,2024-12-11_16h32.15.339,Vis-B-Scan_AC,2022.2.5,None,
29,Second_Order,5.0,viswhere,stimulus/viswhere_stim/30-deg_dot-right_peru.png,stimulus/viswhere_stim/120-deg_dot-right_royalblue.png,stimulus/viswhere_stim/120-deg_dot-left_lightsseagreen.png,stimulus/viswhere_stim/90-deg_dot-left_seagreen.png,stimulus/viswhere_stim/match_blank.png,stimulus/viswhere_stim/match_box.png,stimulus/viswhere_stim/match_yes.png,stimulus/viswhere_stim/match_no.png,1.0,Match,Dot,Dot,1,5.125,0,5.125,0,5.125,0,5.125,0,0.75,0.75,1,0.5,1,2.125,1,0.5,1,2.125,0,0,0,0,0,0,0,0,0,,,,,0,38,38,38,,,,,,,,,348.7073257080001,353.82166250000046,349.1894419999999,350.17919741600053,350.81520604100024,351.8126784160004,348.7073257080001,348.7073257080001,348.72035295833405,348.7073257080001,348.7073257080001,348.7073257080001,348.72035295833405,348.7073257080001,353.82166250000046,354.6019085000007,356.6907764160005,360.5891296660002,354.6019085000007,354.6019085000007,359.7299149999999,355.0698652500005,356.0871521250001,356.6907764160005,357.6958286660001,354.6019085000007,354.6019085000007,354.58940995833336,354.6019085000007,354.6019085000007,354.6019085000007,354.58940995833336,354.6019085000007,354.6019085000007,359.7299149999999,354.6019085000007,359.7299149999999,359.8132303749999,360.5891296660002,354.6019085000007,1,1,0.5783842920000097,reldom2_fmri_s004p,001,2024-12-11_16h32.15.339,Vis-B-Scan_AC,2022.2.5,None,
30,Second_Order,5.0,viswhere,stimulus/viswhere_stim/60-deg_dot-right_seagreen.png,stimulus/viswhere_stim/60-deg_dot-left_slateblue.png,stimulus/viswhere_stim/120-deg_dot-left_seagreen.png,stimulus/viswhere_stim/30-deg_dot-left_cyan.png,stimulus/viswhere_stim/match_blank.png,stimulus/viswhere_stim/match_box.png,stimulus/viswhere_stim/match_yes.png,stimulus/viswhere_stim/match_no.png,2.0,Match,Line,Dot,2,5.125,0,5.125,0,5.125,0,5.125,0,0.625,0.625,1,0.5,1,2.125,1,0.5,1,2.125,0,0,0,0,0,0,0,0,0,,,,,0,39,39,39,,,,,,,,,360.5891296660002,365.7110149580003,361.07199766600024,362.06903229100044,362.6924450000006,363.68954445800046,360.5891296660002,360.5891296660002,360.60091512500077,360.5891296660002,360.5891296660002,360.5891296660002,360.60091512500077,360.5891296660002,365.7110149580003,366.3724710000006,368.4705991660003,372.5095041660006,366.3724710000006,366.3724710000006,371.4977637080001,366.83810712500053,367.8504914160003,368.4705991660003,369.48953066600006,366.3724710000006,366.3724710000006,366.3625859163335,366.3724710000006,366.3724710000006,366.3724710000006,366.3625859163335,366.3724710000006,366.3724710000006,371.4977637080001,366.3724710000006,371.4977637080001,371.5819784580008,372.21073612500004,366.3724710000006,2,1,1.5390826250004466,reldom2_fmri_s004p,001,2024-12-11_16h32.15.339,Vis-B-Scan_AC,2022.2.5,None,
0,0.0,None,fixation,stimulus/viswhere_stim/blank_white.png,stimulus/viswhere_stim/blank_white.png,stimulus/viswhat_stim/blank_white.png,stimulus/viswhat_stim/blank_white.png,stimulus/viswhere_stim/blank_white.png,stimulus/viswhere_stim/blank_white.png,stimulus/viswhere_stim/blank_white.png,stimulus/viswhere_stim/blank_white.png,0.0,0.0,0.0,0.0,0,0.0,0,0.0,0,0.0,0,0.0,0,0.0,0.0,0,0.0,0,0.0,0,0.0,0,0.0,0,0,0,0,0,0,0,0,9,,,,,0,40,40,40,,,,,,,,,372.5095041660006,372.5095041660006,372.5095041660006,372.5095041660006,372.5095041660006,372.5095041660006,372.5095041660006,372.5095041660006,372.4056651243339,372.5095041660006,372.5095041660006,372.5095041660006,372.4056651243339,372.5095041660006,372.5095041660006,372.5095041660006,372.5095041660006,372.5095041660006,372.5095041660006,372.5095041660006,372.5095041660006,372.5095041660006,372.5095041660006,372.5095041660006,372.5095041660006,372.5095041660006,372.5095041660006,372.4556651243339,372.5095041660006,372.5095041660006,372.5095041660006,372.4556651243339,372.5095041660006,372.5095041660006,372.5095041660006,372.5095041660006,372.5095041660006,377.7383049580003,377.7383049580003,381.7065225410006,None,0,,reldom2_fmri_s004p,001,2024-12-11_16h32.15.339,Vis-B-Scan_AC,2022.2.5,None,
31,First_Order,6.0,viswhere,stimulus/viswhere_stim/blank_white.png,stimulus/viswhere_stim/blank_white.png,stimulus/viswhere_stim/120-deg_dot-left_royalblue.png,stimulus/viswhere_stim/30-deg_dot-left_goldenrod.png,stimulus/viswhere_stim/blank_white.png,stimulus/viswhere_stim/dot_box.png,stimulus/viswhere_stim/dot_yes.png,stimulus/viswhere_stim/dot_no.png,None,Dot,None,Dot,1,0.0,0,5.125,0,5.125,0,5.125,0,0.0,0.625,0,0.0,0,0.0,1,0.5,1,2.125,0,0,0,0,0,0,0,0,0,,,,,0,41,41,41,,,,,,,,,381.7065225410006,381.7065225410006,381.7065225410006,381.7065225410006,381.7065225410006,381.7065225410006,381.7065225410006,381.7065225410006,381.68115620766696,381.7065225410006,381.7065225410006,381.7065225410006,381.68115620766696,381.7065225410006,381.7065225410006,381.7065225410006,383.79890008300026,387.7640194579999,381.7065225410006,381.7065225410006,386.8450427910002,382.17235558300035,383.18118120800045,383.79890008300026,384.8094002080006,381.7065225410006,381.7065225410006,381.69782287433367,381.7065225410006,381.7065225410006,381.7065225410006,381.69782287433367,381.7065225410006,381.7065225410006,386.8450427910002,381.7065225410006,386.8450427910002,386.9282413330002,387.56054854100057,381.7065225410006,1,1,2.3451557919997867,reldom2_fmri_s004p,001,2024-12-11_16h32.15.339,Vis-B-Scan_AC,2022.2.5,None,
32,First_Order,6.0,viswhere,stimulus/viswhere_stim/blank_white.png,stimulus/viswhere_stim/blank_white.png,stimulus/viswhere_stim/150-deg_dot-left_salmon.png,stimulus/viswhere_stim/150-deg_dot-right_salmon.png,stimulus/viswhere_stim/blank_white.png,stimulus/viswhere_stim/dot_box.png,stimulus/viswhere_stim/dot_yes.png,stimulus/viswhere_stim/dot_no.png,None,Dot,None,Line,2,0.0,0,5.125,0,5.125,0,5.125,0,0.0,0.625,0,0.0,0,0.0,1,0.5,1,2.125,0,0,0,0,0,0,0,0,0,,,,,0,42,42,42,,,,,,,,,387.7640194579999,387.7640194579999,387.7640194579999,387.7640194579999,387.7640194579999,387.7640194579999,387.7640194579999,387.7640194579999,387.74116733333386,387.7640194579999,387.7640194579999,387.7640194579999,387.74116733333386,387.7640194579999,387.7640194579999,387.7640194579999,389.86305258300035,393.8324755000003,387.7640194579999,387.7640194579999,392.90641754100034,388.2545729580006,389.25692770800015,389.86305258300035,390.86745075,387.7640194579999,387.7640194579999,387.7578340000005,387.7640194579999,387.7640194579999,387.7640194579999,387.7578340000005,387.7640194579999,387.7640194579999,392.90641754100034,387.7640194579999,392.90641754100034,392.989805833,393.6411844160002,387.7640194579999,2,1,0.7120490000006612,reldom2_fmri_s004p,001,2024-12-11_16h32.15.339,Vis-B-Scan_AC,2022.2.5,None,
33,First_Order,6.0,viswhere,stimulus/viswhere_stim/blank_white.png,stimulus/viswhere_stim/blank_white.png,stimulus/viswhere_stim/150-deg_dot-left_cyan.png,stimulus/viswhere_stim/150-deg_dot-right_seagreen.png,stimulus/viswhere_stim/blank_white.png,stimulus/viswhere_stim/line_box.png,stimulus/viswhere_stim/line_yes.png,stimulus/viswhere_stim/line_no.png,None,Line,None,Line,1,0.0,0,5.125,0,5.125,0,5.125,0,0.0,0.625,0,0.0,0,0.0,1,0.5,1,2.125,0,0,0,0,0,0,0,0,0,,,,,0,43,43,43,,,,,,,,,393.8324755000003,393.8324755000003,393.8324755000003,393.8324755000003,393.8324755000003,393.8324755000003,393.8324755000003,393.8324755000003,393.80826762433327,393.8324755000003,393.8324755000003,393.8324755000003,393.80826762433327,393.8324755000003,393.8324755000003,393.8324755000003,395.9378237910005,399.90086125000016,393.8324755000003,393.8324755000003,398.9727612080005,394.3074003750007,395.31080895800005,395.9378237910005,396.9443267910001,393.8324755000003,393.8324755000003,393.8249342909999,393.8324755000003,393.8324755000003,393.8324755000003,393.8249342909999,393.8324755000003,393.8324755000003,398.9727612080005,393.8324755000003,398.9727612080005,399.05715862500074,399.68284854100057,393.8324755000003,1,1,1.0496700409994446,reldom2_fmri_s004p,001,2024-12-11_16h32.15.339,Vis-B-Scan_AC,2022.2.5,None,
34,First_Order,6.0,viswhere,stimulus/viswhere_stim/blank_white.png,stimulus/viswhere_stim/blank_white.png,stimulus/viswhere_stim/150-deg_dot-right_cyan.png,stimulus/viswhere_stim/120-deg_dot-right_cyan.png,stimulus/viswhere_stim/blank_white.png,stimulus/viswhere_stim/line_box.png,stimulus/viswhere_stim/line_yes.png,stimulus/viswhere_stim/line_no.png,None,Line,None,Dot,2,0.0,0,5.125,0,5.125,0,5.125,0,0.0,0.625,0,0.0,0,0.0,1,0.5,1,2.125,0,0,0,0,0,0,0,0,0,,,,,0,44,44,44,,,,,,,,,399.90086125000016,399.90086125000016,399.90086125000016,399.90086125000016,399.90086125000016,399.90086125000016,399.90086125000016,399.90086125000016,399.87771408333384,399.90086125000016,399.90086125000016,399.90086125000016,399.87771408333384,399.90086125000016,399.90086125000016,399.90086125000016,402.0111960000004,406.04856025000026,399.90086125000016,399.90086125000016,405.0269747910006,400.389555791,401.4069730000001,402.0111960000004,403.03121587500027,399.90086125000016,399.90086125000016,399.8943807500005,399.90086125000016,399.90086125000016,399.90086125000016,399.8943807500005,399.90086125000016,399.90086125000016,405.0269747910006,399.90086125000016,405.0269747910006,405.1345079160001,405.7662480830004,399.90086125000016,2,1,1.341983583000001,reldom2_fmri_s004p,001,2024-12-11_16h32.15.339,Vis-B-Scan_AC,2022.2.5,None,
0,0.0,None,fixation,stimulus/viswhere_stim/blank_white.png,stimulus/viswhere_stim/blank_white.png,stimulus/viswhat_stim/blank_white.png,stimulus/viswhat_stim/blank_white.png,stimulus/viswhere_stim/blank_white.png,stimulus/viswhere_stim/blank_white.png,stimulus/viswhere_stim/blank_white.png,stimulus/viswhere_stim/blank_white.png,0.0,0.0,0.0,0.0,0,0.0,0,0.0,0,0.0,0,0.0,0,0.0,0.0,0,0.0,0,0.0,0,0.0,0,0.0,0,0,0,0,0,0,0,0,8,,,,,0,45,45,45,,,,,,,,,406.04856025000026,406.04856025000026,406.04856025000026,406.04856025000026,406.04856025000026,406.04856025000026,406.04856025000026,406.04856025000026,405.94716745833404,406.04856025000026,406.04856025000026,406.04856025000026,405.94716745833404,406.04856025000026,406.04856025000026,406.04856025000026,406.04856025000026,406.04856025000026,406.04856025000026,406.04856025000026,406.04856025000026,406.04856025000026,406.04856025000026,406.04856025000026,406.04856025000026,406.04856025000026,406.04856025000026,405.99716745833405,406.04856025000026,406.04856025000026,406.04856025000026,405.99716745833405,406.04856025000026,406.04856025000026,406.04856025000026,406.04856025000026,406.04856025000026,411.2633022500004,411.2633022500004,414.1540672910005,None,0,,reldom2_fmri_s004p,001,2024-12-11_16h32.15.339,Vis-B-Scan_AC,2022.2.5,None,
35,Second_Order,6.0,viswhere,stimulus/viswhere_stim/60-deg_dot-right_cyan.png,stimulus/viswhere_stim/60-deg_dot-left_goldenrod.png,stimulus/viswhere_stim/150-deg_dot-left_salmon.png,stimulus/viswhere_stim/150-deg_dot-right_goldenrod.png,stimulus/viswhere_stim/match_blank.png,stimulus/viswhere_stim/match_box.png,stimulus/viswhere_stim/match_yes.png,stimulus/viswhere_stim/match_no.png,1.0,Match,Line,Line,1,5.125,0,5.125,0,5.125,0,5.125,0,0.75,0.75,1,0.5,1,2.125,1,0.5,1,2.125,0,0,0,0,0,0,0,0,0,,,,,0,46,46,46,,,,,,,,,414.1540672910005,419.27192758300043,414.627681166,415.6261295000004,416.2608800830003,417.2502549999999,414.1540672910005,414.1540672910005,414.164246833334,414.1540672910005,414.1540672910005,414.1540672910005,414.164246833334,414.1540672910005,419.27192758300043,420.0505197910006,422.14403112500077,426.0368654160002,420.0505197910006,420.0505197910006,425.19013933299993,420.5248644160001,421.53278933300044,422.14403112500077,423.15765666600055,420.0505197910006,420.0505197910006,420.03991866633396,420.0505197910006,420.0505197910006,420.0505197910006,420.03991866633396,420.0505197910006,420.0505197910006,425.19013933299993,420.0505197910006,425.19013933299993,425.26180416600073,426.0368654160002,420.0505197910006,1,1,0.810438041999987,reldom2_fmri_s004p,001,2024-12-11_16h32.15.339,Vis-B-Scan_AC,2022.2.5,None,
36,Second_Order,6.0,viswhere,stimulus/viswhere_stim/120-deg_dot-right_slateblue.png,stimulus/viswhere_stim/120-deg_dot-left_royalblue.png,stimulus/viswhere_stim/150-deg_dot-right_royalblue.png,stimulus/viswhere_stim/150-deg_dot-left_salmon.png,stimulus/viswhere_stim/match_blank.png,stimulus/viswhere_stim/match_box.png,stimulus/viswhere_stim/match_yes.png,stimulus/viswhere_stim/match_no.png,1.0,Match,Line,Line,1,5.125,0,5.125,0,5.125,0,5.125,0,0.625,0.625,1,0.5,1,2.125,1,0.5,1,2.125,0,0,0,0,0,0,0,0,0,,,,,0,47,47,47,,,,,,,,,426.0368654160002,431.14976275000026,426.52210470800037,427.5204279160007,428.14262558300015,429.14051895800003,426.0368654160002,426.0368654160002,426.04926066600075,426.0368654160002,426.0368654160002,426.0368654160002,426.04926066600075,426.0368654160002,431.14976275000026,431.80517179100025,433.89432654100074,437.94349587500074,431.80517179100025,431.80517179100025,436.93304941600036,432.276564666,433.28416800000014,433.89432654100074,434.90515762500036,431.80517179100025,431.80517179100025,431.796827333334,431.80517179100025,431.80517179100025,431.80517179100025,431.796827333334,431.80517179100025,431.80517179100025,436.93304941600036,431.80517179100025,436.93304941600036,437.02197383300063,437.65951408300043,431.80517179100025,1,1,0.7962495000001582,reldom2_fmri_s004p,001,2024-12-11_16h32.15.339,Vis-B-Scan_AC,2022.2.5,None,
0,0.0,None,fixation,stimulus/viswhere_stim/blank_white.png,stimulus/viswhere_stim/blank_white.png,stimulus/viswhat_stim/blank_white.png,stimulus/viswhat_stim/blank_white.png,stimulus/viswhere_stim/blank_white.png,stimulus/viswhere_stim/blank_white.png,stimulus/viswhere_stim/blank_white.png,stimulus/viswhere_stim/blank_white.png,0.0,0.0,0.0,0.0,0,0.0,0,0.0,0,0.0,0,0.0,0,0.0,0.0,0,0.0,0,0.0,0,0.0,0,0.0,0,0,0,0,0,0,0,0,10,,,,,0,48,48,48,,,,,,,,,437.94349587500074,437.94349587500074,437.94349587500074,437.94349587500074,437.94349587500074,437.94349587500074,437.94349587500074,437.94349587500074,437.84023504133376,437.94349587500074,437.94349587500074,437.94349587500074,437.84023504133376,437.94349587500074,437.94349587500074,437.94349587500074,437.94349587500074,437.94349587500074,437.94349587500074,437.94349587500074,437.94349587500074,437.94349587500074,437.94349587500074,437.94349587500074,437.94349587500074,437.94349587500074,437.94349587500074,437.89023504133377,437.94349587500074,437.94349587500074,437.94349587500074,437.89023504133377,437.94349587500074,437.94349587500074,437.94349587500074,437.94349587500074,437.94349587500074,443.1299987500006,443.1299987500006,448.2037472080001,None,0,,reldom2_fmri_s004p,001,2024-12-11_16h32.15.339,Vis-B-Scan_AC,2022.2.5,None,
37,First_Order,7.0,viswhat,stimulus/viswhat_stim/blank_white.png,stimulus/viswhat_stim/blank_white.png,stimulus/viswhat_stim/water_vehicle-sailboat.png,stimulus/viswhat_stim/land_vehicle-bus.png,stimulus/viswhat_stim/blank_white.png,stimulus/viswhat_stim/location_box.png,stimulus/viswhat_stim/location_yes.png,stimulus/viswhat_stim/location_no.png,None,Location,None,Type,2,0.0,0,5.125,0,5.125,0,5.125,0,0.0,0.625,0,0.0,0,0.0,1,0.5,1,2.125,0,0,0,0,0,0,0,0,0,,,,,0,49,49,49,,,,,,,,,448.2037472080001,448.2037472080001,448.2037472080001,448.2037472080001,448.2037472080001,448.2037472080001,448.2037472080001,448.2037472080001,448.1058628746665,448.2037472080001,448.2037472080001,448.2037472080001,448.1058628746665,448.2037472080001,448.2037472080001,448.2037472080001,450.31154833300025,,448.2037472080001,448.2037472080001,453.385555416,448.6357975410001,449.71768545800023,450.31154833300025,451.39235316600025,448.2037472080001,448.2037472080001,448.1558628746665,448.2037472080001,448.2037472080001,448.2037472080001,448.1558628746665,448.2037472080001,448.2037472080001,453.385555416,448.2037472080001,453.385555416,453.385555416,454.0608740830003,448.2037472080001,2,1,0.9926955829996587,reldom2_fmri_s004p,001,2024-12-11_16h32.15.339,Vis-B-Scan_AC,2022.2.5,None,
38,First_Order,7.0,viswhat,stimulus/viswhat_stim/blank_white.png,stimulus/viswhat_stim/blank_white.png,stimulus/viswhat_stim/land_vehicle-tank.png,stimulus/viswhat_stim/land_animal-elephant.png,stimulus/viswhat_stim/blank_white.png,stimulus/viswhat_stim/type_box.png,stimulus/viswhat_stim/type_yes.png,stimulus/viswhat_stim/type_no.png,None,Type,None,Location,2,0.0,0,5.125,0,5.125,0,5.125,0,0.0,0.625,0,0.0,0,0.0,1,0.5,1,2.125,0,0,0,0,0,0,0,0,0,,,,,0,50,50,50,,,,,,,,,454.3176241250003,454.3176241250003,454.3176241250003,454.3176241250003,454.3176241250003,454.3176241250003,454.3176241250003,454.3176241250003,454.21087408300025,454.3176241250003,454.3176241250003,454.3176241250003,454.21087408300025,454.3176241250003,454.3176241250003,454.3176241250003,456.43024729100034,,454.3176241250003,454.3176241250003,459.48496308300037,454.7858851660003,455.8440228750005,456.43024729100034,457.4920247910004,454.3176241250003,454.3176241250003,454.26087408300026,454.3176241250003,454.3176241250003,454.3176241250003,454.26087408300026,454.3176241250003,454.3176241250003,459.48496308300037,454.3176241250003,459.48496308300037,459.5380328750007,460.37640991600074,454.3176241250003,2,1,1.5751584999998158,reldom2_fmri_s004p,001,2024-12-11_16h32.15.339,Vis-B-Scan_AC,2022.2.5,None,
39,First_Order,7.0,viswhat,stimulus/viswhat_stim/blank_white.png,stimulus/viswhat_stim/blank_white.png,stimulus/viswhat_stim/land_animal-ostrich.png,stimulus/viswhat_stim/water_animal-whale.png,stimulus/viswhat_stim/blank_white.png,stimulus/viswhat_stim/location_box.png,stimulus/viswhat_stim/location_yes.png,stimulus/viswhat_stim/location_no.png,None,Location,None,Type,2,0.0,0,5.125,0,5.125,0,5.125,0,0.0,0.625,0,0.0,0,0.0,1,0.5,1,2.125,0,0,0,0,0,0,0,0,0,,,,,0,51,51,51,,,,,,,,,460.37640991600074,460.37640991600074,460.37640991600074,460.37640991600074,460.37640991600074,460.37640991600074,460.37640991600074,460.37640991600074,460.3388605826673,460.37640991600074,460.37640991600074,460.37640991600074,460.3388605826673,460.37640991600074,460.37640991600074,460.37640991600074,462.47334266600046,466.4591288750007,460.37640991600074,460.37640991600074,465.5284417080002,460.8509409160006,461.88839774999997,462.47334266600046,463.48761154100066,460.37640991600074,460.37640991600074,460.355527249334,460.37640991600074,460.37640991600074,460.37640991600074,460.355527249334,460.37640991600074,460.37640991600074,465.5284417080002,460.37640991600074,465.5284417080002,465.59510175000014,466.23630595800023,460.37640991600074,2,1,1.1704913749999832,reldom2_fmri_s004p,001,2024-12-11_16h32.15.339,Vis-B-Scan_AC,2022.2.5,None,
40,First_Order,7.0,viswhat,stimulus/viswhat_stim/blank_white.png,stimulus/viswhat_stim/blank_white.png,stimulus/viswhat_stim/land_vehicle-truck.png,stimulus/viswhat_stim/land_animal-fox.png,stimulus/viswhat_stim/blank_white.png,stimulus/viswhat_stim/location_box.png,stimulus/viswhat_stim/location_yes.png,stimulus/viswhat_stim/location_no.png,None,Location,None,Location,1,0.0,0,5.125,0,5.125,0,5.125,0,0.0,0.625,0,0.0,0,0.0,1,0.5,1,2.125,0,0,0,0,0,0,0,0,0,,,,,0,52,52,52,,,,,,,,,466.4591288750007,466.4591288750007,466.4591288750007,466.4591288750007,466.4591288750007,466.4591288750007,466.4591288750007,466.4591288750007,466.42458491600024,466.4591288750007,466.4591288750007,466.4591288750007,466.42458491600024,466.4591288750007,466.4591288750007,466.4591288750007,468.554268416,472.5929030410007,466.4591288750007,466.4591288750007,471.5865827910002,466.9347617910007,467.96023595800034,468.554268416,469.56332604100044,466.4591288750007,466.4591288750007,466.44125158266695,466.4591288750007,466.4591288750007,466.4591288750007,466.44125158266695,466.4591288750007,466.4591288750007,471.5865827910002,466.4591288750007,471.5865827910002,471.67732041599993,472.3097348330002,466.4591288750007,1,1,0.6540030830001342,reldom2_fmri_s004p,001,2024-12-11_16h32.15.339,Vis-B-Scan_AC,2022.2.5,None,
0,0.0,None,fixation,stimulus/viswhere_stim/blank_white.png,stimulus/viswhere_stim/blank_white.png,stimulus/viswhat_stim/blank_white.png,stimulus/viswhat_stim/blank_white.png,stimulus/viswhere_stim/blank_white.png,stimulus/viswhere_stim/blank_white.png,stimulus/viswhere_stim/blank_white.png,stimulus/viswhere_stim/blank_white.png,0.0,0.0,0.0,0.0,0,0.0,0,0.0,0,0.0,0,0.0,0,0.0,0.0,0,0.0,0,0.0,0,0.0,0,0.0,0,0,0,0,0,0,0,0,8,,,,,0,53,53,53,,,,,,,,,472.5929030410007,472.5929030410007,472.5929030410007,472.5929030410007,472.5929030410007,472.5929030410007,472.5929030410007,472.5929030410007,472.4999149159999,472.5929030410007,472.5929030410007,472.5929030410007,472.4999149159999,472.5929030410007,472.5929030410007,472.5929030410007,472.5929030410007,472.5929030410007,472.5929030410007,472.5929030410007,472.5929030410007,472.5929030410007,472.5929030410007,472.5929030410007,472.5929030410007,472.5929030410007,472.5929030410007,472.5499149159999,472.5929030410007,472.5929030410007,472.5929030410007,472.5499149159999,472.5929030410007,472.5929030410007,472.5929030410007,472.5929030410007,472.5929030410007,477.8190596250006,477.8190596250006,480.7215335000001,None,0,,reldom2_fmri_s004p,001,2024-12-11_16h32.15.339,Vis-B-Scan_AC,2022.2.5,None,
41,Second_Order,7.0,viswhat,stimulus/viswhat_stim/water_animal-whale (1).png,stimulus/viswhat_stim/water_vehicle-canoe(1).png,stimulus/viswhat_stim/land_animal-tiger.png,stimulus/viswhat_stim/land_vehicle-train.png,stimulus/viswhere_stim/match_blank.png,stimulus/viswhere_stim/match_box.png,stimulus/viswhere_stim/match_yes.png,stimulus/viswhere_stim/match_no.png,1.0,Match,Location,Location,1,5.125,0,5.125,0,5.125,0,5.125,0,0.75,0.75,1,0.5,1,2.125,1,0.5,1,2.125,0,0,0,0,0,0,0,0,0,,,,,0,54,54,54,,,,,,,,,480.7215335000001,485.84268291600074,481.19813254100063,482.19625625000026,482.81915150000077,483.81701875,480.7215335000001,480.7215335000001,480.7265414993336,480.7215335000001,480.7215335000001,480.7215335000001,480.7265414993336,480.7215335000001,485.84268291600074,486.64950275000047,488.7332900830006,492.6598715830005,486.64950275000047,486.64950275000047,491.80856341600065,487.1278334160006,488.15286370800004,488.7332900830006,489.76345379100076,486.64950275000047,486.64950275000047,486.62753700000013,486.64950275000047,486.64950275000047,486.64950275000047,486.62753700000013,486.64950275000047,486.64950275000047,491.80856341600065,486.64950275000047,491.80856341600065,491.86600095800077,,486.64950275000047,1,1,0.7135715840004195,reldom2_fmri_s004p,001,2024-12-11_16h32.15.339,Vis-B-Scan_AC,2022.2.5,None,
42,Second_Order,7.0,viswhat,stimulus/viswhat_stim/land_vehicle-buldozer.png,stimulus/viswhat_stim/water_vehicle-jetski.png,stimulus/viswhat_stim/water_animal-whale.png,stimulus/viswhat_stim/land_animal-fox.png,stimulus/viswhere_stim/match_blank.png,stimulus/viswhere_stim/match_box.png,stimulus/viswhere_stim/match_yes.png,stimulus/viswhere_stim/match_no.png,1.0,Match,Type,Type,1,5.125,0,5.125,0,5.125,0,5.125,0,0.625,0.625,1,0.5,1,2.125,1,0.5,1,2.125,0,0,0,0,0,0,0,0,0,,,,,0,55,55,55,,,,,,,,,492.6598715830005,497.7826870409999,493.1256536660003,494.1241820410005,494.7465400000001,495.74403458300003,492.6598715830005,492.6598715830005,492.6580314583337,492.6598715830005,492.6598715830005,492.6598715830005,492.6580314583337,492.6598715830005,497.7826870409999,498.46246608300044,500.5434978330004,504.59232545800023,498.46246608300044,498.46246608300044,503.61413575000006,498.91518204100066,499.9312863750001,500.5434978330004,501.5628944580003,498.46246608300044,498.46246608300044,498.43372374933324,498.46246608300044,498.46246608300044,498.46246608300044,498.43372374933324,498.46246608300044,498.46246608300044,503.61413575000006,498.46246608300044,503.61413575000006,503.6563219160007,504.28480625000066,498.46246608300044,1,1,0.820418874999632,reldom2_fmri_s004p,001,2024-12-11_16h32.15.339,Vis-B-Scan_AC,2022.2.5,None,
0,0.0,None,fixation,stimulus/viswhere_stim/blank_white.png,stimulus/viswhere_stim/blank_white.png,stimulus/viswhat_stim/blank_white.png,stimulus/viswhat_stim/blank_white.png,stimulus/viswhere_stim/blank_white.png,stimulus/viswhere_stim/blank_white.png,stimulus/viswhere_stim/blank_white.png,stimulus/viswhere_stim/blank_white.png,0.0,0.0,0.0,0.0,0,0.0,0,0.0,0,0.0,0,0.0,0,0.0,0.0,0,0.0,0,0.0,0,0.0,0,0.0,0,0,0,0,0,0,0,0,9,,,,,0,56,56,56,,,,,,,,,504.59232545800023,504.59232545800023,504.59232545800023,504.59232545800023,504.59232545800023,504.59232545800023,504.59232545800023,504.59232545800023,504.4896071660001,504.59232545800023,504.59232545800023,504.59232545800023,504.4896071660001,504.59232545800023,504.59232545800023,504.59232545800023,504.59232545800023,504.59232545800023,504.59232545800023,504.59232545800023,504.59232545800023,504.59232545800023,504.59232545800023,504.59232545800023,504.59232545800023,504.59232545800023,504.59232545800023,504.5396071660001,504.59232545800023,504.59232545800023,504.59232545800023,504.5396071660001,504.59232545800023,504.59232545800023,504.59232545800023,504.59232545800023,504.59232545800023,509.77693825000006,509.77693825000006,513.825274416,None,0,,reldom2_fmri_s004p,001,2024-12-11_16h32.15.339,Vis-B-Scan_AC,2022.2.5,None,
43,First_Order,8.0,viswhat,stimulus/viswhat_stim/blank_white.png,stimulus/viswhat_stim/blank_white.png,stimulus/viswhat_stim/land_animal-fox.png,stimulus/viswhat_stim/land_vehicle-motorcycle.png,stimulus/viswhat_stim/blank_white.png,stimulus/viswhat_stim/type_box.png,stimulus/viswhat_stim/type_yes.png,stimulus/viswhat_stim/type_no.png,None,Type,None,Location,2,0.0,0,5.125,0,5.125,0,5.125,0,0.0,0.625,0,0.0,0,0.0,1,0.5,1,2.125,0,0,0,0,0,0,0,0,0,,,,,0,57,57,57,,,,,,,,,513.825274416,513.825274416,513.825274416,513.825274416,513.825274416,513.825274416,513.825274416,513.825274416,513.7793478326672,513.825274416,513.825274416,513.825274416,513.7793478326672,513.825274416,513.825274416,513.825274416,515.9264798330005,519.8993641249999,513.825274416,513.825274416,518.9761708750002,514.2879575830002,515.310350625,515.9264798330005,516.9450899160001,513.825274416,513.825274416,513.7960144993339,513.825274416,513.825274416,513.825274416,513.7960144993339,513.825274416,513.825274416,518.9761708750002,513.825274416,518.9761708750002,519.0513112080007,519.7047030000003,513.825274416,2,1,1.121173749999798,reldom2_fmri_s004p,001,2024-12-11_16h32.15.339,Vis-B-Scan_AC,2022.2.5,None,
44,First_Order,8.0,viswhat,stimulus/viswhat_stim/blank_white.png,stimulus/viswhat_stim/blank_white.png,stimulus/viswhat_stim/land_animal-pig.png,stimulus/viswhat_stim/land_vehicle-firetruck.png,stimulus/viswhat_stim/blank_white.png,stimulus/viswhat_stim/location_box.png,stimulus/viswhat_stim/location_yes.png,stimulus/viswhat_stim/location_no.png,None,Location,None,Location,1,0.0,0,5.125,0,5.125,0,5.125,0,0.0,0.625,0,0.0,0,0.0,1,0.5,1,2.125,0,0,0,0,0,0,0,0,0,,,,,0,58,58,58,,,,,,,,,519.8993641249999,519.8993641249999,519.8993641249999,519.8993641249999,519.8993641249999,519.8993641249999,519.8993641249999,519.8993641249999,519.8550685410006,519.8993641249999,519.8993641249999,519.8993641249999,519.8550685410006,519.8993641249999,519.8993641249999,519.8993641249999,521.991174541,526.0143215830003,519.8993641249999,519.8993641249999,525.042063291,520.375569625,521.398899666,521.991174541,523.0189226660004,519.8993641249999,519.8993641249999,519.8717352076673,519.8993641249999,519.8993641249999,519.8993641249999,519.8717352076673,519.8993641249999,519.8993641249999,525.042063291,519.8993641249999,525.042063291,525.1155429580003,525.7466617079999,519.8993641249999,1,1,1.29864145800002,reldom2_fmri_s004p,001,2024-12-11_16h32.15.339,Vis-B-Scan_AC,2022.2.5,None,
45,First_Order,8.0,viswhat,stimulus/viswhat_stim/blank_white.png,stimulus/viswhat_stim/blank_white.png,stimulus/viswhat_stim/land_vehicle-trolley.png,stimulus/viswhat_stim/water_vehicle-sailboat.png,stimulus/viswhat_stim/blank_white.png,stimulus/viswhat_stim/type_box.png,stimulus/viswhat_stim/type_yes.png,stimulus/viswhat_stim/type_no.png,None,Type,None,Type,1,0.0,0,5.125,0,5.125,0,5.125,0,0.0,0.625,0,0.0,0,0.0,1,0.5,1,2.125,0,0,0,0,0,0,0,0,0,,,,,0,59,59,59,,,,,,,,,526.0143215830003,526.0143215830003,526.0143215830003,526.0143215830003,526.0143215830003,526.0143215830003,526.0143215830003,526.0143215830003,525.9368607080002,526.0143215830003,526.0143215830003,526.0143215830003,525.9368607080002,526.0143215830003,526.0143215830003,526.0143215830003,528.0925442080006,532.0803728750006,526.0143215830003,526.0143215830003,531.2102627909999,526.4602195830003,527.4997587080006,528.0925442080006,529.1350093750007,526.0143215830003,526.0143215830003,525.9701940413335,526.0143215830003,526.0143215830003,526.0143215830003,525.9701940413335,526.0143215830003,526.0143215830003,531.2102627909999,526.0143215830003,531.2102627909999,531.2102627909999,531.8638320830005,526.0143215830003,1,1,1.150229500000023,reldom2_fmri_s004p,001,2024-12-11_16h32.15.339,Vis-B-Scan_AC,2022.2.5,None,
46,First_Order,8.0,viswhat,stimulus/viswhat_stim/blank_white.png,stimulus/viswhat_stim/blank_white.png,stimulus/viswhat_stim/water_vehicle-canoe(1).png,stimulus/viswhat_stim/land_vehicle-truck.png,stimulus/viswhat_stim/blank_white.png,stimulus/viswhat_stim/type_box.png,stimulus/viswhat_stim/type_yes.png,stimulus/viswhat_stim/type_no.png,None,Type,None,Type,1,0.0,0,5.125,0,5.125,0,5.125,0,0.0,0.625,0,0.0,0,0.0,1,0.5,1,2.125,0,0,0,0,0,0,0,0,0,,,,,0,60,60,60,,,,,,,,,532.0803728750006,532.0803728750006,532.0803728750006,532.0803728750006,532.0803728750006,532.0803728750006,532.0803728750006,532.0803728750006,532.0577472500003,532.0803728750006,532.0803728750006,532.0803728750006,532.0577472500003,532.0803728750006,532.0803728750006,532.0803728750006,534.1894712500007,538.217628458,532.0803728750006,532.0803728750006,537.2178285,532.5683301660001,533.5924455410004,534.1894712500007,535.1967540830001,532.0803728750006,532.0803728750006,532.0577472500003,532.0803728750006,532.0803728750006,532.0803728750006,532.0577472500003,532.0803728750006,532.0803728750006,537.2178285,532.0803728750006,537.2178285,537.3004557080003,537.927544833,532.0803728750006,1,1,0.5698886669997592,reldom2_fmri_s004p,001,2024-12-11_16h32.15.339,Vis-B-Scan_AC,2022.2.5,None,
0,0.0,None,fixation,stimulus/viswhere_stim/blank_white.png,stimulus/viswhere_stim/blank_white.png,stimulus/viswhat_stim/blank_white.png,stimulus/viswhat_stim/blank_white.png,stimulus/viswhere_stim/blank_white.png,stimulus/viswhere_stim/blank_white.png,stimulus/viswhere_stim/blank_white.png,stimulus/viswhere_stim/blank_white.png,0.0,0.0,0.0,0.0,0,0.0,0,0.0,0,0.0,0,0.0,0,0.0,0.0,0,0.0,0,0.0,0,0.0,0,0.0,0,0,0,0,0,0,0,0,9,,,,,0,61,61,61,,,,,,,,,538.217628458,538.217628458,538.217628458,538.217628458,538.217628458,538.217628458,538.217628458,538.217628458,538.1100353743335,538.217628458,538.217628458,538.217628458,538.1100353743335,538.217628458,538.217628458,538.217628458,538.217628458,538.217628458,538.217628458,538.217628458,538.217628458,538.217628458,538.217628458,538.217628458,538.217628458,538.217628458,538.217628458,538.1767020410001,538.217628458,538.217628458,538.217628458,538.1767020410001,538.217628458,538.217628458,538.217628458,538.217628458,538.217628458,543.4374541249999,543.4374541249999,547.3769117500005,None,0,,reldom2_fmri_s004p,001,2024-12-11_16h32.15.339,Vis-B-Scan_AC,2022.2.5,None,
47,Second_Order,8.0,viswhat,stimulus/viswhat_stim/water_animal-seaturtle.png,stimulus/viswhat_stim/water_vehicle-kayak.png,stimulus/viswhat_stim/water_vehicle-motorboatraft.png,stimulus/viswhat_stim/land_vehicle-tank.png,stimulus/viswhere_stim/match_blank.png,stimulus/viswhere_stim/match_box.png,stimulus/viswhere_stim/match_yes.png,stimulus/viswhere_stim/match_no.png,2.0,Match,Location,Type,2,5.125,0,5.125,0,5.125,0,5.125,0,0.75,0.75,1,0.5,1,2.125,1,0.5,1,2.125,0,0,0,0,0,0,0,0,0,,,,,0,62,62,62,,,,,,,,,547.3769117500005,552.4968640000006,547.8477460000004,548.83712775,549.4711739160002,550.4577557500006,547.3769117500005,547.3769117500005,547.3757970413336,547.3769117500005,547.3769117500005,547.3769117500005,547.3757970413336,547.3769117500005,552.4968640000006,553.2819693750007,555.3753985829999,559.2710417080007,553.2819693750007,553.2819693750007,558.4167015830008,553.7426101660003,554.7470222080001,555.3753985829999,556.3843778330001,553.2819693750007,553.2819693750007,553.2642428333334,553.2819693750007,553.2819693750007,553.2819693750007,553.2642428333334,553.2819693750007,553.2819693750007,558.4167015830008,553.2819693750007,558.4167015830008,558.4925363330003,,553.2819693750007,2,1,1.506715874999827,reldom2_fmri_s004p,001,2024-12-11_16h32.15.339,Vis-B-Scan_AC,2022.2.5,None,
48,Second_Order,8.0,viswhat,stimulus/viswhat_stim/land_vehicle-rv.png,stimulus/viswhat_stim/water_vehicle-cargoboat.png,stimulus/viswhat_stim/water_animal-squid.png,stimulus/viswhat_stim/land_animal-dog.png,stimulus/viswhere_stim/match_blank.png,stimulus/viswhere_stim/match_box.png,stimulus/viswhere_stim/match_yes.png,stimulus/viswhere_stim/match_no.png,1.0,Match,Type,Type,1,5.125,0,5.125,0,5.125,0,5.125,0,0.625,0.625,1,0.5,1,2.125,1,0.5,1,2.125,0,0,0,0,0,0,0,0,0,,,,,0,63,63,63,,,,,,,,,559.2710417080007,564.3910205000002,559.7460591660001,560.7441130410007,561.3670439160005,562.3649517500007,559.2710417080007,559.2710417080007,559.2732795,559.2710417080007,559.2710417080007,559.2710417080007,559.2732795,559.2710417080007,564.3910205000002,565.0743030829999,567.15810625,571.2095812910002,565.0743030829999,565.0743030829999,570.2235656250004,565.5473830410001,566.5891377910002,567.15810625,568.1733997910005,565.0743030829999,565.0743030829999,565.0541177500006,565.0743030829999,565.0743030829999,565.0743030829999,565.0541177500006,565.0743030829999,565.0743030829999,570.2235656250004,565.0743030829999,570.2235656250004,570.2756858749999,570.9196855,565.0743030829999,1,1,0.8446698750003634,reldom2_fmri_s004p,001,2024-12-11_16h32.15.339,Vis-B-Scan_AC,2022.2.5,None,
0,0.0,None,fixation,stimulus/viswhere_stim/blank_white.png,stimulus/viswhere_stim/blank_white.png,stimulus/viswhat_stim/blank_white.png,stimulus/viswhat_stim/blank_white.png,stimulus/viswhere_stim/blank_white.png,stimulus/viswhere_stim/blank_white.png,stimulus/viswhere_stim/blank_white.png,stimulus/viswhere_stim/blank_white.png,0.0,0.0,0.0,0.0,0,0.0,0,0.0,0,0.0,0,0.0,0,0.0,0.0,0,0.0,0,0.0,0,0.0,0,0.0,0,0,0,0,0,0,0,0,16,,,,,0,64,64,64,,,,,,,,,571.2095812910002,571.2095812910002,571.2095812910002,571.2095812910002,571.2095812910002,571.2095812910002,571.2095812910002,571.2095812910002,571.1132227076668,571.2095812910002,571.2095812910002,571.2095812910002,571.1132227076668,571.2095812910002,571.2095812910002,571.2095812910002,571.2095812910002,571.2095812910002,571.2095812910002,571.2095812910002,571.2095812910002,571.2095812910002,571.2095812910002,571.2095812910002,571.2095812910002,571.2095812910002,571.2095812910002,571.1632227076667,571.2095812910002,571.2095812910002,571.2095812910002,571.1632227076667,571.2095812910002,571.2095812910002,571.2095812910002,571.2095812910002,571.2095812910002,576.394478958,576.394478958,587.3574356250001,None,0,,reldom2_fmri_s004p,001,2024-12-11_16h32.15.339,Vis-B-Scan_AC,2022.2.5,None,
