Trial,Order,Block,Type,Stimuli_File1,Stimuli_File2,Stimuli_File3,Stimuli_File4,Cue_File1,Cue_File2,Response_File_Yes,Response_File_No,Match,Cue_Dimension,Pair1_Dimension,Pair2_Dimension,Key,Cue1_Duration,Cue1_Onset,Cue2_Duration,Cue2_Onset,ResponseYes_Duration,ResponseYes_Onset,ResponseNo_Duration,ResponseNo_Onset,ITI_Within,ITI_Between,Image1_Duration,Image1_Onset,Image2_Duration,Image2_Onset,Image3_Duration,Image3_Onset,Image4_Duration,Image4_Onset,Sound1_Duration,Sound1_Onset,Sound2_Duration,Sound2_Onset,Sound3_Duration,Sound3_Onset,Sound4_Duration,Sound4_Onset,Fixation_Duration,trials_2.thisRepN,trials_2.thisTrialN,trials_2.thisN,trials_2.thisIndex,trials.thisRepN,trials.thisTrialN,trials.thisN,trials.thisIndex,text_start.started,key_resp_start.started,key_resp_start.keys,key_resp_start.rt,text2.started,key_resp_2.started,key_resp_2.keys,key_resp_2.rt,cue_file1.started,cue_file1.stopped,image_1.started,image_1.stopped,image_2.started,image_2.stopped,sound_icon1.started,sound_icon1.stopped,sound_1.started,sound_1.stopped,sound_icon2.started,sound_icon2.stopped,sound_2.started,sound_2.stopped,image_blank_1.started,image_blank_1.stopped,key_press.started,key_press.stopped,fixation_text.started,cue_file2.started,cue_file2.stopped,image_3.started,image_3.stopped,image_4.started,image_4.stopped,sound_icon3.started,sound_icon3.stopped,sound_3.started,sound_3.stopped,sound_icon4.started,sound_icon4.stopped,sound_4.started,sound_4.stopped,response_yes.started,response_yes.stopped,response_no.started,response_no.stopped,iti_blank.started,iti_blank.stopped,fixation_text.stopped,key_press.keys,key_press.corr,key_press.rt,participant,session,date,expName,psychopyVersion,frameRate,
,,,,,,,,,,,,,,,,,,,,,,,,,,,,,,,,,,,,,,,,,,,,,,,,,,,,130.4635000000003,130.4635000000003,2,0.8384917069997755,,,,,,,,,,,,,,,,,,,,,,,,,,,,,,,,,,,,,,,,,,,,,,,,reldom2_fmri_s004p,001,2024-12-11_16h21.03.501,Aud-B-Scan_AC,2022.2.5,None,
,,,,,,,,,,,,,,,,,,,,,,,,,,,,,,,,,,,,,,,,,,,,0,0,0,0,,,,,,,,,131.32400624999946,131.32400624999946,5,12.779800124000758,,,,,,,,,,,,,,,,,,,,,,,,,,,,,,,,,,,,,,,,,,,,reldom2_fmri_s004p,001,2024-12-11_16h21.03.501,Aud-B-Scan_AC,2022.2.5,None,
,,,,,,,,,,,,,,,,,,,,,,,,,,,,,,,,,,,,,,,,,,,,1,0,1,0,,,,,,,,,144.118600667,144.118600667,5,1.9827869999999166,,,,,,,,,,,,,,,,,,,,,,,,,,,,,,,,,,,,,,,,,,,,reldom2_fmri_s004p,001,2024-12-11_16h21.03.501,Aud-B-Scan_AC,2022.2.5,None,
,,,,,,,,,,,,,,,,,,,,,,,,,,,,,,,,,,,,,,,,,,,,2,0,2,0,,,,,,,,,146.12050233400032,146.12050233400032,5,1.9806956239999636,,,,,,,,,,,,,,,,,,,,,,,,,,,,,,,,,,,,,,,,,,,,reldom2_fmri_s004p,001,2024-12-11_16h21.03.501,Aud-B-Scan_AC,2022.2.5,None,
,,,,,,,,,,,,,,,,,,,,,,,,,,,,,,,,,,,,,,,,,,,,3,0,3,0,,,,,,,,,148.1187619999996,148.1187619999996,5,1.982635332999962,,,,,,,,,,,,,,,,,,,,,,,,,,,,,,,,,,,,,,,,,,,,reldom2_fmri_s004p,001,2024-12-11_16h21.03.501,Aud-B-Scan_AC,2022.2.5,None,
0,0.0,None,fixation,stimulus/audwhat_stim/blank_white.png,stimulus/audwhat_stim/blank_white.png,stimulus/audwhere_stim/blank_white.png,stimulus/audwhere_stim/blank_white.png,stimulus/audwhat_stim/blank_white.png,stimulus/audwhat_stim/blank_white.png,stimulus/audwhat_stim/blank_white.png,stimulus/audwhat_stim/blank_white.png,0.0,0.0,0.0,0.0,0,0.0,0,0.0,0,0.0,0,0.0,0,0.0,0.0,0,0,0,0,0,0,0,0,0,0.0,0,0.0,0,0.0,0,0.0,16,,,,,0,0,0,0,,,,,,,,,150.2953995419998,150.2953995419998,150.2953995419998,150.2953995419998,150.2953995419998,150.2953995419998,150.2953995419998,150.2953995419998,150.20308491699973,150.2953995419998,150.2953995419998,150.2953995419998,150.20308491699973,150.2953995419998,150.2953995419998,150.2953995419998,150.2953995419998,150.2953995419998,150.2953995419998,150.2953995419998,150.2953995419998,150.2953995419998,150.2953995419998,150.2953995419998,150.2953995419998,150.2953995419998,150.2953995419998,150.2530849169997,150.2953995419998,150.2953995419998,150.2953995419998,150.2530849169997,150.2953995419998,150.2953995419998,150.2953995419998,150.2953995419998,150.2953995419998,155.50630362499987,155.50630362499987,166.50520616699987,None,0,,reldom2_fmri_s004p,001,2024-12-11_16h21.03.501,Aud-B-Scan_AC,2022.2.5,None,
1,First_Order,1.0,audwhat,stimulus/audwhat_stim/dummy.wav,stimulus/audwhat_stim/dummy.wav,stimulus/audwhat_stim/string viola_low-pitch_F_loud.wav,stimulus/audwhat_stim/string cello_high-pitch_Dtri_loud.wav,stimulus/audwhat_stim/blank_white.png,stimulus/audwhat_stim/pitch_box.png,stimulus/audwhat_stim/pitch_yes.png,stimulus/audwhat_stim/pitch_no.png,None,Pitch,None,Category,2,0.0,0,5.125,0,5.125,0,5.125,0,0.0,0.625,0,0,0,0,0,0,0,0,0,0.0,0,0.0,1,0.5,1,2.125,0,,,,,0,1,1,1,,,,,,,,,166.50520616699987,166.50520616699987,166.50520616699987,166.50520616699987,166.50520616699987,166.50520616699987,166.50520616699987,166.50520616699987,166.43076516699958,166.50520616699987,166.50520616699987,166.50520616699987,166.43076516699958,166.50520616699987,166.50520616699987,166.50520616699987,168.60425870900008,,166.50520616699987,166.50520616699987,171.68576079199966,166.50520616699987,166.50520616699987,166.50520616699987,166.50520616699987,166.9555330420003,168.02394049999975,166.92751216666673,,168.60425870900008,169.6760462090001,168.5762907506667,,166.50520616699987,171.68576079199966,166.50520616699987,171.68576079199966,171.7257976249998,172.39379508399952,166.50520616699987,2,1,1.5158580000006623,reldom2_fmri_s004p,001,2024-12-11_16h21.03.501,Aud-B-Scan_AC,2022.2.5,None,
2,First_Order,1.0,audwhat,stimulus/audwhat_stim/dummy.wav,stimulus/audwhat_stim/dummy.wav,stimulus/audwhat_stim/percussion xylophone_high-pitch_Ftri_loud.wav,stimulus/audwhat_stim/string viola_high-pitch_Ftri_loud.wav,stimulus/audwhat_stim/blank_white.png,stimulus/audwhat_stim/pitch_box.png,stimulus/audwhat_stim/pitch_yes.png,stimulus/audwhat_stim/pitch_no.png,None,Pitch,None,Pitch,1,0.0,0,5.125,0,5.125,0,5.125,0,0.0,0.625,0,0,0,0,0,0,0,0,0,0.0,0,0.0,1,0.5,1,2.125,0,,,,,0,2,2,2,,,,,,,,,172.59984674999987,172.59984674999987,172.59984674999987,172.59984674999987,172.59984674999987,172.59984674999987,172.59984674999987,172.59984674999987,172.52712841733288,172.59984674999987,172.59984674999987,172.59984674999987,172.52712841733288,172.59984674999987,172.59984674999987,172.59984674999987,174.70565404200033,,172.59984674999987,172.59984674999987,177.78626845899953,172.59984674999987,172.59984674999987,172.59984674999987,172.59984674999987,173.0892266249998,174.12440870899945,173.0611836666665,174.12440870899945,174.70565404200033,175.73574750000034,174.6778792506664,,172.59984674999987,177.78626845899953,172.59984674999987,177.78626845899953,177.82578295899975,178.4944054169996,172.59984674999987,1,1,1.019941665999795,reldom2_fmri_s004p,001,2024-12-11_16h21.03.501,Aud-B-Scan_AC,2022.2.5,None,
3,First_Order,1.0,audwhat,stimulus/audwhat_stim/dummy.wav,stimulus/audwhat_stim/dummy.wav,stimulus/audwhat_stim/string viola_low-pitch_Dtri_loud.wav,stimulus/audwhat_stim/percussion mallet_low-pitch_Dtri_loud.wav,stimulus/audwhat_stim/blank_white.png,stimulus/audwhat_stim/category_box.png,stimulus/audwhat_stim/category_yes.png,stimulus/audwhat_stim/category_no.png,None,Category,None,Pitch,2,0.0,0,5.125,0,5.125,0,5.125,0,0.0,0.625,0,0,0,0,0,0,0,0,0,0.0,0,0.0,1,0.5,1,2.125,0,,,,,0,3,3,3,,,,,,,,,178.700549959,178.700549959,178.700549959,178.700549959,178.700549959,178.700549959,178.700549959,178.700549959,178.62773875033295,178.700549959,178.700549959,178.700549959,178.62773875033295,178.700549959,178.700549959,178.700549959,180.80910600000016,184.82565437499989,178.700549959,178.700549959,183.8670995839998,178.700549959,178.700549959,178.700549959,178.700549959,179.15003891700007,180.18071558400015,179.12200112566623,,180.80910600000016,181.84486920900008,180.78065783366654,,178.700549959,183.8670995839998,178.700549959,183.8670995839998,183.906697334,184.57963933400015,178.700549959,2,1,0.5551328319997992,reldom2_fmri_s004p,001,2024-12-11_16h21.03.501,Aud-B-Scan_AC,2022.2.5,None,
4,First_Order,1.0,audwhat,stimulus/audwhat_stim/dummy.wav,stimulus/audwhat_stim/dummy.wav,stimulus/audwhat_stim/percussion mallet_low-pitch_D_loud.wav,stimulus/audwhat_stim/percussion xylophone_high-pitch_Dtri_loud.wav,stimulus/audwhat_stim/blank_white.png,stimulus/audwhat_stim/pitch_box.png,stimulus/audwhat_stim/pitch_yes.png,stimulus/audwhat_stim/pitch_no.png,None,Pitch,None,Category,2,0.0,0,5.125,0,5.125,0,5.125,0,0.0,0.625,0,0,0,0,0,0,0,0,0,0.0,0,0.0,1,0.5,1,2.125,0,,,,,0,4,4,4,,,,,,,,,184.82565437499989,184.82565437499989,184.82565437499989,184.82565437499989,184.82565437499989,184.82565437499989,184.82565437499989,184.82565437499989,184.75198166733358,184.82565437499989,184.82565437499989,184.82565437499989,184.75198166733358,184.82565437499989,184.82565437499989,184.82565437499989,186.9382452499999,,184.82565437499989,184.82565437499989,189.99246820899998,184.82565437499989,184.82565437499989,184.82565437499989,184.82565437499989,185.2762067919998,186.31010512500006,185.24827516666645,,186.9382452499999,187.9764929170001,186.90963137566612,187.9764929170001,184.82565437499989,189.99246820899998,184.82565437499989,189.99246820899998,190.03298500000028,190.70675704199994,184.82565437499989,2,1,0.9654463749993738,reldom2_fmri_s004p,001,2024-12-11_16h21.03.501,Aud-B-Scan_AC,2022.2.5,None,
0,0.0,None,fixation,stimulus/audwhat_stim/blank_white.png,stimulus/audwhat_stim/blank_white.png,stimulus/audwhere_stim/blank_white.png,stimulus/audwhere_stim/blank_white.png,stimulus/audwhat_stim/blank_white.png,stimulus/audwhat_stim/blank_white.png,stimulus/audwhat_stim/blank_white.png,stimulus/audwhat_stim/blank_white.png,0.0,0.0,0.0,0.0,0,0.0,0,0.0,0,0.0,0,0.0,0,0.0,0.0,0,0,0,0,0,0,0,0,0,0.0,0,0.0,0,0.0,0,0.0,8,,,,,0,5,5,5,,,,,,,,,190.9319333339995,190.9319333339995,190.9319333339995,190.9319333339995,190.9319333339995,190.9319333339995,190.9319333339995,190.9319333339995,190.8400903753333,190.9319333339995,190.9319333339995,190.9319333339995,190.8400903753333,190.9319333339995,190.9319333339995,190.9319333339995,190.9319333339995,190.9319333339995,190.9319333339995,190.9319333339995,190.9319333339995,190.9319333339995,190.9319333339995,190.9319333339995,190.9319333339995,190.9319333339995,190.9319333339995,190.89009037533327,190.9319333339995,190.9319333339995,190.9319333339995,190.89009037533327,190.9319333339995,190.9319333339995,190.9319333339995,190.9319333339995,190.9319333339995,196.1390054589997,196.1390054589997,199.0641798749998,None,0,,reldom2_fmri_s004p,001,2024-12-11_16h21.03.501,Aud-B-Scan_AC,2022.2.5,None,
5,Second_Order,1.0,audwhat,stimulus/audwhat_stim/percussion mallet_high-pitch_Dtri_loud.wav,stimulus/audwhat_stim/string cello_high-pitch_Dtri_loud.wav,stimulus/audwhat_stim/string viola_low-pitch_F_loud.wav,stimulus/audwhat_stim/percussion mallet_low-pitch_F_loud.wav,stimulus/audwhat_stim/match_blank.png,stimulus/audwhat_stim/match_box.png,stimulus/audwhat_stim/match_yes.png,stimulus/audwhat_stim/match_no.png,1.0,Match,Pitch,Pitch,1,5.125,0,5.125,0,5.125,0,5.125,0,0.75,0.75,0,0,0,0,0,0,0,0,1,0.5,1,2.125,1,0.5,1,2.125,0,,,,,0,6,6,6,,,,,,,,,199.0641798749998,204.17807670899992,199.0641798749998,199.0641798749998,199.0641798749998,199.0641798749998,199.51700475000007,200.51502820900032,199.5297811256667,200.52304591700022,201.13821941699962,202.13571133399955,201.1501312086664,,204.17807670899992,205.00806320899983,207.08095529199954,211.02575491699963,205.00806320899983,205.00806320899983,210.19876512499968,205.00806320899983,205.00806320899983,205.00806320899983,205.00806320899983,205.45972437499995,206.49550008399956,205.43011991666643,,207.08095529199954,208.12225024999998,207.05141500066637,,205.00806320899983,210.19876512499968,205.00806320899983,210.19876512499968,210.19876512499968,,205.00806320899983,1,1,0.45600508200004697,reldom2_fmri_s004p,001,2024-12-11_16h21.03.501,Aud-B-Scan_AC,2022.2.5,None,
6,Second_Order,1.0,audwhat,stimulus/audwhat_stim/percussion mallet_low-pitch_F_loud.wav,stimulus/audwhat_stim/percussion mallet_high-pitch_Dtri_loud.wav,stimulus/audwhat_stim/string viola_low-pitch_Ftri_loud.wav,stimulus/audwhat_stim/percussion mallet_low-pitch_Ftri_loud.wav,stimulus/audwhat_stim/match_blank.png,stimulus/audwhat_stim/match_box.png,stimulus/audwhat_stim/match_yes.png,stimulus/audwhat_stim/match_no.png,2.0,Match,Category,Pitch,2,5.125,0,5.125,0,5.125,0,5.125,0,0.625,0.625,0,0,0,0,0,0,0,0,1,0.5,1,2.125,1,0.5,1,2.125,0,,,,,0,7,7,7,,,,,,,,,211.02575491699963,216.1402786249996,211.02575491699963,211.02575491699963,211.02575491699963,211.02575491699963,211.47852404200012,212.4762344169999,211.49122575066647,212.48376733400028,213.098917584,214.09638604200018,213.11090283366664,214.10911879199966,216.1402786249996,216.85034583399965,218.91991854199978,222.9679947919999,216.85034583399965,216.85034583399965,222.02744800000028,216.85034583399965,216.85034583399965,216.85034583399965,216.85034583399965,217.303262334,218.33673820899958,217.27424479166692,,218.91991854199978,219.9600337500001,218.891452708667,,216.85034583399965,222.02744800000028,216.85034583399965,222.02744800000028,222.02744800000028,222.6995777090001,216.85034583399965,2,1,0.5887574159996802,reldom2_fmri_s004p,001,2024-12-11_16h21.03.501,Aud-B-Scan_AC,2022.2.5,None,
0,0.0,None,fixation,stimulus/audwhat_stim/blank_white.png,stimulus/audwhat_stim/blank_white.png,stimulus/audwhere_stim/blank_white.png,stimulus/audwhere_stim/blank_white.png,stimulus/audwhat_stim/blank_white.png,stimulus/audwhat_stim/blank_white.png,stimulus/audwhat_stim/blank_white.png,stimulus/audwhat_stim/blank_white.png,0.0,0.0,0.0,0.0,0,0.0,0,0.0,0,0.0,0,0.0,0,0.0,0.0,0,0,0,0,0,0,0,0,0,0.0,0,0.0,0,0.0,0,0.0,10,,,,,0,8,8,8,,,,,,,,,222.9679947919999,222.9679947919999,222.9679947919999,222.9679947919999,222.9679947919999,222.9679947919999,222.9679947919999,222.9679947919999,222.87226370833346,222.9679947919999,222.9679947919999,222.9679947919999,222.87226370833346,222.9679947919999,222.9679947919999,222.9679947919999,222.9679947919999,222.9679947919999,222.9679947919999,222.9679947919999,222.9679947919999,222.9679947919999,222.9679947919999,222.9679947919999,222.9679947919999,222.9679947919999,222.9679947919999,222.92226370833345,222.9679947919999,222.9679947919999,222.9679947919999,222.92226370833345,222.9679947919999,222.9679947919999,222.9679947919999,222.9679947919999,222.9679947919999,228.19222324999964,228.19222324999964,233.2351741669995,None,0,,reldom2_fmri_s004p,001,2024-12-11_16h21.03.501,Aud-B-Scan_AC,2022.2.5,None,
7,First_Order,2.0,audwhat,stimulus/audwhat_stim/dummy.wav,stimulus/audwhat_stim/dummy.wav,stimulus/audwhat_stim/percussion xylophone_high-pitch_F_loud.wav,stimulus/audwhat_stim/percussion mallet_low-pitch_D_loud.wav,stimulus/audwhat_stim/blank_white.png,stimulus/audwhat_stim/category_box.png,stimulus/audwhat_stim/category_yes.png,stimulus/audwhat_stim/category_no.png,None,Category,None,Category,1,0.0,0,5.125,0,5.125,0,5.125,0,0.0,0.625,0,0,0,0,0,0,0,0,0,0.0,0,0.0,1,0.5,1,2.125,0,,,,,0,9,9,9,,,,,,,,,233.2351741669995,233.2351741669995,233.2351741669995,233.2351741669995,233.2351741669995,233.2351741669995,233.2351741669995,233.2351741669995,233.15088529199957,233.2351741669995,233.2351741669995,233.2351741669995,233.15088529199957,233.2351741669995,233.2351741669995,233.2351741669995,235.33821533400032,,233.2351741669995,233.2351741669995,238.40273420899985,233.2351741669995,233.2351741669995,233.2351741669995,233.2351741669995,233.69010204199958,234.74702458399997,233.66115591666656,234.7013020419995,235.33821533400032,236.39273266699956,235.30936887566693,236.34729791699965,233.2351741669995,238.40273420899985,233.2351741669995,238.40273420899985,238.44249241700027,239.12265058399998,233.2351741669995,1,1,1.115630624000005,reldom2_fmri_s004p,001,2024-12-11_16h21.03.501,Aud-B-Scan_AC,2022.2.5,None,
8,First_Order,2.0,audwhat,stimulus/audwhat_stim/dummy.wav,stimulus/audwhat_stim/dummy.wav,stimulus/audwhat_stim/percussion mallet_low-pitch_D_loud.wav,stimulus/audwhat_stim/string viola_low-pitch_D_loud.wav,stimulus/audwhat_stim/blank_white.png,stimulus/audwhat_stim/pitch_box.png,stimulus/audwhat_stim/pitch_yes.png,stimulus/audwhat_stim/pitch_no.png,None,Pitch,None,Pitch,1,0.0,0,5.125,0,5.125,0,5.125,0,0.0,0.625,0,0,0,0,0,0,0,0,0,0.0,0,0.0,1,0.5,1,2.125,0,,,,,0,10,10,10,,,,,,,,,239.3332192920002,239.3332192920002,239.3332192920002,239.3332192920002,239.3332192920002,239.3332192920002,239.3332192920002,239.3332192920002,239.25598391733334,239.3332192920002,239.3332192920002,239.3332192920002,239.25598391733334,239.3332192920002,239.3332192920002,239.3332192920002,241.4338846249998,,239.3332192920002,239.3332192920002,244.4980936249999,239.3332192920002,239.3332192920002,239.3332192920002,239.3332192920002,239.7894369589999,240.84356758399963,239.75969883366614,240.79771237500017,241.4338846249998,242.49223429199947,241.4047327916667,,239.3332192920002,244.4980936249999,239.3332192920002,244.4980936249999,244.5379492090001,245.21944250000024,239.3332192920002,1,1,0.7890878329999396,reldom2_fmri_s004p,001,2024-12-11_16h21.03.501,Aud-B-Scan_AC,2022.2.5,None,
9,First_Order,2.0,audwhat,stimulus/audwhat_stim/dummy.wav,stimulus/audwhat_stim/dummy.wav,stimulus/audwhat_stim/percussion mallet_low-pitch_D_loud.wav,stimulus/audwhat_stim/percussion mallet_high-pitch_Ftri_loud.wav,stimulus/audwhat_stim/blank_white.png,stimulus/audwhat_stim/category_box.png,stimulus/audwhat_stim/category_yes.png,stimulus/audwhat_stim/category_no.png,None,Category,None,Category,1,0.0,0,5.125,0,5.125,0,5.125,0,0.0,0.625,0,0,0,0,0,0,0,0,0,0.0,0,0.0,1,0.5,1,2.125,0,,,,,0,11,11,11,,,,,,,,,245.4313076249996,245.4313076249996,245.4313076249996,245.4313076249996,245.4313076249996,245.4313076249996,245.4313076249996,245.4313076249996,245.3527758333336,245.4313076249996,245.4313076249996,245.4313076249996,245.3527758333336,245.4313076249996,245.4313076249996,245.4313076249996,247.54415483399998,251.55872562499962,245.4313076249996,245.4313076249996,250.57931645899998,245.4313076249996,245.4313076249996,245.4313076249996,245.4313076249996,245.89010999999982,246.9470643339996,245.86091845866648,,247.54415483399998,248.6050474589997,247.5143815416666,,245.4313076249996,250.57931645899998,245.4313076249996,250.57931645899998,250.620238084,251.3056938750001,245.4313076249996,1,1,0.5503994159998911,reldom2_fmri_s004p,001,2024-12-11_16h21.03.501,Aud-B-Scan_AC,2022.2.5,None,
10,First_Order,2.0,audwhat,stimulus/audwhat_stim/dummy.wav,stimulus/audwhat_stim/dummy.wav,stimulus/audwhat_stim/string cello_high-pitch_F_loud.wav,stimulus/audwhat_stim/percussion mallet_high-pitch_F_loud.wav,stimulus/audwhat_stim/blank_white.png,stimulus/audwhat_stim/category_box.png,stimulus/audwhat_stim/category_yes.png,stimulus/audwhat_stim/category_no.png,None,Category,None,Pitch,2,0.0,0,5.125,0,5.125,0,5.125,0,0.0,0.625,0,0,0,0,0,0,0,0,0,0.0,0,0.0,1,0.5,1,2.125,0,,,,,0,12,12,12,,,,,,,,,251.55872562499962,251.55872562499962,251.55872562499962,251.55872562499962,251.55872562499962,251.55872562499962,251.55872562499962,251.55872562499962,251.4791097503336,251.55872562499962,251.55872562499962,251.55872562499962,251.4791097503336,251.55872562499962,251.55872562499962,251.55872562499962,253.63619566700027,,251.55872562499962,251.55872562499962,256.7276367919999,251.55872562499962,251.55872562499962,251.55872562499962,251.55872562499962,252.0218351669996,253.0819030839998,251.99178100066618,,253.63619566700027,254.69972616699988,253.6069276666665,,251.55872562499962,256.7276367919999,251.55872562499962,256.7276367919999,256.7686257089995,257.4563571670001,251.55872562499962,2,1,1.0486552490001486,reldom2_fmri_s004p,001,2024-12-11_16h21.03.501,Aud-B-Scan_AC,2022.2.5,None,
0,0.0,None,fixation,stimulus/audwhat_stim/blank_white.png,stimulus/audwhat_stim/blank_white.png,stimulus/audwhere_stim/blank_white.png,stimulus/audwhere_stim/blank_white.png,stimulus/audwhat_stim/blank_white.png,stimulus/audwhat_stim/blank_white.png,stimulus/audwhat_stim/blank_white.png,stimulus/audwhat_stim/blank_white.png,0.0,0.0,0.0,0.0,0,0.0,0,0.0,0,0.0,0,0.0,0,0.0,0.0,0,0,0,0,0,0,0,0,0,0.0,0,0.0,0,0.0,0,0.0,8,,,,,0,13,13,13,,,,,,,,,257.68595970900014,257.68595970900014,257.68595970900014,257.68595970900014,257.68595970900014,257.68595970900014,257.68595970900014,257.68595970900014,257.5896905003334,257.68595970900014,257.68595970900014,257.68595970900014,257.5896905003334,257.68595970900014,257.68595970900014,257.68595970900014,257.68595970900014,257.68595970900014,257.68595970900014,257.68595970900014,257.68595970900014,257.68595970900014,257.68595970900014,257.68595970900014,257.68595970900014,257.68595970900014,257.68595970900014,257.6396905003334,257.68595970900014,257.68595970900014,257.68595970900014,257.6396905003334,257.68595970900014,257.68595970900014,257.68595970900014,257.68595970900014,257.68595970900014,262.91420220899954,262.91420220899954,265.8627901670002,None,0,,reldom2_fmri_s004p,001,2024-12-11_16h21.03.501,Aud-B-Scan_AC,2022.2.5,None,
11,Second_Order,2.0,audwhat,stimulus/audwhat_stim/string viola_high-pitch_Dtri_loud.wav,stimulus/audwhat_stim/string cello_low-pitch_D_loud.wav,stimulus/audwhat_stim/percussion mallet_high-pitch_Dtri_loud.wav,stimulus/audwhat_stim/percussion mallet_low-pitch_Ftri_loud.wav,stimulus/audwhat_stim/match_blank.png,stimulus/audwhat_stim/match_box.png,stimulus/audwhat_stim/match_yes.png,stimulus/audwhat_stim/match_no.png,1.0,Match,Category,Category,1,5.125,0,5.125,0,5.125,0,5.125,0,0.75,0.75,0,0,0,0,0,0,0,0,1,0.5,1,2.125,1,0.5,1,2.125,0,,,,,0,14,14,14,,,,,,,,,265.8627901670002,270.98247049999964,265.8627901670002,265.8627901670002,265.8627901670002,265.8627901670002,266.3209822089998,267.3197927919996,266.3336268336668,,267.94100770900013,268.939402167,267.95398820866626,,270.98247049999964,271.8089381670002,273.8717841249995,277.83134174999986,271.8089381670002,271.8089381670002,276.99061712499997,271.8089381670002,271.8089381670002,271.8089381670002,271.8089381670002,272.26657312499947,273.32255212500013,272.23693433366657,,273.8717841249995,274.93138087499983,273.8423950006661,,271.8089381670002,276.99061712499997,271.8089381670002,276.99061712499997,276.99061712499997,,271.8089381670002,1,1,0.4953328749998036,reldom2_fmri_s004p,001,2024-12-11_16h21.03.501,Aud-B-Scan_AC,2022.2.5,None,
12,Second_Order,2.0,audwhat,stimulus/audwhat_stim/string viola_low-pitch_F_loud.wav,stimulus/audwhat_stim/string viola_high-pitch_Ftri_loud.wav,stimulus/audwhat_stim/percussion mallet_low-pitch_Ftri_loud.wav,stimulus/audwhat_stim/percussion xylophone_high-pitch_Dtri_loud.wav,stimulus/audwhat_stim/match_blank.png,stimulus/audwhat_stim/match_box.png,stimulus/audwhat_stim/match_yes.png,stimulus/audwhat_stim/match_no.png,1.0,Match,Category,Category,1,5.125,0,5.125,0,5.125,0,5.125,0,0.625,0.625,0,0,0,0,0,0,0,0,1,0.5,1,2.125,1,0.5,1,2.125,0,,,,,0,15,15,15,,,,,,,,,277.83134174999986,282.9551382499999,277.83134174999986,277.83134174999986,277.83134174999986,277.83134174999986,278.28231625000035,279.2798683750002,278.2947576666663,,279.915201667,280.9044424589997,279.9193292916668,,282.9551382499999,283.66861237500007,285.7677087090001,289.7874152090003,283.66861237500007,283.66861237500007,288.83346495900014,283.66861237500007,283.66861237500007,283.66861237500007,283.66861237500007,284.12508924999975,285.1758692090002,284.0948212916662,285.12994775000016,285.7677087090001,286.82573187499975,285.73918425066654,286.7804941669997,283.66861237500007,288.83346495900014,283.66861237500007,288.83346495900014,288.87412466700016,289.5569677919998,283.66861237500007,1,1,0.6332547910005815,reldom2_fmri_s004p,001,2024-12-11_16h21.03.501,Aud-B-Scan_AC,2022.2.5,None,
0,0.0,None,fixation,stimulus/audwhat_stim/blank_white.png,stimulus/audwhat_stim/blank_white.png,stimulus/audwhere_stim/blank_white.png,stimulus/audwhere_stim/blank_white.png,stimulus/audwhat_stim/blank_white.png,stimulus/audwhat_stim/blank_white.png,stimulus/audwhat_stim/blank_white.png,stimulus/audwhat_stim/blank_white.png,0.0,0.0,0.0,0.0,0,0.0,0,0.0,0,0.0,0,0.0,0,0.0,0.0,0,0,0,0,0,0,0,0,0,0.0,0,0.0,0,0.0,0,0.0,9,,,,,0,16,16,16,,,,,,,,,289.7874152090003,289.7874152090003,289.7874152090003,289.7874152090003,289.7874152090003,289.7874152090003,289.7874152090003,289.7874152090003,289.6903011253331,289.7874152090003,289.7874152090003,289.7874152090003,289.6903011253331,289.7874152090003,289.7874152090003,289.7874152090003,289.7874152090003,289.7874152090003,289.7874152090003,289.7874152090003,289.7874152090003,289.7874152090003,289.7874152090003,289.7874152090003,289.7874152090003,289.7874152090003,289.7874152090003,289.74030112533313,289.7874152090003,289.7874152090003,289.7874152090003,289.74030112533313,289.7874152090003,289.7874152090003,289.7874152090003,289.7874152090003,289.7874152090003,294.98514399999976,294.98514399999976,299.01667662499995,None,0,,reldom2_fmri_s004p,001,2024-12-11_16h21.03.501,Aud-B-Scan_AC,2022.2.5,None,
13,First_Order,3.0,audwhere,stimulus/audwhere_stim/dummy.wav,stimulus/audwhere_stim/dummy.wav,stimulus/audwhere_stim/left_toward_290h.wav,stimulus/audwhere_stim/right_toward_280h.wav,stimulus/audwhere_stim/blank_white.png,stimulus/audwhere_stim/direction_box.png,stimulus/audwhere_stim/direction_yes.png,stimulus/audwhere_stim/direction_no.png,None,Direction,None,Direction,1,0.0,0,5.125,0,5.125,0,5.125,0,0.0,0.625,0,0,0,0,0,0,0,0,0,0.0,0,0.0,1,0.5,1,2.125,0,,,,,0,17,17,17,,,,,,,,,299.01667662499995,299.01667662499995,299.01667662499995,299.01667662499995,299.01667662499995,299.01667662499995,299.01667662499995,299.01667662499995,298.94652695866637,299.01667662499995,299.01667662499995,299.01667662499995,298.94652695866637,299.01667662499995,299.01667662499995,299.01667662499995,301.10289191699985,,299.01667662499995,299.01667662499995,304.2109367500002,299.01667662499995,299.01667662499995,299.01667662499995,299.01667662499995,299.4800124589997,300.5477904590002,299.4505777506663,,301.10289191699985,302.1729557499998,301.07302750066697,,299.01667662499995,304.2109367500002,299.01667662499995,304.2109367500002,304.2109367500002,304.85903208399986,299.01667662499995,1,1,1.6243790409998837,reldom2_fmri_s004p,001,2024-12-11_16h21.03.501,Aud-B-Scan_AC,2022.2.5,None,
14,First_Order,3.0,audwhere,stimulus/audwhere_stim/dummy.wav,stimulus/audwhere_stim/dummy.wav,stimulus/audwhere_stim/left_toward_270h.wav,stimulus/audwhere_stim/right_toward_290h.wav,stimulus/audwhere_stim/blank_white.png,stimulus/audwhere_stim/direction_box.png,stimulus/audwhere_stim/direction_yes.png,stimulus/audwhere_stim/direction_no.png,None,Direction,None,Direction,1,0.0,0,5.125,0,5.125,0,5.125,0,0.0,0.625,0,0,0,0,0,0,0,0,0,0.0,0,0.0,1,0.5,1,2.125,0,,,,,0,18,18,18,,,,,,,,,305.1109428750001,305.1109428750001,305.1109428750001,305.1109428750001,305.1109428750001,305.1109428750001,305.1109428750001,305.1109428750001,305.0330010423328,305.1109428750001,305.1109428750001,305.1109428750001,305.0330010423328,305.1109428750001,305.1109428750001,305.1109428750001,307.1962005419996,,305.1109428750001,305.1109428750001,310.26040445900026,305.1109428750001,305.1109428750001,305.1109428750001,305.1109428750001,305.57484129199975,306.64181891699945,305.5447257086669,,307.1962005419996,308.26647512499994,307.1660083756667,,305.1109428750001,310.26040445900026,305.1109428750001,310.26040445900026,310.34164320900027,310.9946454169999,305.1109428750001,1,1,1.9026379999995697,reldom2_fmri_s004p,001,2024-12-11_16h21.03.501,Aud-B-Scan_AC,2022.2.5,None,
15,First_Order,3.0,audwhere,stimulus/audwhere_stim/dummy.wav,stimulus/audwhere_stim/dummy.wav,stimulus/audwhere_stim/left_away_290h.wav,stimulus/audwhere_stim/left_toward_280h.wav,stimulus/audwhere_stim/blank_white.png,stimulus/audwhere_stim/direction_box.png,stimulus/audwhere_stim/direction_yes.png,stimulus/audwhere_stim/direction_no.png,None,Direction,None,Side,2,0.0,0,5.125,0,5.125,0,5.125,0,0.0,0.625,0,0,0,0,0,0,0,0,0,0.0,0,0.0,1,0.5,1,2.125,0,,,,,0,19,19,19,,,,,,,,,311.206377125,311.206377125,311.206377125,311.206377125,311.206377125,311.206377125,311.206377125,311.206377125,311.1279787503332,311.206377125,311.206377125,311.206377125,311.1279787503332,311.206377125,311.206377125,311.206377125,313.3017398340003,317.33090329200013,311.206377125,311.206377125,316.37712270899965,311.206377125,311.206377125,311.206377125,311.206377125,311.67354766699964,312.7442712500001,311.6430649166666,,313.3017398340003,314.37426658399954,313.27165700066666,,311.206377125,316.37712270899965,311.206377125,316.37712270899965,316.41830758399965,317.07602454200014,311.206377125,2,1,1.5438739159999386,reldom2_fmri_s004p,001,2024-12-11_16h21.03.501,Aud-B-Scan_AC,2022.2.5,None,
16,First_Order,3.0,audwhere,stimulus/audwhere_stim/dummy.wav,stimulus/audwhere_stim/dummy.wav,stimulus/audwhere_stim/left_toward_300h.wav,stimulus/audwhere_stim/left_away_290h.wav,stimulus/audwhere_stim/blank_white.png,stimulus/audwhere_stim/direction_box.png,stimulus/audwhere_stim/direction_yes.png,stimulus/audwhere_stim/direction_no.png,None,Direction,None,Side,2,0.0,0,5.125,0,5.125,0,5.125,0,0.0,0.625,0,0,0,0,0,0,0,0,0,0.0,0,0.0,1,0.5,1,2.125,0,,,,,0,20,20,20,,,,,,,,,317.33090329200013,317.33090329200013,317.33090329200013,317.33090329200013,317.33090329200013,317.33090329200013,317.33090329200013,317.33090329200013,317.24998125033346,317.33090329200013,317.33090329200013,317.33090329200013,317.24998125033346,317.33090329200013,317.33090329200013,317.33090329200013,319.4297644590001,323.4853249169996,317.33090329200013,317.33090329200013,322.51155220899955,317.33090329200013,317.33090329200013,317.33090329200013,317.33090329200013,317.79733558399994,318.87131691700006,317.7668860006668,,319.4297644590001,320.5045304170003,319.40023366666696,,317.33090329200013,322.51155220899955,317.33090329200013,322.51155220899955,322.5531432089997,323.2058472499998,317.33090329200013,2,1,1.3182209159995182,reldom2_fmri_s004p,001,2024-12-11_16h21.03.501,Aud-B-Scan_AC,2022.2.5,None,
0,0.0,None,fixation,stimulus/audwhat_stim/blank_white.png,stimulus/audwhat_stim/blank_white.png,stimulus/audwhere_stim/blank_white.png,stimulus/audwhere_stim/blank_white.png,stimulus/audwhat_stim/blank_white.png,stimulus/audwhat_stim/blank_white.png,stimulus/audwhat_stim/blank_white.png,stimulus/audwhat_stim/blank_white.png,0.0,0.0,0.0,0.0,0,0.0,0,0.0,0,0.0,0,0.0,0,0.0,0.0,0,0,0,0,0,0,0,0,0,0.0,0,0.0,0,0.0,0,0.0,10,,,,,0,21,21,21,,,,,,,,,323.4853249169996,323.4853249169996,323.4853249169996,323.4853249169996,323.4853249169996,323.4853249169996,323.4853249169996,323.4853249169996,323.3796618333332,323.4853249169996,323.4853249169996,323.4853249169996,323.3796618333332,323.4853249169996,323.4853249169996,323.4853249169996,323.4853249169996,323.4853249169996,323.4853249169996,323.4853249169996,323.4853249169996,323.4853249169996,323.4853249169996,323.4853249169996,323.4853249169996,323.4853249169996,323.4853249169996,323.4463284999999,323.4853249169996,323.4853249169996,323.4853249169996,323.4463284999999,323.4853249169996,323.4853249169996,323.4853249169996,323.4853249169996,323.4853249169996,328.6752692919995,328.6752692919995,333.63334620900014,None,0,,reldom2_fmri_s004p,001,2024-12-11_16h21.03.501,Aud-B-Scan_AC,2022.2.5,None,
17,Second_Order,3.0,audwhere,stimulus/audwhere_stim/right_toward_290h.wav,stimulus/audwhere_stim/right_away_290h.wav,stimulus/audwhere_stim/right_away_280h.wav,stimulus/audwhere_stim/left_away_300h.wav,stimulus/audwhat_stim/match_blank.png,stimulus/audwhat_stim/match_box.png,stimulus/audwhat_stim/match_yes.png,stimulus/audwhat_stim/match_no.png,2.0,Match,Side,Direction,2,5.125,0,5.125,0,5.125,0,5.125,0,0.75,0.75,0,0,0,0,0,0,0,0,1,0.5,1,2.125,1,0.5,1,2.125,0,,,,,0,22,22,22,,,,,,,,,333.63334620900014,338.7561450420003,333.63334620900014,333.63334620900014,333.63334620900014,333.63334620900014,334.09015537499954,335.07921179199957,334.0935440836663,335.0919479170002,335.7155547919997,336.7126295000003,335.7272650006669,336.7202866249995,338.7561450420003,339.58669316700025,341.65738337500034,345.59950308399993,339.58669316700025,339.58669316700025,344.75273441699983,339.58669316700025,339.58669316700025,339.58669316700025,339.58669316700025,340.0456339589996,341.10537145900025,340.01563225066616,,341.65738337500034,342.72099341700005,341.62797700066653,,339.58669316700025,344.75273441699983,339.58669316700025,344.75273441699983,344.79333287500003,,339.58669316700025,2,1,2.072368582999843,reldom2_fmri_s004p,001,2024-12-11_16h21.03.501,Aud-B-Scan_AC,2022.2.5,None,
18,Second_Order,3.0,audwhere,stimulus/audwhere_stim/right_toward_270h.wav,stimulus/audwhere_stim/left_toward_270h.wav,stimulus/audwhere_stim/right_away_300h.wav,stimulus/audwhere_stim/left_away_280h.wav,stimulus/audwhat_stim/match_blank.png,stimulus/audwhat_stim/match_box.png,stimulus/audwhat_stim/match_yes.png,stimulus/audwhat_stim/match_no.png,1.0,Match,Direction,Direction,1,5.125,0,5.125,0,5.125,0,5.125,0,0.625,0.625,0,0,0,0,0,0,0,0,1,0.5,1,2.125,1,0.5,1,2.125,0,,,,,0,23,23,23,,,,,,,,,345.59950308399993,350.71627324999963,345.59950308399993,345.59950308399993,345.59950308399993,345.59950308399993,346.0550255840003,347.05334837500004,346.06747404166686,347.06125258400016,347.67712033399994,348.6738396249998,347.68802858366666,348.6814759169997,350.71627324999963,351.42793200000006,353.4920683340001,,351.42793200000006,351.42793200000006,356.6184662499995,351.42793200000006,351.42793200000006,351.42793200000006,351.42793200000006,351.88500983399945,352.94178941699965,351.85553591666644,,353.4920683340001,354.5527870000001,353.4618758756667,,351.42793200000006,356.6184662499995,351.42793200000006,356.6184662499995,356.6184662499995,357.30589566699973,351.42793200000006,1,1,1.203351999000006,reldom2_fmri_s004p,001,2024-12-11_16h21.03.501,Aud-B-Scan_AC,2022.2.5,None,
0,0.0,None,fixation,stimulus/audwhat_stim/blank_white.png,stimulus/audwhat_stim/blank_white.png,stimulus/audwhere_stim/blank_white.png,stimulus/audwhere_stim/blank_white.png,stimulus/audwhat_stim/blank_white.png,stimulus/audwhat_stim/blank_white.png,stimulus/audwhat_stim/blank_white.png,stimulus/audwhat_stim/blank_white.png,0.0,0.0,0.0,0.0,0,0.0,0,0.0,0,0.0,0,0.0,0,0.0,0.0,0,0,0,0,0,0,0,0,0,0.0,0,0.0,0,0.0,0,0.0,8,,,,,0,24,24,24,,,,,,,,,357.53879066699983,357.53879066699983,357.53879066699983,357.53879066699983,357.53879066699983,357.53879066699983,357.53879066699983,357.53879066699983,357.43922900033306,357.53879066699983,357.53879066699983,357.53879066699983,357.43922900033306,357.53879066699983,357.53879066699983,357.53879066699983,357.53879066699983,357.53879066699983,357.53879066699983,357.53879066699983,357.53879066699983,357.53879066699983,357.53879066699983,357.53879066699983,357.53879066699983,357.53879066699983,357.53879066699983,357.48922900033307,357.53879066699983,357.53879066699983,357.53879066699983,357.48922900033307,357.53879066699983,357.53879066699983,357.53879066699983,357.53879066699983,357.53879066699983,362.7736167090002,362.7736167090002,365.7799325840001,None,0,,reldom2_fmri_s004p,001,2024-12-11_16h21.03.501,Aud-B-Scan_AC,2022.2.5,None,
19,First_Order,4.0,audwhere,stimulus/audwhere_stim/dummy.wav,stimulus/audwhere_stim/dummy.wav,stimulus/audwhere_stim/right_toward_280h.wav,stimulus/audwhere_stim/left_toward_280h.wav,stimulus/audwhere_stim/blank_white.png,stimulus/audwhere_stim/side_box.png,stimulus/audwhere_stim/side_yes.png,stimulus/audwhere_stim/side_no.png,None,Side,None,Direction,2,0.0,0,5.125,0,5.125,0,5.125,0,0.0,0.625,0,0,0,0,0,0,0,0,0,0.0,0,0.0,1,0.5,1,2.125,0,,,,,0,25,25,25,,,,,,,,,365.7799325840001,365.7799325840001,365.7799325840001,365.7799325840001,365.7799325840001,365.7799325840001,365.7799325840001,365.7799325840001,365.7071545416667,365.7799325840001,365.7799325840001,365.7799325840001,365.7071545416667,365.7799325840001,365.7799325840001,365.7799325840001,367.86186662499995,,365.7799325840001,365.7799325840001,370.96508266699993,365.7799325840001,365.7799325840001,365.7799325840001,365.7799325840001,366.24455329199964,367.3071871249999,366.21535108366675,,367.86186662499995,368.9299832499996,367.8319507086669,,365.7799325840001,370.96508266699993,365.7799325840001,370.96508266699993,371.00601795899956,371.65918708399977,365.7799325840001,2,1,2.330915623999317,reldom2_fmri_s004p,001,2024-12-11_16h21.03.501,Aud-B-Scan_AC,2022.2.5,None,
20,First_Order,4.0,audwhere,stimulus/audwhere_stim/dummy.wav,stimulus/audwhere_stim/dummy.wav,stimulus/audwhere_stim/left_toward_290h.wav,stimulus/audwhere_stim/right_toward_270h.wav,stimulus/audwhere_stim/blank_white.png,stimulus/audwhere_stim/side_box.png,stimulus/audwhere_stim/side_yes.png,stimulus/audwhere_stim/side_no.png,None,Side,None,Direction,2,0.0,0,5.125,0,5.125,0,5.125,0,0.0,0.625,0,0,0,0,0,0,0,0,0,0.0,0,0.0,1,0.5,1,2.125,0,,,,,0,26,26,26,,,,,,,,,371.87179349999997,371.87179349999997,371.87179349999997,371.87179349999997,371.87179349999997,371.87179349999997,371.87179349999997,371.87179349999997,371.7925204173331,371.87179349999997,371.87179349999997,371.87179349999997,371.7925204173331,371.87179349999997,371.87179349999997,371.87179349999997,373.96238799999946,,371.87179349999997,371.87179349999997,377.0234539999997,371.87179349999997,371.87179349999997,371.87179349999997,371.87179349999997,372.33873208399973,373.4055012089998,372.3092291256669,,373.96238799999946,375.0306477090003,373.9326960416663,,371.87179349999997,377.0234539999997,371.87179349999997,377.0234539999997,377.0646525420002,377.71662887499997,371.87179349999997,1,0,1.7669991250004387,reldom2_fmri_s004p,001,2024-12-11_16h21.03.501,Aud-B-Scan_AC,2022.2.5,None,
21,First_Order,4.0,audwhere,stimulus/audwhere_stim/dummy.wav,stimulus/audwhere_stim/dummy.wav,stimulus/audwhere_stim/left_toward_270h.wav,stimulus/audwhere_stim/left_away_300h.wav,stimulus/audwhere_stim/blank_white.png,stimulus/audwhere_stim/side_box.png,stimulus/audwhere_stim/side_yes.png,stimulus/audwhere_stim/side_no.png,None,Side,None,Side,1,0.0,0,5.125,0,5.125,0,5.125,0,0.0,0.625,0,0,0,0,0,0,0,0,0,0.0,0,0.0,1,0.5,1,2.125,0,,,,,0,27,27,27,,,,,,,,,377.97072224999965,377.97072224999965,377.97072224999965,377.97072224999965,377.97072224999965,377.97072224999965,377.97072224999965,377.97072224999965,377.8913740423328,377.97072224999965,377.97072224999965,377.97072224999965,377.8913740423328,377.97072224999965,377.97072224999965,377.97072224999965,380.06237283400014,,377.97072224999965,377.97072224999965,383.13315074999946,377.97072224999965,377.97072224999965,377.97072224999965,377.97072224999965,378.4362836670002,379.5046852089995,378.4059517506664,,380.06237283400014,381.13504166699977,380.03296270866645,,377.97072224999965,383.13315074999946,377.97072224999965,383.13315074999946,383.17426849999947,383.82696241700023,377.97072224999965,2,0,2.0845914999999877,reldom2_fmri_s004p,001,2024-12-11_16h21.03.501,Aud-B-Scan_AC,2022.2.5,None,
22,First_Order,4.0,audwhere,stimulus/audwhere_stim/dummy.wav,stimulus/audwhere_stim/dummy.wav,stimulus/audwhere_stim/left_away_290h.wav,stimulus/audwhere_stim/left_toward_270h.wav,stimulus/audwhere_stim/blank_white.png,stimulus/audwhere_stim/side_box.png,stimulus/audwhere_stim/side_yes.png,stimulus/audwhere_stim/side_no.png,None,Side,None,Side,1,0.0,0,5.125,0,5.125,0,5.125,0,0.0,0.625,0,0,0,0,0,0,0,0,0,0.0,0,0.0,1,0.5,1,2.125,0,,,,,0,28,28,28,,,,,,,,,384.0810510839997,384.0810510839997,384.0810510839997,384.0810510839997,384.0810510839997,384.0810510839997,384.0810510839997,384.0810510839997,384.0010529173329,384.0810510839997,384.0810510839997,384.0810510839997,384.0010529173329,384.0810510839997,384.0810510839997,384.0810510839997,386.1762026250003,390.2255945840002,384.0810510839997,384.0810510839997,389.2463574999997,384.0810510839997,384.0810510839997,384.0810510839997,384.0810510839997,384.5473079999997,385.61561262500027,384.51714087566666,,386.1762026250003,387.2512151249998,386.14625320866685,,384.0810510839997,389.2463574999997,384.0810510839997,389.2463574999997,389.2874464169995,389.9444936249997,384.0810510839997,1,1,1.6582279999993261,reldom2_fmri_s004p,001,2024-12-11_16h21.03.501,Aud-B-Scan_AC,2022.2.5,None,
0,0.0,None,fixation,stimulus/audwhat_stim/blank_white.png,stimulus/audwhat_stim/blank_white.png,stimulus/audwhere_stim/blank_white.png,stimulus/audwhere_stim/blank_white.png,stimulus/audwhat_stim/blank_white.png,stimulus/audwhat_stim/blank_white.png,stimulus/audwhat_stim/blank_white.png,stimulus/audwhat_stim/blank_white.png,0.0,0.0,0.0,0.0,0,0.0,0,0.0,0,0.0,0,0.0,0,0.0,0.0,0,0,0,0,0,0,0,0,0,0.0,0,0.0,0,0.0,0,0.0,10,,,,,0,29,29,29,,,,,,,,,390.2255945840002,390.2255945840002,390.2255945840002,390.2255945840002,390.2255945840002,390.2255945840002,390.2255945840002,390.2255945840002,390.11851033333335,390.2255945840002,390.2255945840002,390.2255945840002,390.11851033333335,390.2255945840002,390.2255945840002,390.2255945840002,390.2255945840002,390.2255945840002,390.2255945840002,390.2255945840002,390.2255945840002,390.2255945840002,390.2255945840002,390.2255945840002,390.2255945840002,390.2255945840002,390.2255945840002,390.16851033333336,390.2255945840002,390.2255945840002,390.2255945840002,390.16851033333336,390.2255945840002,390.2255945840002,390.2255945840002,390.2255945840002,390.2255945840002,395.4233419999996,395.4233419999996,400.3969633749998,None,0,,reldom2_fmri_s004p,001,2024-12-11_16h21.03.501,Aud-B-Scan_AC,2022.2.5,None,
23,Second_Order,4.0,audwhere,stimulus/audwhere_stim/right_toward_300h.wav,stimulus/audwhere_stim/left_toward_270h.wav,stimulus/audwhere_stim/left_away_300h.wav,stimulus/audwhere_stim/right_away_300h.wav,stimulus/audwhat_stim/match_blank.png,stimulus/audwhat_stim/match_box.png,stimulus/audwhat_stim/match_yes.png,stimulus/audwhat_stim/match_no.png,1.0,Match,Direction,Direction,1,5.125,0,5.125,0,5.125,0,5.125,0,0.75,0.75,0,0,0,0,0,0,0,0,1,0.5,1,2.125,1,0.5,1,2.125,0,,,,,0,30,30,30,,,,,,,,,400.3969633749998,405.5090269589996,400.3969633749998,400.3969633749998,400.3969633749998,400.3969633749998,400.847646834,401.8459840419996,400.8607146666661,401.8536743339996,402.48141966699995,403.47016137499986,402.4848525416662,403.48322741699985,405.5090269589996,406.338351459,408.4185552920003,,406.338351459,406.338351459,411.52328583400003,406.338351459,406.338351459,406.338351459,406.338351459,406.798579625,407.86355649999996,406.76881083366675,,408.4185552920003,409.4871969999999,408.3889929166669,,406.338351459,411.52328583400003,406.338351459,411.52328583400003,411.52328583400003,,406.338351459,1,1,0.8601457080003456,reldom2_fmri_s004p,001,2024-12-11_16h21.03.501,Aud-B-Scan_AC,2022.2.5,None,
24,Second_Order,4.0,audwhere,stimulus/audwhere_stim/right_toward_300h.wav,stimulus/audwhere_stim/left_toward_300h.wav,stimulus/audwhere_stim/left_away_290h.wav,stimulus/audwhere_stim/right_away_280h.wav,stimulus/audwhat_stim/match_blank.png,stimulus/audwhat_stim/match_box.png,stimulus/audwhat_stim/match_yes.png,stimulus/audwhat_stim/match_no.png,1.0,Match,Direction,Direction,1,5.125,0,5.125,0,5.125,0,5.125,0,0.625,0.625,0,0,0,0,0,0,0,0,1,0.5,1,2.125,1,0.5,1,2.125,0,,,,,0,31,31,31,,,,,,,,,412.3364104589996,417.45498666699996,412.3364104589996,412.3364104589996,412.3364104589996,412.3364104589996,412.79242845900035,413.79064308399984,412.8047164586667,413.79837541699953,414.41296091699996,415.4108672090001,414.4251963756667,415.4186111670001,417.45498666699996,418.16511112499984,420.23825445899956,424.3012858750003,418.16511112499984,418.16511112499984,423.33715483399965,418.16511112499984,418.16511112499984,418.16511112499984,418.16511112499984,418.62504816699993,419.68548254200005,418.59567283366664,,420.23825445899956,421.30056654200007,420.20864404166673,,418.16511112499984,423.33715483399965,418.16511112499984,423.33715483399965,423.37757504199953,424.02635704199974,418.16511112499984,2,0,1.2612162080004055,reldom2_fmri_s004p,001,2024-12-11_16h21.03.501,Aud-B-Scan_AC,2022.2.5,None,
0,0.0,None,fixation,stimulus/audwhat_stim/blank_white.png,stimulus/audwhat_stim/blank_white.png,stimulus/audwhere_stim/blank_white.png,stimulus/audwhere_stim/blank_white.png,stimulus/audwhat_stim/blank_white.png,stimulus/audwhat_stim/blank_white.png,stimulus/audwhat_stim/blank_white.png,stimulus/audwhat_stim/blank_white.png,0.0,0.0,0.0,0.0,0,0.0,0,0.0,0,0.0,0,0.0,0,0.0,0.0,0,0,0,0,0,0,0,0,0,0.0,0,0.0,0,0.0,0,0.0,9,,,,,0,32,32,32,,,,,,,,,424.3012858750003,424.3012858750003,424.3012858750003,424.3012858750003,424.3012858750003,424.3012858750003,424.3012858750003,424.3012858750003,424.2000187923328,424.3012858750003,424.3012858750003,424.3012858750003,424.2000187923328,424.3012858750003,424.3012858750003,424.3012858750003,424.3012858750003,424.3012858750003,424.3012858750003,424.3012858750003,424.3012858750003,424.3012858750003,424.3012858750003,424.3012858750003,424.3012858750003,424.3012858750003,424.3012858750003,424.2500187923328,424.3012858750003,424.3012858750003,424.3012858750003,424.2500187923328,424.3012858750003,424.3012858750003,424.3012858750003,424.3012858750003,424.3012858750003,429.5147042499998,429.5147042499998,433.538584292,None,0,,reldom2_fmri_s004p,001,2024-12-11_16h21.03.501,Aud-B-Scan_AC,2022.2.5,None,
25,First_Order,5.0,audwhat,stimulus/audwhat_stim/dummy.wav,stimulus/audwhat_stim/dummy.wav,stimulus/audwhat_stim/percussion xylophone_high-pitch_Ftri_loud.wav,stimulus/audwhat_stim/percussion mallet_low-pitch_F_loud.wav,stimulus/audwhat_stim/blank_white.png,stimulus/audwhat_stim/pitch_box.png,stimulus/audwhat_stim/pitch_yes.png,stimulus/audwhat_stim/pitch_no.png,None,Pitch,None,Category,2,0.0,0,5.125,0,5.125,0,5.125,0,0.0,0.625,0,0,0,0,0,0,0,0,0,0.0,0,0.0,1,0.5,1,2.125,0,,,,,0,33,33,33,,,,,,,,,433.538584292,433.538584292,433.538584292,433.538584292,433.538584292,433.538584292,433.538584292,433.538584292,433.4646211666669,433.538584292,433.538584292,433.538584292,433.4646211666669,433.538584292,433.538584292,433.538584292,435.63623354199945,439.6627495839998,433.538584292,433.538584292,438.71422012500034,433.538584292,433.538584292,433.538584292,433.538584292,434.0031818749999,435.07965116700007,433.97366516666693,435.03361229200027,435.63623354199945,436.66729387500027,435.6061853756662,,433.538584292,438.71422012500034,433.538584292,438.71422012500034,438.75483654200025,439.4070281669997,433.538584292,2,1,0.9872749159994783,reldom2_fmri_s004p,001,2024-12-11_16h21.03.501,Aud-B-Scan_AC,2022.2.5,None,
26,First_Order,5.0,audwhat,stimulus/audwhat_stim/dummy.wav,stimulus/audwhat_stim/dummy.wav,stimulus/audwhat_stim/percussion mallet_low-pitch_Dtri_loud.wav,stimulus/audwhat_stim/percussion xylophone_high-pitch_Ftri_loud.wav,stimulus/audwhat_stim/blank_white.png,stimulus/audwhat_stim/category_box.png,stimulus/audwhat_stim/category_yes.png,stimulus/audwhat_stim/category_no.png,None,Category,None,Category,1,0.0,0,5.125,0,5.125,0,5.125,0,0.0,0.625,0,0,0,0,0,0,0,0,0,0.0,0,0.0,1,0.5,1,2.125,0,,,,,0,34,34,34,,,,,,,,,439.6627495839998,439.6627495839998,439.6627495839998,439.6627495839998,439.6627495839998,439.6627495839998,439.6627495839998,439.6627495839998,439.58120516733345,439.6627495839998,439.6627495839998,439.6627495839998,439.58120516733345,439.6627495839998,439.6627495839998,439.6627495839998,441.7649824169998,,439.6627495839998,439.6627495839998,444.8158699999999,439.6627495839998,439.6627495839998,439.6627495839998,439.6627495839998,440.1314887499998,441.20623870899954,440.0997761666665,,441.7649824169998,442.80541708400006,441.73507970866626,442.80541708400006,439.6627495839998,444.8158699999999,439.6627495839998,444.8158699999999,444.8566379589997,445.51394708399994,439.6627495839998,1,1,0.6502570000002379,reldom2_fmri_s004p,001,2024-12-11_16h21.03.501,Aud-B-Scan_AC,2022.2.5,None,
27,First_Order,5.0,audwhat,stimulus/audwhat_stim/dummy.wav,stimulus/audwhat_stim/dummy.wav,stimulus/audwhat_stim/string cello_low-pitch_Dtri_loud.wav,stimulus/audwhat_stim/percussion mallet_low-pitch_Dtri_loud.wav,stimulus/audwhat_stim/blank_white.png,stimulus/audwhat_stim/pitch_box.png,stimulus/audwhat_stim/pitch_yes.png,stimulus/audwhat_stim/pitch_no.png,None,Pitch,None,Pitch,1,0.0,0,5.125,0,5.125,0,5.125,0,0.0,0.625,0,0,0,0,0,0,0,0,0,0.0,0,0.0,1,0.5,1,2.125,0,,,,,0,35,35,35,,,,,,,,,445.7712940839997,445.7712940839997,445.7712940839997,445.7712940839997,445.7712940839997,445.7712940839997,445.7712940839997,445.7712940839997,445.6884705423332,445.7712940839997,445.7712940839997,445.7712940839997,445.6884705423332,445.7712940839997,445.7712940839997,445.7712940839997,447.8700927499999,,445.7712940839997,445.7712940839997,450.94997225,445.7712940839997,445.7712940839997,445.7712940839997,445.7712940839997,446.2384707919996,447.31056158399997,446.20917083366635,,447.8700927499999,448.90287087499973,447.8398357086669,,445.7712940839997,450.94997225,445.7712940839997,450.94997225,450.99098600000025,451.64966499999946,445.7712940839997,1,1,0.9292407490002006,reldom2_fmri_s004p,001,2024-12-11_16h21.03.501,Aud-B-Scan_AC,2022.2.5,None,
28,First_Order,5.0,audwhat,stimulus/audwhat_stim/dummy.wav,stimulus/audwhat_stim/dummy.wav,stimulus/audwhat_stim/percussion xylophone_high-pitch_Ftri_loud.wav,stimulus/audwhat_stim/percussion mallet_low-pitch_F_loud.wav,stimulus/audwhat_stim/blank_white.png,stimulus/audwhat_stim/category_box.png,stimulus/audwhat_stim/category_yes.png,stimulus/audwhat_stim/category_no.png,None,Category,None,Category,1,0.0,0,5.125,0,5.125,0,5.125,0,0.0,0.625,0,0,0,0,0,0,0,0,0,0.0,0,0.0,1,0.5,1,2.125,0,,,,,0,36,36,36,,,,,,,,,451.86627091699984,451.86627091699984,451.86627091699984,451.86627091699984,451.86627091699984,451.86627091699984,451.86627091699984,451.86627091699984,451.7829983333328,451.86627091699984,451.86627091699984,451.86627091699984,451.7829983333328,451.86627091699984,451.86627091699984,451.86627091699984,453.9371166249998,458.009914834,451.86627091699984,451.86627091699984,457.03404108399945,451.86627091699984,451.86627091699984,451.86627091699984,451.86627091699984,452.3391401670001,453.3756586249997,452.30830841666625,453.3756586249997,453.9371166249998,454.9729576249997,453.90660437566635,,451.86627091699984,457.03404108399945,451.86627091699984,457.03404108399945,457.0757377089999,457.7333172089998,451.86627091699984,1,1,0.599253458000021,reldom2_fmri_s004p,001,2024-12-11_16h21.03.501,Aud-B-Scan_AC,2022.2.5,None,
0,0.0,None,fixation,stimulus/audwhat_stim/blank_white.png,stimulus/audwhat_stim/blank_white.png,stimulus/audwhere_stim/blank_white.png,stimulus/audwhere_stim/blank_white.png,stimulus/audwhat_stim/blank_white.png,stimulus/audwhat_stim/blank_white.png,stimulus/audwhat_stim/blank_white.png,stimulus/audwhat_stim/blank_white.png,0.0,0.0,0.0,0.0,0,0.0,0,0.0,0,0.0,0,0.0,0,0.0,0.0,0,0,0,0,0,0,0,0,0,0.0,0,0.0,0,0.0,0,0.0,8,,,,,0,37,37,37,,,,,,,,,458.009914834,458.009914834,458.009914834,458.009914834,458.009914834,458.009914834,458.009914834,458.009914834,457.90747079233336,458.009914834,458.009914834,458.009914834,457.90747079233336,458.009914834,458.009914834,458.009914834,458.009914834,458.009914834,458.009914834,458.009914834,458.009914834,458.009914834,458.009914834,458.009914834,458.009914834,458.009914834,458.009914834,457.95747079233337,458.009914834,458.009914834,458.009914834,457.95747079233337,458.009914834,458.009914834,458.009914834,458.009914834,458.009914834,463.2272853339996,463.2272853339996,466.17080291699995,None,0,,reldom2_fmri_s004p,001,2024-12-11_16h21.03.501,Aud-B-Scan_AC,2022.2.5,None,
29,Second_Order,5.0,audwhat,stimulus/audwhat_stim/string viola_low-pitch_Dtri_loud.wav,stimulus/audwhat_stim/percussion mallet_low-pitch_Dtri_loud.wav,stimulus/audwhat_stim/string viola_low-pitch_Dtri_loud.wav,stimulus/audwhat_stim/string cello_high-pitch_Ftri_loud.wav,stimulus/audwhat_stim/match_blank.png,stimulus/audwhat_stim/match_box.png,stimulus/audwhat_stim/match_yes.png,stimulus/audwhat_stim/match_no.png,2.0,Match,Pitch,Category,2,5.125,0,5.125,0,5.125,0,5.125,0,0.75,0.75,0,0,0,0,0,0,0,0,1,0.5,1,2.125,1,0.5,1,2.125,0,,,,,0,38,38,38,,,,,,,,,466.17080291699995,471.2945496669995,466.17080291699995,466.17080291699995,466.17080291699995,466.17080291699995,466.6160004999997,467.61467437500005,466.62862891666623,,468.2544506250001,469.25181541699976,468.26619770866614,469.25926387499976,471.2945496669995,472.1266754590001,474.215755875,478.14034833399955,472.1266754590001,472.1266754590001,477.28627383399953,472.1266754590001,472.1266754590001,472.1266754590001,472.1266754590001,472.588311125,473.6573092089998,472.55818662566685,,474.215755875,475.2887832499996,474.1867041256662,,472.1266754590001,477.28627383399953,472.1266754590001,477.28627383399953,477.32752712499996,,472.1266754590001,2,1,0.8015954160000547,reldom2_fmri_s004p,001,2024-12-11_16h21.03.501,Aud-B-Scan_AC,2022.2.5,None,
30,Second_Order,5.0,audwhat,stimulus/audwhat_stim/string viola_high-pitch_Ftri_loud.wav,stimulus/audwhat_stim/percussion xylophone_high-pitch_Ftri_loud.wav,stimulus/audwhat_stim/string viola_low-pitch_D_loud.wav,stimulus/audwhat_stim/percussion mallet_low-pitch_D_loud.wav,stimulus/audwhat_stim/match_blank.png,stimulus/audwhat_stim/match_box.png,stimulus/audwhat_stim/match_yes.png,stimulus/audwhat_stim/match_no.png,1.0,Match,Pitch,Pitch,1,5.125,0,5.125,0,5.125,0,5.125,0,0.625,0.625,0,0,0,0,0,0,0,0,1,0.5,1,2.125,1,0.5,1,2.125,0,,,,,0,39,39,39,,,,,,,,,478.14034833399955,483.254846542,478.14034833399955,478.14034833399955,478.14034833399955,478.14034833399955,478.59432804200014,479.59201362500016,478.6066634586666,,480.2150591249997,481.21254954200003,480.2271747086668,481.22124550000035,483.254846542,483.9679384999995,486.04523862499946,,483.9679384999995,483.9679384999995,489.14623662500026,483.9679384999995,483.9679384999995,483.9679384999995,483.9679384999995,484.42935075000014,485.49211966699977,484.39968291666696,,486.04523862499946,487.1123944169999,486.01543666666635,,483.9679384999995,489.14623662500026,483.9679384999995,489.14623662500026,489.14623662500026,489.7967990000002,483.9679384999995,1,1,1.0226196249996065,reldom2_fmri_s004p,001,2024-12-11_16h21.03.501,Aud-B-Scan_AC,2022.2.5,None,
0,0.0,None,fixation,stimulus/audwhat_stim/blank_white.png,stimulus/audwhat_stim/blank_white.png,stimulus/audwhere_stim/blank_white.png,stimulus/audwhere_stim/blank_white.png,stimulus/audwhat_stim/blank_white.png,stimulus/audwhat_stim/blank_white.png,stimulus/audwhat_stim/blank_white.png,stimulus/audwhat_stim/blank_white.png,0.0,0.0,0.0,0.0,0,0.0,0,0.0,0,0.0,0,0.0,0,0.0,0.0,0,0,0,0,0,0,0,0,0,0.0,0,0.0,0,0.0,0,0.0,9,,,,,0,40,40,40,,,,,,,,,490.07128349999994,490.07128349999994,490.07128349999994,490.07128349999994,490.07128349999994,490.07128349999994,490.07128349999994,490.07128349999994,489.9707242923329,490.07128349999994,490.07128349999994,490.07128349999994,489.9707242923329,490.07128349999994,490.07128349999994,490.07128349999994,490.07128349999994,490.07128349999994,490.07128349999994,490.07128349999994,490.07128349999994,490.07128349999994,490.07128349999994,490.07128349999994,490.07128349999994,490.07128349999994,490.07128349999994,490.0207242923329,490.07128349999994,490.07128349999994,490.07128349999994,490.0207242923329,490.07128349999994,490.07128349999994,490.07128349999994,490.07128349999994,490.07128349999994,495.3036189999998,495.3036189999998,499.34003633400016,None,0,,reldom2_fmri_s004p,001,2024-12-11_16h21.03.501,Aud-B-Scan_AC,2022.2.5,None,
31,First_Order,6.0,audwhat,stimulus/audwhat_stim/dummy.wav,stimulus/audwhat_stim/dummy.wav,stimulus/audwhat_stim/string viola_low-pitch_D_loud.wav,stimulus/audwhat_stim/percussion mallet_low-pitch_D_loud.wav,stimulus/audwhat_stim/blank_white.png,stimulus/audwhat_stim/category_box.png,stimulus/audwhat_stim/category_yes.png,stimulus/audwhat_stim/category_no.png,None,Category,None,Pitch,2,0.0,0,5.125,0,5.125,0,5.125,0,0.0,0.625,0,0,0,0,0,0,0,0,0,0.0,0,0.0,1,0.5,1,2.125,0,,,,,0,41,41,41,,,,,,,,,499.34003633400016,499.34003633400016,499.34003633400016,499.34003633400016,499.34003633400016,499.34003633400016,499.34003633400016,499.34003633400016,499.2655806666663,499.34003633400016,499.34003633400016,499.34003633400016,499.2655806666663,499.34003633400016,499.34003633400016,499.34003633400016,501.4449369170002,,499.34003633400016,499.34003633400016,504.4892455839995,499.34003633400016,499.34003633400016,499.34003633400016,499.34003633400016,499.8075427919998,500.8379149589996,499.77722033366695,,501.4449369170002,502.4778154999999,501.4141307916668,,499.34003633400016,504.4892455839995,499.34003633400016,504.4892455839995,504.53072970899984,505.1912320839997,499.34003633400016,2,1,2.5243389569995998,reldom2_fmri_s004p,001,2024-12-11_16h21.03.501,Aud-B-Scan_AC,2022.2.5,None,
32,First_Order,6.0,audwhat,stimulus/audwhat_stim/dummy.wav,stimulus/audwhat_stim/dummy.wav,stimulus/audwhat_stim/percussion mallet_high-pitch_Dtri_loud.wav,stimulus/audwhat_stim/string viola_high-pitch_Dtri_loud.wav,stimulus/audwhat_stim/blank_white.png,stimulus/audwhat_stim/pitch_box.png,stimulus/audwhat_stim/pitch_yes.png,stimulus/audwhat_stim/pitch_no.png,None,Pitch,None,Pitch,1,0.0,0,5.125,0,5.125,0,5.125,0,0.0,0.625,0,0,0,0,0,0,0,0,0,0.0,0,0.0,1,0.5,1,2.125,0,,,,,0,42,42,42,,,,,,,,,505.4482159590002,505.4482159590002,505.4482159590002,505.4482159590002,505.4482159590002,505.4482159590002,505.4482159590002,505.4482159590002,505.3660513333331,505.4482159590002,505.4482159590002,505.4482159590002,505.3660513333331,505.4482159590002,505.4482159590002,505.4482159590002,507.55024537500003,,505.4482159590002,505.4482159590002,510.63464991699993,505.4482159590002,505.4482159590002,505.4482159590002,505.4482159590002,505.91555466699947,506.9459259999999,505.88539041666695,,507.55024537500003,508.58350612499953,507.5200712086669,,505.4482159590002,510.63464991699993,505.4482159590002,510.63464991699993,510.6761602089996,511.3342747499996,505.4482159590002,1,1,0.998841958000412,reldom2_fmri_s004p,001,2024-12-11_16h21.03.501,Aud-B-Scan_AC,2022.2.5,None,
33,First_Order,6.0,audwhat,stimulus/audwhat_stim/dummy.wav,stimulus/audwhat_stim/dummy.wav,stimulus/audwhat_stim/string cello_high-pitch_D_loud.wav,stimulus/audwhat_stim/string viola_low-pitch_F_loud.wav,stimulus/audwhat_stim/blank_white.png,stimulus/audwhat_stim/pitch_box.png,stimulus/audwhat_stim/pitch_yes.png,stimulus/audwhat_stim/pitch_no.png,None,Pitch,None,Category,2,0.0,0,5.125,0,5.125,0,5.125,0,0.0,0.625,0,0,0,0,0,0,0,0,0,0.0,0,0.0,1,0.5,1,2.125,0,,,,,0,43,43,43,,,,,,,,,511.5549723749996,511.5549723749996,511.5549723749996,511.5549723749996,511.5549723749996,511.5549723749996,511.5549723749996,511.5549723749996,511.46760808333295,511.5549723749996,511.5549723749996,511.5549723749996,511.46760808333295,511.5549723749996,511.5549723749996,511.5549723749996,513.6594542090002,517.6704580840001,511.5549723749996,511.5549723749996,516.7461036250002,511.5549723749996,511.5549723749996,511.5549723749996,511.5549723749996,512.0229145420003,513.0990145840001,511.9923390416668,,513.6594542090002,514.6920118339999,513.6289935416669,,511.5549723749996,516.7461036250002,511.5549723749996,516.7461036250002,516.7461036250002,517.4131566669998,511.5549723749996,2,1,0.7066349160004393,reldom2_fmri_s004p,001,2024-12-11_16h21.03.501,Aud-B-Scan_AC,2022.2.5,None,
34,First_Order,6.0,audwhat,stimulus/audwhat_stim/dummy.wav,stimulus/audwhat_stim/dummy.wav,stimulus/audwhat_stim/percussion mallet_low-pitch_F_loud.wav,stimulus/audwhat_stim/string viola_low-pitch_F_loud.wav,stimulus/audwhat_stim/blank_white.png,stimulus/audwhat_stim/category_box.png,stimulus/audwhat_stim/category_yes.png,stimulus/audwhat_stim/category_no.png,None,Category,None,Pitch,2,0.0,0,5.125,0,5.125,0,5.125,0,0.0,0.625,0,0,0,0,0,0,0,0,0,0.0,0,0.0,1,0.5,1,2.125,0,,,,,0,44,44,44,,,,,,,,,517.6704580840001,517.6704580840001,517.6704580840001,517.6704580840001,517.6704580840001,517.6704580840001,517.6704580840001,517.6704580840001,517.5872072503331,517.6704580840001,517.6704580840001,517.6704580840001,517.5872072503331,517.6704580840001,517.6704580840001,517.6704580840001,519.7859751250003,,517.6704580840001,517.6704580840001,522.8429044999998,517.6704580840001,517.6704580840001,517.6704580840001,517.6704580840001,518.1428201249996,519.1767977499999,518.1105085416664,,519.7859751250003,520.8265263749995,519.7556385836667,,517.6704580840001,522.8429044999998,517.6704580840001,522.8429044999998,522.8848329589996,523.5451545840001,517.6704580840001,2,1,0.9086071240008096,reldom2_fmri_s004p,001,2024-12-11_16h21.03.501,Aud-B-Scan_AC,2022.2.5,None,
0,0.0,None,fixation,stimulus/audwhat_stim/blank_white.png,stimulus/audwhat_stim/blank_white.png,stimulus/audwhere_stim/blank_white.png,stimulus/audwhere_stim/blank_white.png,stimulus/audwhat_stim/blank_white.png,stimulus/audwhat_stim/blank_white.png,stimulus/audwhat_stim/blank_white.png,stimulus/audwhat_stim/blank_white.png,0.0,0.0,0.0,0.0,0,0.0,0,0.0,0,0.0,0,0.0,0,0.0,0.0,0,0,0,0,0,0,0,0,0,0.0,0,0.0,0,0.0,0,0.0,9,,,,,0,45,45,45,,,,,,,,,523.7823515839996,523.7823515839996,523.7823515839996,523.7823515839996,523.7823515839996,523.7823515839996,523.7823515839996,523.7823515839996,523.6784879173334,523.7823515839996,523.7823515839996,523.7823515839996,523.6784879173334,523.7823515839996,523.7823515839996,523.7823515839996,523.7823515839996,523.7823515839996,523.7823515839996,523.7823515839996,523.7823515839996,523.7823515839996,523.7823515839996,523.7823515839996,523.7823515839996,523.7823515839996,523.7823515839996,523.7284879173334,523.7823515839996,523.7823515839996,523.7823515839996,523.7284879173334,523.7823515839996,523.7823515839996,523.7823515839996,523.7823515839996,523.7823515839996,528.9635887919999,528.9635887919999,532.941583417,None,0,,reldom2_fmri_s004p,001,2024-12-11_16h21.03.501,Aud-B-Scan_AC,2022.2.5,None,
35,Second_Order,6.0,audwhat,stimulus/audwhat_stim/string cello_low-pitch_D_loud.wav,stimulus/audwhat_stim/percussion mallet_low-pitch_D_loud.wav,stimulus/audwhat_stim/percussion mallet_low-pitch_D_loud.wav,stimulus/audwhat_stim/percussion xylophone_high-pitch_Ftri_loud.wav,stimulus/audwhat_stim/match_blank.png,stimulus/audwhat_stim/match_box.png,stimulus/audwhat_stim/match_yes.png,stimulus/audwhat_stim/match_no.png,2.0,Match,Pitch,Category,2,5.125,0,5.125,0,5.125,0,5.125,0,0.75,0.75,0,0,0,0,0,0,0,0,1,0.5,1,2.125,1,0.5,1,2.125,0,,,,,0,46,46,46,,,,,,,,,532.941583417,538.0650712089996,532.941583417,532.941583417,532.941583417,532.941583417,533.3995962920003,534.3893065420002,533.4030068336667,,535.0250217090002,536.0223502089998,535.0365259166663,536.0299046670002,538.0650712089996,538.8940862920003,540.9881751669996,,538.8940862920003,538.8940862920003,544.072464292,538.8940862920003,538.8940862920003,538.8940862920003,538.8940862920003,539.3595414589995,540.4332211670003,539.3290498756667,,540.9881751669996,542.0212192089998,540.9580312506666,542.0212192089998,538.8940862920003,544.072464292,538.8940862920003,544.072464292,544.1149016670001,,538.8940862920003,2,1,1.0381895410000652,reldom2_fmri_s004p,001,2024-12-11_16h21.03.501,Aud-B-Scan_AC,2022.2.5,None,
36,Second_Order,6.0,audwhat,stimulus/audwhat_stim/string cello_low-pitch_Dtri_loud.wav,stimulus/audwhat_stim/percussion mallet_low-pitch_Dtri_loud.wav,stimulus/audwhat_stim/string viola_high-pitch_F_loud.wav,stimulus/audwhat_stim/percussion xylophone_high-pitch_F_loud.wav,stimulus/audwhat_stim/match_blank.png,stimulus/audwhat_stim/match_box.png,stimulus/audwhat_stim/match_yes.png,stimulus/audwhat_stim/match_no.png,1.0,Match,Pitch,Pitch,1,5.125,0,5.125,0,5.125,0,5.125,0,0.625,0.625,0,0,0,0,0,0,0,0,1,0.5,1,2.125,1,0.5,1,2.125,0,,,,,0,47,47,47,,,,,,,,,544.8930849590001,550.0094238340002,544.8930849590001,544.8930849590001,544.8930849590001,544.8930849590001,545.3479005419999,546.3459438750001,545.3604321256669,,546.9690094590001,547.9665367499997,546.9810225836661,547.974905042,550.0094238340002,550.7187993339999,552.8013196669995,,550.7187993339999,550.7187993339999,555.912255959,550.7187993339999,550.7187993339999,550.7187993339999,550.7187993339999,551.1795386250001,552.2447992920002,551.1495313756666,,552.8013196669995,553.8688394169999,552.771240083667,553.8227496670002,550.7187993339999,555.912255959,550.7187993339999,555.912255959,555.912255959,556.5650812090003,550.7187993339999,1,1,1.2052642500002548,reldom2_fmri_s004p,001,2024-12-11_16h21.03.501,Aud-B-Scan_AC,2022.2.5,None,
0,0.0,None,fixation,stimulus/audwhat_stim/blank_white.png,stimulus/audwhat_stim/blank_white.png,stimulus/audwhere_stim/blank_white.png,stimulus/audwhere_stim/blank_white.png,stimulus/audwhat_stim/blank_white.png,stimulus/audwhat_stim/blank_white.png,stimulus/audwhat_stim/blank_white.png,stimulus/audwhat_stim/blank_white.png,0.0,0.0,0.0,0.0,0,0.0,0,0.0,0,0.0,0,0.0,0,0.0,0.0,0,0,0,0,0,0,0,0,0,0.0,0,0.0,0,0.0,0,0.0,10,,,,,0,48,48,48,,,,,,,,,556.8402168340003,556.8402168340003,556.8402168340003,556.8402168340003,556.8402168340003,556.8402168340003,556.8402168340003,556.8402168340003,556.739154458333,556.8402168340003,556.8402168340003,556.8402168340003,556.739154458333,556.8402168340003,556.8402168340003,556.8402168340003,556.8402168340003,556.8402168340003,556.8402168340003,556.8402168340003,556.8402168340003,556.8402168340003,556.8402168340003,556.8402168340003,556.8402168340003,556.8402168340003,556.8402168340003,556.789154458333,556.8402168340003,556.8402168340003,556.8402168340003,556.789154458333,556.8402168340003,556.8402168340003,556.8402168340003,556.8402168340003,556.8402168340003,562.0311046669999,562.0311046669999,567.0916519589996,None,0,,reldom2_fmri_s004p,001,2024-12-11_16h21.03.501,Aud-B-Scan_AC,2022.2.5,None,
37,First_Order,7.0,audwhere,stimulus/audwhere_stim/dummy.wav,stimulus/audwhere_stim/dummy.wav,stimulus/audwhere_stim/right_toward_300h.wav,stimulus/audwhere_stim/left_toward_290h.wav,stimulus/audwhere_stim/blank_white.png,stimulus/audwhere_stim/direction_box.png,stimulus/audwhere_stim/direction_yes.png,stimulus/audwhere_stim/direction_no.png,None,Direction,None,Direction,1,0.0,0,5.125,0,5.125,0,5.125,0,0.0,0.625,0,0,0,0,0,0,0,0,0,0.0,0,0.0,1,0.5,1,2.125,0,,,,,0,49,49,49,,,,,,,,,567.0916519589996,567.0916519589996,567.0916519589996,567.0916519589996,567.0916519589996,567.0916519589996,567.0916519589996,567.0916519589996,567.0159433756663,567.0916519589996,567.0916519589996,567.0916519589996,567.0159433756663,567.0916519589996,567.0916519589996,567.0916519589996,569.1987900839999,573.208045375,567.0916519589996,567.0916519589996,572.2464528340001,567.0916519589996,567.0916519589996,567.0916519589996,567.0916519589996,567.5626250419996,568.6378011250004,567.5310998756665,,569.1987900839999,570.2334397919999,569.1677512086669,,567.0916519589996,572.2464528340001,567.0916519589996,572.2464528340001,572.2881427500001,572.9479202919997,567.0916519589996,1,1,2.668086374000268,reldom2_fmri_s004p,001,2024-12-11_16h21.03.501,Aud-B-Scan_AC,2022.2.5,None,
38,First_Order,7.0,audwhere,stimulus/audwhere_stim/dummy.wav,stimulus/audwhere_stim/dummy.wav,stimulus/audwhere_stim/right_toward_290h.wav,stimulus/audwhere_stim/right_away_270h.wav,stimulus/audwhere_stim/blank_white.png,stimulus/audwhere_stim/side_box.png,stimulus/audwhere_stim/side_yes.png,stimulus/audwhere_stim/side_no.png,None,Side,None,Side,1,0.0,0,5.125,0,5.125,0,5.125,0,0.0,0.625,0,0,0,0,0,0,0,0,0,0.0,0,0.0,1,0.5,1,2.125,0,,,,,0,50,50,50,,,,,,,,,573.208045375,573.208045375,573.208045375,573.208045375,573.208045375,573.208045375,573.208045375,573.208045375,573.1231193753334,573.208045375,573.208045375,573.208045375,573.1231193753334,573.208045375,573.208045375,573.208045375,575.3086055420004,,573.208045375,573.208045375,578.3897628339996,573.208045375,573.208045375,573.208045375,573.208045375,573.6752146249996,574.7495781249995,573.6439826256662,,575.3086055420004,576.3382031249998,575.2782191666663,,573.208045375,578.3897628339996,573.208045375,578.3897628339996,578.4310552089996,579.088568834,573.208045375,1,1,1.5058237079992978,reldom2_fmri_s004p,001,2024-12-11_16h21.03.501,Aud-B-Scan_AC,2022.2.5,None,
39,First_Order,7.0,audwhere,stimulus/audwhere_stim/dummy.wav,stimulus/audwhere_stim/dummy.wav,stimulus/audwhere_stim/left_away_290h.wav,stimulus/audwhere_stim/left_toward_290h.wav,stimulus/audwhere_stim/blank_white.png,stimulus/audwhere_stim/direction_box.png,stimulus/audwhere_stim/direction_yes.png,stimulus/audwhere_stim/direction_no.png,None,Direction,None,Side,2,0.0,0,5.125,0,5.125,0,5.125,0,0.0,0.625,0,0,0,0,0,0,0,0,0,0.0,0,0.0,1,0.5,1,2.125,0,,,,,0,51,51,51,,,,,,,,,579.3038946250003,579.3038946250003,579.3038946250003,579.3038946250003,579.3038946250003,579.3038946250003,579.3038946250003,579.3038946250003,579.2219021673333,579.3038946250003,579.3038946250003,579.3038946250003,579.2219021673333,579.3038946250003,579.3038946250003,579.3038946250003,581.3770622090001,,579.3038946250003,579.3038946250003,584.4819926670002,579.3038946250003,579.3038946250003,579.3038946250003,579.3038946250003,579.7734131249995,580.8115388749998,579.7425270836663,,581.3770622090001,582.4162057090002,581.3457950006666,,579.3038946250003,584.4819926670002,579.3038946250003,584.4819926670002,584.5235597919996,585.1858551250002,579.3038946250003,2,1,1.4522823749994132,reldom2_fmri_s004p,001,2024-12-11_16h21.03.501,Aud-B-Scan_AC,2022.2.5,None,
40,First_Order,7.0,audwhere,stimulus/audwhere_stim/dummy.wav,stimulus/audwhere_stim/dummy.wav,stimulus/audwhere_stim/right_away_280h.wav,stimulus/audwhere_stim/right_toward_290h.wav,stimulus/audwhere_stim/blank_white.png,stimulus/audwhere_stim/direction_box.png,stimulus/audwhere_stim/direction_yes.png,stimulus/audwhere_stim/direction_no.png,None,Direction,None,Side,2,0.0,0,5.125,0,5.125,0,5.125,0,0.0,0.625,0,0,0,0,0,0,0,0,0,0.0,0,0.0,1,0.5,1,2.125,0,,,,,0,52,52,52,,,,,,,,,585.4053199169998,585.4053199169998,585.4053199169998,585.4053199169998,585.4053199169998,585.4053199169998,585.4053199169998,585.4053199169998,585.3191884583335,585.4053199169998,585.4053199169998,585.4053199169998,585.3191884583335,585.4053199169998,585.4053199169998,585.4053199169998,587.4797989590002,,585.4053199169998,585.4053199169998,590.5899817920003,585.4053199169998,585.4053199169998,585.4053199169998,585.4053199169998,585.8767465420001,586.9147147500003,585.8460625416662,,587.4797989590002,588.5194470000001,587.4494659166664,,585.4053199169998,590.5899817920003,585.4053199169998,590.5899817920003,590.6310960839996,591.2919918749999,585.4053199169998,2,1,1.5450046240002848,reldom2_fmri_s004p,001,2024-12-11_16h21.03.501,Aud-B-Scan_AC,2022.2.5,None,
0,0.0,None,fixation,stimulus/audwhat_stim/blank_white.png,stimulus/audwhat_stim/blank_white.png,stimulus/audwhere_stim/blank_white.png,stimulus/audwhere_stim/blank_white.png,stimulus/audwhat_stim/blank_white.png,stimulus/audwhat_stim/blank_white.png,stimulus/audwhat_stim/blank_white.png,stimulus/audwhat_stim/blank_white.png,0.0,0.0,0.0,0.0,0,0.0,0,0.0,0,0.0,0,0.0,0,0.0,0.0,0,0,0,0,0,0,0,0,0,0.0,0,0.0,0,0.0,0,0.0,8,,,,,0,53,53,53,,,,,,,,,591.5304107090001,591.5304107090001,591.5304107090001,591.5304107090001,591.5304107090001,591.5304107090001,591.5304107090001,591.5304107090001,591.4253252083332,591.5304107090001,591.5304107090001,591.5304107090001,591.4253252083332,591.5304107090001,591.5304107090001,591.5304107090001,591.5304107090001,591.5304107090001,591.5304107090001,591.5304107090001,591.5304107090001,591.5304107090001,591.5304107090001,591.5304107090001,591.5304107090001,591.5304107090001,591.5304107090001,591.4753252083332,591.5304107090001,591.5304107090001,591.5304107090001,591.4753252083332,591.5304107090001,591.5304107090001,591.5304107090001,591.5304107090001,591.5304107090001,596.7181128340003,596.7181128340003,599.674895875,None,0,,reldom2_fmri_s004p,001,2024-12-11_16h21.03.501,Aud-B-Scan_AC,2022.2.5,None,
41,Second_Order,7.0,audwhere,stimulus/audwhere_stim/left_toward_300h.wav,stimulus/audwhere_stim/right_toward_280h.wav,stimulus/audwhere_stim/right_toward_270h.wav,stimulus/audwhere_stim/right_away_290h.wav,stimulus/audwhat_stim/match_blank.png,stimulus/audwhat_stim/match_box.png,stimulus/audwhat_stim/match_yes.png,stimulus/audwhat_stim/match_no.png,2.0,Match,Direction,Side,2,5.125,0,5.125,0,5.125,0,5.125,0,0.75,0.75,0,0,0,0,0,0,0,0,1,0.5,1,2.125,1,0.5,1,2.125,0,,,,,0,54,54,54,,,,,,,,,599.674895875,604.7978749170002,599.674895875,599.674895875,599.674895875,599.674895875,600.1235924999996,601.1226222499995,600.1363126666663,601.1304574999999,601.7573961249996,602.7510424999996,601.7608383756667,602.7510424999996,604.7978749170002,605.6308895420002,607.7247457500002,,605.6308895420002,605.6308895420002,610.8014238339997,605.6308895420002,605.6308895420002,605.6308895420002,605.6308895420002,606.0950089590001,607.1678578750002,606.0644789586665,,607.7247457500002,608.80051925,607.6945670416669,,605.6308895420002,610.8014238339997,605.6308895420002,610.8014238339997,610.8430020840001,,605.6308895420002,2,1,0.8951942490002693,reldom2_fmri_s004p,001,2024-12-11_16h21.03.501,Aud-B-Scan_AC,2022.2.5,None,
42,Second_Order,7.0,audwhere,stimulus/audwhere_stim/right_toward_290h.wav,stimulus/audwhere_stim/left_toward_270h.wav,stimulus/audwhere_stim/left_toward_290h.wav,stimulus/audwhere_stim/left_away_280h.wav,stimulus/audwhat_stim/match_blank.png,stimulus/audwhat_stim/match_box.png,stimulus/audwhat_stim/match_yes.png,stimulus/audwhat_stim/match_no.png,2.0,Match,Direction,Side,2,5.125,0,5.125,0,5.125,0,5.125,0,0.625,0.625,0,0,0,0,0,0,0,0,1,0.5,1,2.125,1,0.5,1,2.125,0,,,,,0,55,55,55,,,,,,,,,611.6154469999997,616.7300344170003,611.6154469999997,611.6154469999997,611.6154469999997,611.6154469999997,612.0684370839995,613.067007917,612.0809028336669,613.075316084,613.6898592920002,614.6869732089995,613.7016336256663,614.6950889590003,616.7300344170003,617.4378772499999,619.52183775,,617.4378772499999,617.4378772499999,622.6318160839996,617.4378772499999,617.4378772499999,617.4378772499999,617.4378772499999,617.8997635419996,618.9671539589995,617.8706779166666,,619.52183775,620.5884226249996,619.4916872086667,,617.4378772499999,622.6318160839996,617.4378772499999,622.6318160839996,622.6318160839996,623.2831811250003,617.4378772499999,2,1,1.2244927490000919,reldom2_fmri_s004p,001,2024-12-11_16h21.03.501,Aud-B-Scan_AC,2022.2.5,None,
0,0.0,None,fixation,stimulus/audwhat_stim/blank_white.png,stimulus/audwhat_stim/blank_white.png,stimulus/audwhere_stim/blank_white.png,stimulus/audwhere_stim/blank_white.png,stimulus/audwhat_stim/blank_white.png,stimulus/audwhat_stim/blank_white.png,stimulus/audwhat_stim/blank_white.png,stimulus/audwhat_stim/blank_white.png,0.0,0.0,0.0,0.0,0,0.0,0,0.0,0,0.0,0,0.0,0,0.0,0.0,0,0,0,0,0,0,0,0,0,0.0,0,0.0,0,0.0,0,0.0,10,,,,,0,56,56,56,,,,,,,,,623.5598697089995,623.5598697089995,623.5598697089995,623.5598697089995,623.5598697089995,623.5598697089995,623.5598697089995,623.5598697089995,623.4576120423332,623.5598697089995,623.5598697089995,623.5598697089995,623.4576120423332,623.5598697089995,623.5598697089995,623.5598697089995,623.5598697089995,623.5598697089995,623.5598697089995,623.5598697089995,623.5598697089995,623.5598697089995,623.5598697089995,623.5598697089995,623.5598697089995,623.5598697089995,623.5598697089995,623.5076120423331,623.5598697089995,623.5598697089995,623.5598697089995,623.5076120423331,623.5598697089995,623.5598697089995,623.5598697089995,623.5598697089995,623.5598697089995,628.7518542089997,628.7518542089997,633.8141452919995,None,0,,reldom2_fmri_s004p,001,2024-12-11_16h21.03.501,Aud-B-Scan_AC,2022.2.5,None,
43,First_Order,8.0,audwhere,stimulus/audwhere_stim/dummy.wav,stimulus/audwhere_stim/dummy.wav,stimulus/audwhere_stim/right_toward_270h.wav,stimulus/audwhere_stim/left_toward_300h.wav,stimulus/audwhere_stim/blank_white.png,stimulus/audwhere_stim/side_box.png,stimulus/audwhere_stim/side_yes.png,stimulus/audwhere_stim/side_no.png,None,Side,None,Direction,2,0.0,0,5.125,0,5.125,0,5.125,0,0.0,0.625,0,0,0,0,0,0,0,0,0,0.0,0,0.0,1,0.5,1,2.125,0,,,,,0,57,57,57,,,,,,,,,633.8141452919995,633.8141452919995,633.8141452919995,633.8141452919995,633.8141452919995,633.8141452919995,633.8141452919995,633.8141452919995,633.7415263336662,633.8141452919995,633.8141452919995,633.8141452919995,633.7415263336662,633.8141452919995,633.8141452919995,633.8141452919995,635.9125435000001,,633.8141452919995,633.8141452919995,638.9950004589996,633.8141452919995,633.8141452919995,633.8141452919995,633.8141452919995,634.2831529589998,635.3537573749995,634.2535306256666,,635.9125435000001,636.9437148339998,635.8827669586669,,633.8141452919995,638.9950004589996,633.8141452919995,638.9950004589996,639.0359252920002,639.6919991669997,633.8141452919995,2,1,1.3581017490005252,reldom2_fmri_s004p,001,2024-12-11_16h21.03.501,Aud-B-Scan_AC,2022.2.5,None,
44,First_Order,8.0,audwhere,stimulus/audwhere_stim/dummy.wav,stimulus/audwhere_stim/dummy.wav,stimulus/audwhere_stim/right_toward_270h.wav,stimulus/audwhere_stim/left_toward_280h.wav,stimulus/audwhere_stim/blank_white.png,stimulus/audwhere_stim/side_box.png,stimulus/audwhere_stim/side_yes.png,stimulus/audwhere_stim/side_no.png,None,Side,None,Direction,2,0.0,0,5.125,0,5.125,0,5.125,0,0.0,0.625,0,0,0,0,0,0,0,0,0,0.0,0,0.0,1,0.5,1,2.125,0,,,,,0,58,58,58,,,,,,,,,639.9083288750003,639.9083288750003,639.9083288750003,639.9083288750003,639.9083288750003,639.9083288750003,639.9083288750003,639.9083288750003,639.825332500333,639.9083288750003,639.9083288750003,639.9083288750003,639.825332500333,639.9083288750003,639.9083288750003,639.9083288750003,642.0101244169996,,639.9083288750003,639.9083288750003,645.099475167,639.9083288750003,639.9083288750003,639.9083288750003,639.9083288750003,640.3773329170003,641.4509370419996,640.347565208667,,642.0101244169996,643.0431130419997,641.979894083667,,639.9083288750003,645.099475167,639.9083288750003,645.099475167,645.099475167,645.7558730420001,639.9083288750003,2,1,2.693513331999384,reldom2_fmri_s004p,001,2024-12-11_16h21.03.501,Aud-B-Scan_AC,2022.2.5,None,
45,First_Order,8.0,audwhere,stimulus/audwhere_stim/dummy.wav,stimulus/audwhere_stim/dummy.wav,stimulus/audwhere_stim/right_toward_270h.wav,stimulus/audwhere_stim/left_toward_290h.wav,stimulus/audwhere_stim/blank_white.png,stimulus/audwhere_stim/direction_box.png,stimulus/audwhere_stim/direction_yes.png,stimulus/audwhere_stim/direction_no.png,None,Direction,None,Direction,1,0.0,0,5.125,0,5.125,0,5.125,0,0.0,0.625,0,0,0,0,0,0,0,0,0,0.0,0,0.0,1,0.5,1,2.125,0,,,,,0,59,59,59,,,,,,,,,646.0120277499996,646.0120277499996,646.0120277499996,646.0120277499996,646.0120277499996,646.0120277499996,646.0120277499996,646.0120277499996,645.9303706673332,646.0120277499996,646.0120277499996,646.0120277499996,645.9303706673332,646.0120277499996,646.0120277499996,646.0120277499996,648.0855244170002,,646.0120277499996,646.0120277499996,651.1951315419997,646.0120277499996,646.0120277499996,646.0120277499996,646.0120277499996,646.4841390420002,647.5206187919998,646.4539378336665,,648.0855244170002,649.124813209,648.0545879586668,,646.0120277499996,651.1951315419997,646.0120277499996,651.1951315419997,651.2367001669995,651.8973307499996,646.0120277499996,1,1,1.934697124000195,reldom2_fmri_s004p,001,2024-12-11_16h21.03.501,Aud-B-Scan_AC,2022.2.5,None,
46,First_Order,8.0,audwhere,stimulus/audwhere_stim/dummy.wav,stimulus/audwhere_stim/dummy.wav,stimulus/audwhere_stim/left_away_300h.wav,stimulus/audwhere_stim/left_toward_300h.wav,stimulus/audwhere_stim/blank_white.png,stimulus/audwhere_stim/side_box.png,stimulus/audwhere_stim/side_yes.png,stimulus/audwhere_stim/side_no.png,None,Side,None,Side,1,0.0,0,5.125,0,5.125,0,5.125,0,0.0,0.625,0,0,0,0,0,0,0,0,0,0.0,0,0.0,1,0.5,1,2.125,0,,,,,0,60,60,60,,,,,,,,,652.1132467920002,652.1132467920002,652.1132467920002,652.1132467920002,652.1132467920002,652.1132467920002,652.1132467920002,652.1132467920002,652.0306640833329,652.1132467920002,652.1132467920002,652.1132467920002,652.0306640833329,652.1132467920002,652.1132467920002,652.1132467920002,654.2237467499995,658.2550789169995,652.1132467920002,652.1132467920002,657.272401959,652.1132467920002,652.1132467920002,652.1132467920002,652.1132467920002,652.5818048750002,653.6134249169995,652.5515905006666,,654.2237467499995,655.2556239589999,654.1930337506662,,652.1132467920002,657.272401959,652.1132467920002,657.272401959,657.3135836249999,657.974331334,652.1132467920002,1,1,1.7088857910002844,reldom2_fmri_s004p,001,2024-12-11_16h21.03.501,Aud-B-Scan_AC,2022.2.5,None,
0,0.0,None,fixation,stimulus/audwhat_stim/blank_white.png,stimulus/audwhat_stim/blank_white.png,stimulus/audwhere_stim/blank_white.png,stimulus/audwhere_stim/blank_white.png,stimulus/audwhat_stim/blank_white.png,stimulus/audwhat_stim/blank_white.png,stimulus/audwhat_stim/blank_white.png,stimulus/audwhat_stim/blank_white.png,0.0,0.0,0.0,0.0,0,0.0,0,0.0,0,0.0,0,0.0,0,0.0,0.0,0,0,0,0,0,0,0,0,0,0.0,0,0.0,0,0.0,0,0.0,9,,,,,0,61,61,61,,,,,,,,,658.2550789169995,658.2550789169995,658.2550789169995,658.2550789169995,658.2550789169995,658.2550789169995,658.2550789169995,658.2550789169995,658.1490766673329,658.2550789169995,658.2550789169995,658.2550789169995,658.1490766673329,658.2550789169995,658.2550789169995,658.2550789169995,658.2550789169995,658.2550789169995,658.2550789169995,658.2550789169995,658.2550789169995,658.2550789169995,658.2550789169995,658.2550789169995,658.2550789169995,658.2550789169995,658.2550789169995,658.1990766673329,658.2550789169995,658.2550789169995,658.2550789169995,658.1990766673329,658.2550789169995,658.2550789169995,658.2550789169995,658.2550789169995,658.2550789169995,663.4389802499995,663.4389802499995,667.4138544169996,None,0,,reldom2_fmri_s004p,001,2024-12-11_16h21.03.501,Aud-B-Scan_AC,2022.2.5,None,
47,Second_Order,8.0,audwhere,stimulus/audwhere_stim/right_away_300h.wav,stimulus/audwhere_stim/right_toward_270h.wav,stimulus/audwhere_stim/left_away_280h.wav,stimulus/audwhere_stim/left_toward_270h.wav,stimulus/audwhat_stim/match_blank.png,stimulus/audwhat_stim/match_box.png,stimulus/audwhat_stim/match_yes.png,stimulus/audwhat_stim/match_no.png,1.0,Match,Side,Side,1,5.125,0,5.125,0,5.125,0,5.125,0,0.75,0.75,0,0,0,0,0,0,0,0,1,0.5,1,2.125,1,0.5,1,2.125,0,,,,,0,62,62,62,,,,,,,,,667.4138544169996,672.5375682090003,667.4138544169996,667.4138544169996,667.4138544169996,667.4138544169996,667.8639875000003,668.8622437500003,667.8765831256667,668.8703243340001,669.4969542920003,670.4858255839995,669.5007143756663,670.4986034170001,672.5375682090003,673.3700990419998,675.4659809170003,,673.3700990419998,673.3700990419998,678.5551113750003,673.3700990419998,673.3700990419998,673.3700990419998,673.3700990419998,673.8343741670001,674.9068231670003,673.8042176256665,,675.4659809170003,676.4987826669999,675.4363725416667,,673.3700990419998,678.5551113750003,673.3700990419998,678.5551113750003,678.5551113750003,,673.3700990419998,1,1,2.0343514999995023,reldom2_fmri_s004p,001,2024-12-11_16h21.03.501,Aud-B-Scan_AC,2022.2.5,None,
48,Second_Order,8.0,audwhere,stimulus/audwhere_stim/right_toward_270h.wav,stimulus/audwhere_stim/right_away_270h.wav,stimulus/audwhere_stim/left_away_280h.wav,stimulus/audwhere_stim/left_toward_290h.wav,stimulus/audwhat_stim/match_blank.png,stimulus/audwhat_stim/match_box.png,stimulus/audwhat_stim/match_yes.png,stimulus/audwhat_stim/match_no.png,1.0,Match,Side,Side,1,5.125,0,5.125,0,5.125,0,5.125,0,0.625,0.625,0,0,0,0,0,0,0,0,1,0.5,1,2.125,1,0.5,1,2.125,0,,,,,0,63,63,63,,,,,,,,,679.3707351669996,684.4857735419996,679.3707351669996,679.3707351669996,679.3707351669996,679.3707351669996,679.8251976670003,680.8229087919995,679.8377282506669,680.8307882920003,681.4460639590002,682.4432713339997,681.4580683756665,682.4507734590002,684.4857735419996,685.1952810420003,687.2856149590002,691.3319225419996,685.1952810420003,685.1952810420003,690.3604958339997,685.1952810420003,685.1952810420003,685.1952810420003,685.1952810420003,685.6574572920003,686.7280988340003,685.6276310416667,,687.2856149590002,688.3588697089995,687.2553288336665,,685.1952810420003,690.3604958339997,685.1952810420003,690.3604958339997,690.4008007090001,691.0557757499996,685.1952810420003,1,1,1.663733374000003,reldom2_fmri_s004p,001,2024-12-11_16h21.03.501,Aud-B-Scan_AC,2022.2.5,None,
0,0.0,None,fixation,stimulus/audwhat_stim/blank_white.png,stimulus/audwhat_stim/blank_white.png,stimulus/audwhere_stim/blank_white.png,stimulus/audwhere_stim/blank_white.png,stimulus/audwhat_stim/blank_white.png,stimulus/audwhat_stim/blank_white.png,stimulus/audwhat_stim/blank_white.png,stimulus/audwhat_stim/blank_white.png,0.0,0.0,0.0,0.0,0,0.0,0,0.0,0,0.0,0,0.0,0,0.0,0.0,0,0,0,0,0,0,0,0,0,0.0,0,0.0,0,0.0,0,0.0,16,,,,,0,64,64,64,,,,,,,,,691.3319225419996,691.3319225419996,691.3319225419996,691.3319225419996,691.3319225419996,691.3319225419996,691.3319225419996,691.3319225419996,691.2306307503328,691.3319225419996,691.3319225419996,691.3319225419996,691.2306307503328,691.3319225419996,691.3319225419996,691.3319225419996,691.3319225419996,691.3319225419996,691.3319225419996,691.3319225419996,691.3319225419996,691.3319225419996,691.3319225419996,691.3319225419996,691.3319225419996,691.3319225419996,691.3319225419996,691.2806307503328,691.3319225419996,691.3319225419996,691.3319225419996,691.2806307503328,691.3319225419996,691.3319225419996,691.3319225419996,691.3319225419996,691.3319225419996,696.526809292,696.526809292,707.4672936669999,None,0,,reldom2_fmri_s004p,001,2024-12-11_16h21.03.501,Aud-B-Scan_AC,2022.2.5,None,
