Trial,Order,Block,Type,Stimuli_File1,Stimuli_File2,Stimuli_File3,Stimuli_File4,Cue_File1,Cue_File2,Response_File_Yes,Response_File_No,Match,Cue_Dimension,Pair1_Dimension,Pair2_Dimension,Key,Cue1_Duration,Cue1_Onset,Cue2_Duration,Cue2_Onset,ResponseYes_Duration,ResponseYes_Onset,ResponseNo_Duration,ResponseNo_Onset,ITI_Within,ITI_Between,Image1_Duration,Image1_Onset,Image2_Duration,Image2_Onset,Image3_Duration,Image3_Onset,Image4_Duration,Image4_Onset,Sound1_Duration,Sound1_Onset,Sound2_Duration,Sound2_Onset,Sound3_Duration,Sound3_Onset,Sound4_Duration,Sound4_Onset,Fixation_Duration,trials_2.thisRepN,trials_2.thisTrialN,trials_2.thisN,trials_2.thisIndex,trials.thisRepN,trials.thisTrialN,trials.thisN,trials.thisIndex,text_start.started,key_resp_start.started,key_resp_start.keys,key_resp_start.rt,text2.started,key_resp_2.started,key_resp_2.keys,key_resp_2.rt,cue_file1.started,cue_file1.stopped,image_1.started,image_1.stopped,image_2.started,image_2.stopped,sound_icon1.started,sound_icon1.stopped,sound_1.started,sound_1.stopped,sound_icon2.started,sound_icon2.stopped,sound_2.started,sound_2.stopped,image_blank_1.started,image_blank_1.stopped,key_press.started,key_press.stopped,fixation_text.started,cue_file2.started,cue_file2.stopped,image_3.started,image_3.stopped,image_4.started,image_4.stopped,sound_icon3.started,sound_icon3.stopped,sound_3.started,sound_3.stopped,sound_icon4.started,sound_icon4.stopped,sound_4.started,sound_4.stopped,response_yes.started,response_yes.stopped,response_no.started,response_no.stopped,iti_blank.started,iti_blank.stopped,fixation_text.stopped,key_press.keys,key_press.corr,key_press.rt,participant,session,date,expName,psychopyVersion,frameRate,
,,,,,,,,,,,,,,,,,,,,,,,,,,,,,,,,,,,,,,,,,,,,,,,,,,,,7.511839457998576,7.511839457998576,2,2.315727124998375,,,,,,,,,,,,,,,,,,,,,,,,,,,,,,,,,,,,,,,,,,,,,,,,reldom2_s034,001,2025-03-13_15h26.35.522,Aud-A-Scan_AC,2022.2.5,None,
,,,,,,,,,,,,,,,,,,,,,,,,,,,,,,,,,,,,,,,,,,,,0,0,0,0,,,,,,,,,9.87102945800143,9.87102945800143,5,15.12707245799902,,,,,,,,,,,,,,,,,,,,,,,,,,,,,,,,,,,,,,,,,,,,reldom2_s034,001,2025-03-13_15h26.35.522,Aud-A-Scan_AC,2022.2.5,None,
,,,,,,,,,,,,,,,,,,,,,,,,,,,,,,,,,,,,,,,,,,,,1,0,1,0,,,,,,,,,25.01899675000095,25.01899675000095,5,1.9814199169995845,,,,,,,,,,,,,,,,,,,,,,,,,,,,,,,,,,,,,,,,,,,,reldom2_s034,001,2025-03-13_15h26.35.522,Aud-A-Scan_AC,2022.2.5,None,
,,,,,,,,,,,,,,,,,,,,,,,,,,,,,,,,,,,,,,,,,,,,2,0,2,0,,,,,,,,,27.017984124999202,27.017984124999202,5,1.9812111669998558,,,,,,,,,,,,,,,,,,,,,,,,,,,,,,,,,,,,,,,,,,,,reldom2_s034,001,2025-03-13_15h26.35.522,Aud-A-Scan_AC,2022.2.5,None,
,,,,,,,,,,,,,,,,,,,,,,,,,,,,,,,,,,,,,,,,,,,,3,0,3,0,,,,,,,,,29.011191707999387,29.011191707999387,5,1.9867465419993096,,,,,,,,,,,,,,,,,,,,,,,,,,,,,,,,,,,,,,,,,,,,reldom2_s034,001,2025-03-13_15h26.35.522,Aud-A-Scan_AC,2022.2.5,None,
0,0.0,None,fixation,stimulus/audwhere_stim/blank_white.png,stimulus/audwhere_stim/blank_white.png,stimulus/audwhat_stim/blank_white.png,stimulus/audwhat_stim/blank_white.png,stimulus/audwhere_stim/blank_white.png,stimulus/audwhere_stim/blank_white.png,stimulus/audwhere_stim/blank_white.png,stimulus/audwhere_stim/blank_white.png,0.0,0.0,0.0,0.0,0,0.0,0,0.0,0,0.0,0,0.0,0,0.0,0.0,0,0,0,0,0,0,0,0,0,0.0,0,0.0,0,0.0,0,0.0,16,,,,,0,0,0,0,,,,,,,,,31.22481775000051,31.22481775000051,31.22481775000051,31.22481775000051,31.22481775000051,31.22481775000051,31.22481775000051,31.22481775000051,31.123473541667288,31.22481775000051,31.22481775000051,31.22481775000051,31.123473541667288,31.22481775000051,31.22481775000051,31.22481775000051,31.22481775000051,31.22481775000051,31.22481775000051,31.22481775000051,31.22481775000051,31.22481775000051,31.22481775000051,31.22481775000051,31.22481775000051,31.22481775000051,31.22481775000051,31.173473541667285,31.22481775000051,31.22481775000051,31.22481775000051,31.173473541667285,31.22481775000051,31.22481775000051,31.22481775000051,31.22481775000051,31.22481775000051,36.440057208001235,36.440057208001235,47.444994000001316,None,0,,reldom2_s034,001,2025-03-13_15h26.35.522,Aud-A-Scan_AC,2022.2.5,None,
1,First_Order,1.0,audwhere,stimulus/audwhere_stim/dummy.wav,stimulus/audwhere_stim/dummy.wav,stimulus/audwhere_stim/left_away_280h.wav,stimulus/audwhere_stim/right_away_290h.wav,stimulus/audwhere_stim/blank_white.png,stimulus/audwhere_stim/direction_box.png,stimulus/audwhere_stim/direction_yes.png,stimulus/audwhere_stim/direction_no.png,None,Direction,None,Direction,1,0.0,0,5.125,0,5.125,0,5.125,0,0.0,0.625,0,0,0,0,0,0,0,0,0,0.0,0,0.0,1,0.5,1,2.125,0,,,,,0,1,1,1,,,,,,,,,47.444994000001316,47.444994000001316,47.444994000001316,47.444994000001316,47.444994000001316,47.444994000001316,47.444994000001316,47.444994000001316,47.379459750000386,47.444994000001316,47.444994000001316,47.444994000001316,47.379459750000386,47.444994000001316,47.444994000001316,47.444994000001316,49.53587087499909,53.55699137500051,47.444994000001316,47.444994000001316,52.60968850000063,47.444994000001316,47.444994000001316,47.444994000001316,47.444994000001316,47.93424537499959,49.00302633300089,47.90639691666753,,49.53587087499909,50.60661541599984,49.507995624666606,,47.444994000001316,52.60968850000063,47.444994000001316,52.60968850000063,52.648945458000526,53.314951166001265,47.444994000001316,1,1,1.8655043759972614,reldom2_s034,001,2025-03-13_15h26.35.522,Aud-A-Scan_AC,2022.2.5,None,
2,First_Order,1.0,audwhere,stimulus/audwhere_stim/dummy.wav,stimulus/audwhere_stim/dummy.wav,stimulus/audwhere_stim/left_away_270h.wav,stimulus/audwhere_stim/left_toward_270h.wav,stimulus/audwhere_stim/blank_white.png,stimulus/audwhere_stim/direction_box.png,stimulus/audwhere_stim/direction_yes.png,stimulus/audwhere_stim/direction_no.png,None,Direction,None,Side,2,0.0,0,5.125,0,5.125,0,5.125,0,0.0,0.625,0,0,0,0,0,0,0,0,0,0.0,0,0.0,1,0.5,1,2.125,0,,,,,0,2,2,2,,,,,,,,,53.55699137500051,53.55699137500051,53.55699137500051,53.55699137500051,53.55699137500051,53.55699137500051,53.55699137500051,53.55699137500051,53.487386958333566,53.55699137500051,53.55699137500051,53.55699137500051,53.487386958333566,53.55699137500051,53.55699137500051,53.55699137500051,55.64589458300179,59.67591054100194,53.55699137500051,53.55699137500051,58.726922791000106,53.55699137500051,53.55699137500051,53.55699137500051,53.55699137500051,54.03986900000018,55.06701583299946,54.01190829166832,,55.64589458300179,56.67316004100212,55.61770658266711,,53.55699137500051,58.726922791000106,53.55699137500051,58.726922791000106,58.76631158300006,59.43291358300121,53.55699137500051,2,1,1.2879157499992289,reldom2_s034,001,2025-03-13_15h26.35.522,Aud-A-Scan_AC,2022.2.5,None,
3,First_Order,1.0,audwhere,stimulus/audwhere_stim/dummy.wav,stimulus/audwhere_stim/dummy.wav,stimulus/audwhere_stim/left_toward_300h.wav,stimulus/audwhere_stim/left_away_280h.wav,stimulus/audwhere_stim/blank_white.png,stimulus/audwhere_stim/direction_box.png,stimulus/audwhere_stim/direction_yes.png,stimulus/audwhere_stim/direction_no.png,None,Direction,None,Side,2,0.0,0,5.125,0,5.125,0,5.125,0,0.0,0.625,0,0,0,0,0,0,0,0,0,0.0,0,0.0,1,0.5,1,2.125,0,,,,,0,3,3,3,,,,,,,,,59.67591054100194,59.67591054100194,59.67591054100194,59.67591054100194,59.67591054100194,59.67591054100194,59.67591054100194,59.67591054100194,59.605800249332,59.67591054100194,59.67591054100194,59.67591054100194,59.605800249332,59.67591054100194,59.67591054100194,59.67591054100194,61.77820808300021,,59.67591054100194,59.67591054100194,64.82464762499876,59.67591054100194,59.67591054100194,59.67591054100194,59.67591054100194,60.16748487500081,61.197523082999396,60.13915458266662,,61.77820808300021,62.809812291001435,61.74950541666864,,59.67591054100194,64.82464762499876,59.67591054100194,64.82464762499876,64.90318062499864,65.57315229099913,59.67591054100194,2,1,3.493939791998855,reldom2_s034,001,2025-03-13_15h26.35.522,Aud-A-Scan_AC,2022.2.5,None,
4,First_Order,1.0,audwhere,stimulus/audwhere_stim/dummy.wav,stimulus/audwhere_stim/dummy.wav,stimulus/audwhere_stim/left_away_270h.wav,stimulus/audwhere_stim/left_toward_290h.wav,stimulus/audwhere_stim/blank_white.png,stimulus/audwhere_stim/side_box.png,stimulus/audwhere_stim/side_yes.png,stimulus/audwhere_stim/side_no.png,None,Side,None,Side,1,0.0,0,5.125,0,5.125,0,5.125,0,0.0,0.625,0,0,0,0,0,0,0,0,0,0.0,0,0.0,1,0.5,1,2.125,0,,,,,0,4,4,4,,,,,,,,,65.77773125000022,65.77773125000022,65.77773125000022,65.77773125000022,65.77773125000022,65.77773125000022,65.77773125000022,65.77773125000022,65.70648562433246,65.77773125000022,65.77773125000022,65.77773125000022,65.70648562433246,65.77773125000022,65.77773125000022,65.77773125000022,67.88051266600087,,65.77773125000022,65.77773125000022,70.96658645800198,65.77773125000022,65.77773125000022,65.77773125000022,65.77773125000022,66.22634141600065,67.2554327910002,66.19825058266748,,67.88051266600087,68.91189420799856,67.85232833266879,,65.77773125000022,70.96658645800198,65.77773125000022,70.96658645800198,71.00735783300115,71.67567316599889,65.77773125000022,2,0,0.8242891670015524,reldom2_s034,001,2025-03-13_15h26.35.522,Aud-A-Scan_AC,2022.2.5,None,
0,0.0,None,fixation,stimulus/audwhere_stim/blank_white.png,stimulus/audwhere_stim/blank_white.png,stimulus/audwhat_stim/blank_white.png,stimulus/audwhat_stim/blank_white.png,stimulus/audwhere_stim/blank_white.png,stimulus/audwhere_stim/blank_white.png,stimulus/audwhere_stim/blank_white.png,stimulus/audwhere_stim/blank_white.png,0.0,0.0,0.0,0.0,0,0.0,0,0.0,0,0.0,0,0.0,0,0.0,0.0,0,0,0,0,0,0,0,0,0,0.0,0,0.0,0,0.0,0,0.0,9,,,,,0,5,5,5,,,,,,,,,71.89832812500026,71.89832812500026,71.89832812500026,71.89832812500026,71.89832812500026,71.89832812500026,71.89832812500026,71.89832812500026,71.80900649933221,71.89832812500026,71.89832812500026,71.89832812500026,71.80900649933221,71.89832812500026,71.89832812500026,71.89832812500026,71.89832812500026,71.89832812500026,71.89832812500026,71.89832812500026,71.89832812500026,71.89832812500026,71.89832812500026,71.89832812500026,71.89832812500026,71.89832812500026,71.89832812500026,71.85900649933222,71.89832812500026,71.89832812500026,71.89832812500026,71.85900649933222,71.89832812500026,71.89832812500026,71.89832812500026,71.89832812500026,71.89832812500026,77.0910859579999,77.0910859579999,81.04408445800073,None,0,,reldom2_s034,001,2025-03-13_15h26.35.522,Aud-A-Scan_AC,2022.2.5,None,
5,Second_Order,1.0,audwhere,stimulus/audwhere_stim/left_away_290h.wav,stimulus/audwhere_stim/right_away_300h.wav,stimulus/audwhere_stim/right_toward_290h.wav,stimulus/audwhere_stim/left_toward_300h.wav,stimulus/audwhere_stim/match_blank.png,stimulus/audwhere_stim/match_box.png,stimulus/audwhere_stim/match_yes.png,stimulus/audwhere_stim/match_no.png,1.0,Match,Direction,Direction,1,5.125,0,5.125,0,5.125,0,5.125,0,0.75,0.75,0,0,0,0,0,0,0,0,1,0.5,1,2.125,1,0.5,1,2.125,0,,,,,0,6,6,6,,,,,,,,,81.04408445800073,86.16767833300037,81.04408445800073,81.04408445800073,81.04408445800073,81.04408445800073,81.49283429099887,82.48055749999912,81.50624104166879,,83.12699404100204,84.11665033299869,83.13039399966534,84.11665033299869,86.16767833300037,87.01908495799944,89.07172145799996,,87.01908495799944,87.01908495799944,92.20449862500027,87.01908495799944,87.01908495799944,87.01908495799944,87.01908495799944,87.46424516600018,88.53485820800051,87.43634016666716,,89.07172145799996,90.10203479100164,89.04302879166814,,87.01908495799944,92.20449862500027,87.01908495799944,92.20449862500027,92.20449862500027,,87.01908495799944,1,1,1.4935663339965686,reldom2_s034,001,2025-03-13_15h26.35.522,Aud-A-Scan_AC,2022.2.5,None,
6,Second_Order,1.0,audwhere,stimulus/audwhere_stim/left_away_280h.wav,stimulus/audwhere_stim/right_away_280h.wav,stimulus/audwhere_stim/left_away_300h.wav,stimulus/audwhere_stim/left_toward_280h.wav,stimulus/audwhere_stim/match_blank.png,stimulus/audwhere_stim/match_box.png,stimulus/audwhere_stim/match_yes.png,stimulus/audwhere_stim/match_no.png,2.0,Match,Direction,Side,2,5.125,0,5.125,0,5.125,0,5.125,0,0.625,0.625,0,0,0,0,0,0,0,0,1,0.5,1,2.125,1,0.5,1,2.125,0,,,,,0,7,7,7,,,,,,,,,92.98546208300104,98.09956437499932,92.98546208300104,92.98546208300104,92.98546208300104,92.98546208300104,93.43669120800041,94.4241633749989,93.45072295766683,,95.07149083300101,96.06112487499922,95.07524179166673,,98.09956437499932,98.82942000000185,100.8757778750005,104.92972870800077,98.82942000000185,98.82942000000185,104.00077691600018,98.82942000000185,98.82942000000185,98.82942000000185,98.82942000000185,99.2746207909986,100.34171587500168,99.24648574966729,,100.8757778750005,101.90421083299952,100.84778695766751,,98.82942000000185,104.00077691600018,98.82942000000185,104.00077691600018,104.00077691600018,104.66699241600145,98.82942000000185,2,1,2.3719233330011775,reldom2_s034,001,2025-03-13_15h26.35.522,Aud-A-Scan_AC,2022.2.5,None,
0,0.0,None,fixation,stimulus/audwhere_stim/blank_white.png,stimulus/audwhere_stim/blank_white.png,stimulus/audwhat_stim/blank_white.png,stimulus/audwhat_stim/blank_white.png,stimulus/audwhere_stim/blank_white.png,stimulus/audwhere_stim/blank_white.png,stimulus/audwhere_stim/blank_white.png,stimulus/audwhere_stim/blank_white.png,0.0,0.0,0.0,0.0,0,0.0,0,0.0,0,0.0,0,0.0,0,0.0,0.0,0,0,0,0,0,0,0,0,0,0.0,0,0.0,0,0.0,0,0.0,10,,,,,0,8,8,8,,,,,,,,,104.92972870800077,104.92972870800077,104.92972870800077,104.92972870800077,104.92972870800077,104.92972870800077,104.92972870800077,104.92972870800077,104.8393767083345,104.92972870800077,104.92972870800077,104.92972870800077,104.8393767083345,104.92972870800077,104.92972870800077,104.92972870800077,104.92972870800077,104.92972870800077,104.92972870800077,104.92972870800077,104.92972870800077,104.92972870800077,104.92972870800077,104.92972870800077,104.92972870800077,104.92972870800077,104.92972870800077,104.88937670833451,104.92972870800077,104.92972870800077,104.92972870800077,104.88937670833451,104.92972870800077,104.92972870800077,104.92972870800077,104.92972870800077,104.92972870800077,110.15398508300132,110.15398508300132,115.16985558300075,None,0,,reldom2_s034,001,2025-03-13_15h26.35.522,Aud-A-Scan_AC,2022.2.5,None,
7,First_Order,2.0,audwhere,stimulus/audwhere_stim/dummy.wav,stimulus/audwhere_stim/dummy.wav,stimulus/audwhere_stim/left_away_300h.wav,stimulus/audwhere_stim/right_away_300h.wav,stimulus/audwhere_stim/blank_white.png,stimulus/audwhere_stim/side_box.png,stimulus/audwhere_stim/side_yes.png,stimulus/audwhere_stim/side_no.png,None,Side,None,Direction,2,0.0,0,5.125,0,5.125,0,5.125,0,0.0,0.625,0,0,0,0,0,0,0,0,0,0.0,0,0.0,1,0.5,1,2.125,0,,,,,0,9,9,9,,,,,,,,,115.16985558300075,115.16985558300075,115.16985558300075,115.16985558300075,115.16985558300075,115.16985558300075,115.16985558300075,115.16985558300075,115.0874899579998,115.16985558300075,115.16985558300075,115.16985558300075,115.0874899579998,115.16985558300075,115.16985558300075,115.16985558300075,117.24840220799888,121.2859137910018,115.16985558300075,115.16985558300075,120.32394049999857,115.16985558300075,115.16985558300075,115.16985558300075,115.16985558300075,115.62239016600142,116.66011641600198,115.59400837466843,,117.24840220799888,118.29009700000097,117.21888862466609,,115.16985558300075,120.32394049999857,115.16985558300075,120.32394049999857,120.36406941600217,121.04033283299941,115.16985558300075,2,1,1.181852459001675,reldom2_s034,001,2025-03-13_15h26.35.522,Aud-A-Scan_AC,2022.2.5,None,
8,First_Order,2.0,audwhere,stimulus/audwhere_stim/dummy.wav,stimulus/audwhere_stim/dummy.wav,stimulus/audwhere_stim/left_away_280h.wav,stimulus/audwhere_stim/right_away_270h.wav,stimulus/audwhere_stim/blank_white.png,stimulus/audwhere_stim/side_box.png,stimulus/audwhere_stim/side_yes.png,stimulus/audwhere_stim/side_no.png,None,Side,None,Direction,2,0.0,0,5.125,0,5.125,0,5.125,0,0.0,0.625,0,0,0,0,0,0,0,0,0,0.0,0,0.0,1,0.5,1,2.125,0,,,,,0,10,10,10,,,,,,,,,121.2859137910018,121.2859137910018,121.2859137910018,121.2859137910018,121.2859137910018,121.2859137910018,121.2859137910018,121.2859137910018,121.2132739163336,121.2859137910018,121.2859137910018,121.2859137910018,121.2132739163336,121.2859137910018,121.2859137910018,121.2859137910018,123.36804504099928,,121.2859137910018,121.2859137910018,126.45498745800069,121.2859137910018,121.2859137910018,121.2859137910018,121.2859137910018,121.73688000000038,122.779586749999,121.70809837466756,,123.36804504099928,124.41346695800166,123.33901087466826,,121.2859137910018,126.45498745800069,121.2859137910018,126.45498745800069,126.49459516600109,127.17386183300187,121.2859137910018,2,1,1.0939532919983321,reldom2_s034,001,2025-03-13_15h26.35.522,Aud-A-Scan_AC,2022.2.5,None,
9,First_Order,2.0,audwhere,stimulus/audwhere_stim/dummy.wav,stimulus/audwhere_stim/dummy.wav,stimulus/audwhere_stim/left_away_280h.wav,stimulus/audwhere_stim/right_away_300h.wav,stimulus/audwhere_stim/blank_white.png,stimulus/audwhere_stim/direction_box.png,stimulus/audwhere_stim/direction_yes.png,stimulus/audwhere_stim/direction_no.png,None,Direction,None,Direction,1,0.0,0,5.125,0,5.125,0,5.125,0,0.0,0.625,0,0,0,0,0,0,0,0,0,0.0,0,0.0,1,0.5,1,2.125,0,,,,,0,11,11,11,,,,,,,,,127.38157016599871,127.38157016599871,127.38157016599871,127.38157016599871,127.38157016599871,127.38157016599871,127.38157016599871,127.38157016599871,127.30719516633519,127.38157016599871,127.38157016599871,127.38157016599871,127.30719516633519,127.38157016599871,127.38157016599871,127.38157016599871,129.48452774999896,,127.38157016599871,127.38157016599871,132.54770879100033,127.38157016599871,127.38157016599871,127.38157016599871,127.38157016599871,127.83849491599904,128.88848279100057,127.80923387466852,,129.48452774999896,130.53695829099888,129.4550079166659,,127.38157016599871,132.54770879100033,127.38157016599871,132.54770879100033,132.58779195800162,133.27151612500165,127.38157016599871,1,1,1.8334533339984773,reldom2_s034,001,2025-03-13_15h26.35.522,Aud-A-Scan_AC,2022.2.5,None,
10,First_Order,2.0,audwhere,stimulus/audwhere_stim/dummy.wav,stimulus/audwhere_stim/dummy.wav,stimulus/audwhere_stim/right_away_270h.wav,stimulus/audwhere_stim/right_toward_300h.wav,stimulus/audwhere_stim/blank_white.png,stimulus/audwhere_stim/side_box.png,stimulus/audwhere_stim/side_yes.png,stimulus/audwhere_stim/side_no.png,None,Side,None,Side,1,0.0,0,5.125,0,5.125,0,5.125,0,0.0,0.625,0,0,0,0,0,0,0,0,0,0.0,0,0.0,1,0.5,1,2.125,0,,,,,0,12,12,12,,,,,,,,,133.47900737500095,133.47900737500095,133.47900737500095,133.47900737500095,133.47900737500095,133.47900737500095,133.47900737500095,133.47900737500095,133.404849458335,133.47900737500095,133.47900737500095,133.47900737500095,133.404849458335,133.47900737500095,133.47900737500095,133.47900737500095,135.57327770800111,139.62353879100192,133.47900737500095,133.47900737500095,138.62935112500054,133.47900737500095,133.47900737500095,133.47900737500095,133.47900737500095,133.93440900000132,134.98166591599875,133.90495970766668,,135.57327770800111,136.62646374999895,135.5445307916673,,133.47900737500095,138.62935112500054,133.47900737500095,138.62935112500054,138.70971120800095,139.39509325000108,133.47900737500095,1,1,2.5300184170009743,reldom2_s034,001,2025-03-13_15h26.35.522,Aud-A-Scan_AC,2022.2.5,None,
0,0.0,None,fixation,stimulus/audwhere_stim/blank_white.png,stimulus/audwhere_stim/blank_white.png,stimulus/audwhat_stim/blank_white.png,stimulus/audwhat_stim/blank_white.png,stimulus/audwhere_stim/blank_white.png,stimulus/audwhere_stim/blank_white.png,stimulus/audwhere_stim/blank_white.png,stimulus/audwhere_stim/blank_white.png,0.0,0.0,0.0,0.0,0,0.0,0,0.0,0,0.0,0,0.0,0,0.0,0.0,0,0,0,0,0,0,0,0,0,0.0,0,0.0,0,0.0,0,0.0,8,,,,,0,13,13,13,,,,,,,,,139.62353879100192,139.62353879100192,139.62353879100192,139.62353879100192,139.62353879100192,139.62353879100192,139.62353879100192,139.62353879100192,139.52842658333444,139.62353879100192,139.62353879100192,139.62353879100192,139.52842658333444,139.62353879100192,139.62353879100192,139.62353879100192,139.62353879100192,139.62353879100192,139.62353879100192,139.62353879100192,139.62353879100192,139.62353879100192,139.62353879100192,139.62353879100192,139.62353879100192,139.62353879100192,139.62353879100192,139.57842658333442,139.62353879100192,139.62353879100192,139.62353879100192,139.57842658333442,139.62353879100192,139.62353879100192,139.62353879100192,139.62353879100192,139.62353879100192,144.8116868750003,144.8116868750003,147.7837180409988,None,0,,reldom2_s034,001,2025-03-13_15h26.35.522,Aud-A-Scan_AC,2022.2.5,None,
11,Second_Order,2.0,audwhere,stimulus/audwhere_stim/left_away_280h.wav,stimulus/audwhere_stim/left_toward_280h.wav,stimulus/audwhere_stim/right_toward_280h.wav,stimulus/audwhere_stim/left_toward_270h.wav,stimulus/audwhere_stim/match_blank.png,stimulus/audwhere_stim/match_box.png,stimulus/audwhere_stim/match_yes.png,stimulus/audwhere_stim/match_no.png,2.0,Match,Side,Direction,2,5.125,0,5.125,0,5.125,0,5.125,0,0.75,0.75,0,0,0,0,0,0,0,0,1,0.5,1,2.125,1,0.5,1,2.125,0,,,,,0,14,14,14,,,,,,,,,147.7837180409988,152.90521033299956,147.7837180409988,147.7837180409988,147.7837180409988,147.7837180409988,148.23084200000085,149.2167934579993,148.24426104166585,,149.86893666600008,150.86733312499928,149.8815146246673,,152.90521033299956,153.75869641600002,155.8349986659996,159.7523384160013,153.75869641600002,153.75869641600002,158.91779337499975,153.75869641600002,153.75869641600002,153.75869641600002,153.75869641600002,154.2084524999991,155.24885124999855,154.17981770766735,,155.8349986659996,156.87726941599976,155.80623079166642,,153.75869641600002,158.91779337499975,153.75869641600002,158.91779337499975,158.91779337499975,,153.75869641600002,2,1,1.9643691259989282,reldom2_s034,001,2025-03-13_15h26.35.522,Aud-A-Scan_AC,2022.2.5,None,
12,Second_Order,2.0,audwhere,stimulus/audwhere_stim/left_away_300h.wav,stimulus/audwhere_stim/right_away_270h.wav,stimulus/audwhere_stim/left_toward_280h.wav,stimulus/audwhere_stim/right_toward_280h.wav,stimulus/audwhere_stim/match_blank.png,stimulus/audwhere_stim/match_box.png,stimulus/audwhere_stim/match_yes.png,stimulus/audwhere_stim/match_no.png,1.0,Match,Direction,Direction,1,5.125,0,5.125,0,5.125,0,5.125,0,0.625,0.625,0,0,0,0,0,0,0,0,1,0.5,1,2.125,1,0.5,1,2.125,0,,,,,0,15,15,15,,,,,,,,,159.7523384160013,164.87104170800012,159.7523384160013,159.7523384160013,159.7523384160013,159.7523384160013,160.20747437500177,161.19443245799994,160.22170037466665,161.21114566599863,161.82994545800102,162.82766187499874,161.84242679166735,,164.87104170800012,165.59756645800007,167.65971983300187,,165.59756645800007,165.59756645800007,170.77267158299946,165.59756645800007,165.59756645800007,165.59756645800007,165.59756645800007,166.04474174999996,167.0765371660018,166.0164169996681,,167.65971983300187,168.6981848329997,167.63151649966701,,165.59756645800007,170.77267158299946,165.59756645800007,170.77267158299946,170.77267158299946,171.4466086249995,165.59756645800007,1,1,2.149052249998931,reldom2_s034,001,2025-03-13_15h26.35.522,Aud-A-Scan_AC,2022.2.5,None,
0,0.0,None,fixation,stimulus/audwhere_stim/blank_white.png,stimulus/audwhere_stim/blank_white.png,stimulus/audwhat_stim/blank_white.png,stimulus/audwhat_stim/blank_white.png,stimulus/audwhere_stim/blank_white.png,stimulus/audwhere_stim/blank_white.png,stimulus/audwhere_stim/blank_white.png,stimulus/audwhere_stim/blank_white.png,0.0,0.0,0.0,0.0,0,0.0,0,0.0,0,0.0,0,0.0,0,0.0,0.0,0,0,0,0,0,0,0,0,0,0.0,0,0.0,0,0.0,0,0.0,8,,,,,0,16,16,16,,,,,,,,,171.6731147499995,171.6731147499995,171.6731147499995,171.6731147499995,171.6731147499995,171.6731147499995,171.6731147499995,171.6731147499995,171.57994195833285,171.6731147499995,171.6731147499995,171.6731147499995,171.57994195833285,171.6731147499995,171.6731147499995,171.6731147499995,171.6731147499995,171.6731147499995,171.6731147499995,171.6731147499995,171.6731147499995,171.6731147499995,171.6731147499995,171.6731147499995,171.6731147499995,171.6731147499995,171.6731147499995,171.62994195833284,171.6731147499995,171.6731147499995,171.6731147499995,171.62994195833284,171.6731147499995,171.6731147499995,171.6731147499995,171.6731147499995,171.6731147499995,176.90773904100206,176.90773904100206,179.89861483300047,None,0,,reldom2_s034,001,2025-03-13_15h26.35.522,Aud-A-Scan_AC,2022.2.5,None,
13,First_Order,3.0,audwhat,stimulus/audwhat_stim/dummy.wav,stimulus/audwhat_stim/dummy.wav,stimulus/audwhat_stim/percussion xylophone_high-pitch_F_loud.wav,stimulus/audwhat_stim/percussion mallet_low-pitch_Dtri_loud.wav,stimulus/audwhat_stim/blank_white.png,stimulus/audwhat_stim/category_box.png,stimulus/audwhat_stim/category_yes.png,stimulus/audwhat_stim/category_no.png,None,Category,None,Category,1,0.0,0,5.125,0,5.125,0,5.125,0,0.0,0.625,0,0,0,0,0,0,0,0,0,0.0,0,0.0,1,0.5,1,2.125,0,,,,,0,17,17,17,,,,,,,,,179.89861483300047,179.89861483300047,179.89861483300047,179.89861483300047,179.89861483300047,179.89861483300047,179.89861483300047,179.89861483300047,179.82947637466594,179.89861483300047,179.89861483300047,179.89861483300047,179.82947637466594,179.89861483300047,179.89861483300047,179.89861483300047,181.99550241600082,,179.89861483300047,179.89861483300047,185.06500066599983,179.89861483300047,179.89861483300047,179.89861483300047,179.89861483300047,180.3550369580007,181.4030876249999,180.32574941666851,181.35757629100044,181.99550241600082,183.04986937500144,181.9661430416675,,179.89861483300047,185.06500066599983,179.89861483300047,185.06500066599983,185.10502175000147,185.7843119579993,179.89861483300047,1,1,1.2381507919999422,reldom2_s034,001,2025-03-13_15h26.35.522,Aud-A-Scan_AC,2022.2.5,None,
14,First_Order,3.0,audwhat,stimulus/audwhat_stim/dummy.wav,stimulus/audwhat_stim/dummy.wav,stimulus/audwhat_stim/string cello_low-pitch_Ftri_loud.wav,stimulus/audwhat_stim/string viola_high-pitch_F_loud.wav,stimulus/audwhat_stim/blank_white.png,stimulus/audwhat_stim/category_box.png,stimulus/audwhat_stim/category_yes.png,stimulus/audwhat_stim/category_no.png,None,Category,None,Category,1,0.0,0,5.125,0,5.125,0,5.125,0,0.0,0.625,0,0,0,0,0,0,0,0,0,0.0,0,0.0,1,0.5,1,2.125,0,,,,,0,18,18,18,,,,,,,,,185.9952110000013,185.9952110000013,185.9952110000013,185.9952110000013,185.9952110000013,185.9952110000013,185.9952110000013,185.9952110000013,185.91764529133266,185.9952110000013,185.9952110000013,185.9952110000013,185.91764529133266,185.9952110000013,185.9952110000013,185.9952110000013,188.10716245799995,192.1179641660019,185.9952110000013,185.9952110000013,191.1824202909993,185.9952110000013,185.9952110000013,185.9952110000013,185.9952110000013,186.4530347079999,187.51015341600214,186.42390749966606,,188.10716245799995,189.1635914159997,188.07794874966592,,185.9952110000013,191.1824202909993,185.9952110000013,191.1824202909993,191.22304570800043,191.90723295800126,185.9952110000013,1,1,1.1291356250003446,reldom2_s034,001,2025-03-13_15h26.35.522,Aud-A-Scan_AC,2022.2.5,None,
15,First_Order,3.0,audwhat,stimulus/audwhat_stim/dummy.wav,stimulus/audwhat_stim/dummy.wav,stimulus/audwhat_stim/string viola_low-pitch_D_loud.wav,stimulus/audwhat_stim/percussion mallet_low-pitch_D_loud.wav,stimulus/audwhat_stim/blank_white.png,stimulus/audwhat_stim/pitch_box.png,stimulus/audwhat_stim/pitch_yes.png,stimulus/audwhat_stim/pitch_no.png,None,Pitch,None,Pitch,1,0.0,0,5.125,0,5.125,0,5.125,0,0.0,0.625,0,0,0,0,0,0,0,0,0,0.0,0,0.0,1,0.5,1,2.125,0,,,,,0,19,19,19,,,,,,,,,192.1179641660019,192.1179641660019,192.1179641660019,192.1179641660019,192.1179641660019,192.1179641660019,192.1179641660019,192.1179641660019,192.0405662913346,192.1179641660019,192.1179641660019,192.1179641660019,192.0405662913346,192.1179641660019,192.1179641660019,192.1179641660019,194.22096612500172,,192.1179641660019,192.1179641660019,197.29441104099897,192.1179641660019,192.1179641660019,192.1179641660019,192.1179641660019,192.57513354099865,193.6262297909998,192.5459361666656,,194.22096612500172,195.27640079100092,194.19146658266644,,192.1179641660019,197.29441104099897,192.1179641660019,197.29441104099897,197.33499045799908,198.01649075000023,192.1179641660019,1,1,0.8416634589993919,reldom2_s034,001,2025-03-13_15h26.35.522,Aud-A-Scan_AC,2022.2.5,None,
16,First_Order,3.0,audwhat,stimulus/audwhat_stim/dummy.wav,stimulus/audwhat_stim/dummy.wav,stimulus/audwhat_stim/string cello_low-pitch_D_loud.wav,stimulus/audwhat_stim/string viola_high-pitch_Dtri_loud.wav,stimulus/audwhat_stim/blank_white.png,stimulus/audwhat_stim/pitch_box.png,stimulus/audwhat_stim/pitch_yes.png,stimulus/audwhat_stim/pitch_no.png,None,Pitch,None,Category,2,0.0,0,5.125,0,5.125,0,5.125,0,0.0,0.625,0,0,0,0,0,0,0,0,0,0.0,0,0.0,1,0.5,1,2.125,0,,,,,0,20,20,20,,,,,,,,,198.22655116600072,198.22655116600072,198.22655116600072,198.22655116600072,198.22655116600072,198.22655116600072,198.22655116600072,198.22655116600072,198.14982408333358,198.22655116600072,198.22655116600072,198.22655116600072,198.14982408333358,198.22655116600072,198.22655116600072,198.22655116600072,200.33621299999868,204.36816812500183,198.22655116600072,198.22655116600072,203.4129498330003,198.22655116600072,198.22655116600072,198.22655116600072,198.22655116600072,198.68381662500178,199.74168641600045,198.6552081666671,,200.33621299999868,201.39514829100153,200.30762908266868,,198.22655116600072,203.4129498330003,198.22655116600072,203.4129498330003,203.45363341600023,204.13602858300146,198.22655116600072,2,1,1.6455643750014133,reldom2_s034,001,2025-03-13_15h26.35.522,Aud-A-Scan_AC,2022.2.5,None,
0,0.0,None,fixation,stimulus/audwhere_stim/blank_white.png,stimulus/audwhere_stim/blank_white.png,stimulus/audwhat_stim/blank_white.png,stimulus/audwhat_stim/blank_white.png,stimulus/audwhere_stim/blank_white.png,stimulus/audwhere_stim/blank_white.png,stimulus/audwhere_stim/blank_white.png,stimulus/audwhere_stim/blank_white.png,0.0,0.0,0.0,0.0,0,0.0,0,0.0,0,0.0,0,0.0,0,0.0,0.0,0,0,0,0,0,0,0,0,0,0.0,0,0.0,0,0.0,0,0.0,8,,,,,0,21,21,21,,,,,,,,,204.36816812500183,204.36816812500183,204.36816812500183,204.36816812500183,204.36816812500183,204.36816812500183,204.36816812500183,204.36816812500183,204.26936191633482,204.36816812500183,204.36816812500183,204.36816812500183,204.26936191633482,204.36816812500183,204.36816812500183,204.36816812500183,204.36816812500183,204.36816812500183,204.36816812500183,204.36816812500183,204.36816812500183,204.36816812500183,204.36816812500183,204.36816812500183,204.36816812500183,204.36816812500183,204.36816812500183,204.3193619163348,204.36816812500183,204.36816812500183,204.36816812500183,204.3193619163348,204.36816812500183,204.36816812500183,204.36816812500183,204.36816812500183,204.36816812500183,209.59638574999917,209.59638574999917,212.54292716599957,None,0,,reldom2_s034,001,2025-03-13_15h26.35.522,Aud-A-Scan_AC,2022.2.5,None,
17,Second_Order,3.0,audwhat,stimulus/audwhat_stim/percussion mallet_high-pitch_F_loud.wav,stimulus/audwhat_stim/string viola_high-pitch_F_loud.wav,stimulus/audwhat_stim/string cello_low-pitch_Ftri_loud.wav,stimulus/audwhat_stim/string cello_high-pitch_Dtri_loud.wav,stimulus/audwhere_stim/match_blank.png,stimulus/audwhat_stim/match_box.png,stimulus/audwhere_stim/match_yes.png,stimulus/audwhere_stim/match_no.png,2.0,Match,Pitch,Category,2,5.125,0,5.125,0,5.125,0,5.125,0,0.75,0.75,0,0,0,0,0,0,0,0,1,0.5,1,2.125,1,0.5,1,2.125,0,,,,,0,22,22,22,,,,,,,,,212.54292716599957,217.65924425000048,212.54292716599957,212.54292716599957,212.54292716599957,212.54292716599957,212.99786554100137,213.99671533299988,213.01041662466767,,214.61922695799876,215.61692404100177,214.63097812466756,,217.65924425000048,218.5082137499994,220.55139233299997,224.49559654100085,218.5082137499994,218.5082137499994,223.7011382080018,218.5082137499994,218.5082137499994,218.5082137499994,218.5082137499994,218.95981879100145,220.0062090829997,218.931063207667,,220.55139233299997,221.6035661249989,220.52224958266768,,218.5082137499994,223.7011382080018,218.5082137499994,223.7011382080018,223.7011382080018,,218.5082137499994,2,1,1.203712334001466,reldom2_s034,001,2025-03-13_15h26.35.522,Aud-A-Scan_AC,2022.2.5,None,
18,Second_Order,3.0,audwhat,stimulus/audwhat_stim/string viola_low-pitch_F_loud.wav,stimulus/audwhat_stim/percussion mallet_low-pitch_F_loud.wav,stimulus/audwhat_stim/percussion mallet_high-pitch_Ftri_loud.wav,stimulus/audwhat_stim/string cello_high-pitch_Ftri_loud.wav,stimulus/audwhere_stim/match_blank.png,stimulus/audwhat_stim/match_box.png,stimulus/audwhere_stim/match_yes.png,stimulus/audwhere_stim/match_no.png,1.0,Match,Pitch,Pitch,1,5.125,0,5.125,0,5.125,0,5.125,0,0.625,0.625,0,0,0,0,0,0,0,0,1,0.5,1,2.125,1,0.5,1,2.125,0,,,,,0,23,23,23,,,,,,,,,224.49559654100085,229.61967483300032,224.49559654100085,224.49559654100085,224.49559654100085,224.49559654100085,224.95537354100088,225.9439777910011,224.95754179166786,,226.58012141600193,227.57766304100005,226.59203674966582,,229.61967483300032,230.35160354099935,232.42505358299968,236.45792862500093,230.35160354099935,230.35160354099935,235.51299241599918,230.35160354099935,230.35160354099935,230.35160354099935,230.35160354099935,230.80026312500195,231.83949049999865,230.77061108266597,,232.42505358299968,233.47076120800193,232.3965669576685,,230.35160354099935,235.51299241599918,230.35160354099935,235.51299241599918,235.51299241599918,236.19016212499992,230.35160354099935,1,1,1.1119815009988088,reldom2_s034,001,2025-03-13_15h26.35.522,Aud-A-Scan_AC,2022.2.5,None,
0,0.0,None,fixation,stimulus/audwhere_stim/blank_white.png,stimulus/audwhere_stim/blank_white.png,stimulus/audwhat_stim/blank_white.png,stimulus/audwhat_stim/blank_white.png,stimulus/audwhere_stim/blank_white.png,stimulus/audwhere_stim/blank_white.png,stimulus/audwhere_stim/blank_white.png,stimulus/audwhere_stim/blank_white.png,0.0,0.0,0.0,0.0,0,0.0,0,0.0,0,0.0,0,0.0,0,0.0,0.0,0,0,0,0,0,0,0,0,0,0.0,0,0.0,0,0.0,0,0.0,9,,,,,0,24,24,24,,,,,,,,,236.45792862500093,236.45792862500093,236.45792862500093,236.45792862500093,236.45792862500093,236.45792862500093,236.45792862500093,236.45792862500093,236.36341216633278,236.45792862500093,236.45792862500093,236.45792862500093,236.36341216633278,236.45792862500093,236.45792862500093,236.45792862500093,236.45792862500093,236.45792862500093,236.45792862500093,236.45792862500093,236.45792862500093,236.45792862500093,236.45792862500093,236.45792862500093,236.45792862500093,236.45792862500093,236.45792862500093,236.41341216633276,236.45792862500093,236.45792862500093,236.45792862500093,236.41341216633276,236.45792862500093,236.45792862500093,236.45792862500093,236.45792862500093,236.45792862500093,241.66797729099926,241.66797729099926,245.7173268330007,None,0,,reldom2_s034,001,2025-03-13_15h26.35.522,Aud-A-Scan_AC,2022.2.5,None,
19,First_Order,4.0,audwhat,stimulus/audwhat_stim/dummy.wav,stimulus/audwhat_stim/dummy.wav,stimulus/audwhat_stim/percussion mallet_low-pitch_D_loud.wav,stimulus/audwhat_stim/string viola_low-pitch_D_loud.wav,stimulus/audwhat_stim/blank_white.png,stimulus/audwhat_stim/category_box.png,stimulus/audwhat_stim/category_yes.png,stimulus/audwhat_stim/category_no.png,None,Category,None,Pitch,2,0.0,0,5.125,0,5.125,0,5.125,0,0.0,0.625,0,0,0,0,0,0,0,0,0,0.0,0,0.0,1,0.5,1,2.125,0,,,,,0,25,25,25,,,,,,,,,245.7173268330007,245.7173268330007,245.7173268330007,245.7173268330007,245.7173268330007,245.7173268330007,245.7173268330007,245.7173268330007,245.6493063746663,245.7173268330007,245.7173268330007,245.7173268330007,245.6493063746663,245.7173268330007,245.7173268330007,245.7173268330007,247.83010937500148,,245.7173268330007,245.7173268330007,250.87204091600142,245.7173268330007,245.7173268330007,245.7173268330007,245.7173268330007,246.17601829100022,247.23346312500144,246.14716012466695,,247.83010937500148,248.889494250001,247.8006166666676,,245.7173268330007,250.87204091600142,245.7173268330007,250.87204091600142,250.91328029099896,251.60044412500065,245.7173268330007,2,1,2.9156677089995355,reldom2_s034,001,2025-03-13_15h26.35.522,Aud-A-Scan_AC,2022.2.5,None,
20,First_Order,4.0,audwhat,stimulus/audwhat_stim/dummy.wav,stimulus/audwhat_stim/dummy.wav,stimulus/audwhat_stim/percussion xylophone_high-pitch_Dtri_loud.wav,stimulus/audwhat_stim/string cello_high-pitch_Dtri_loud.wav,stimulus/audwhat_stim/blank_white.png,stimulus/audwhat_stim/pitch_box.png,stimulus/audwhat_stim/pitch_yes.png,stimulus/audwhat_stim/pitch_no.png,None,Pitch,None,Pitch,1,0.0,0,5.125,0,5.125,0,5.125,0,0.0,0.625,0,0,0,0,0,0,0,0,0,0.0,0,0.0,1,0.5,1,2.125,0,,,,,0,26,26,26,,,,,,,,,251.81227837500046,251.81227837500046,251.81227837500046,251.81227837500046,251.81227837500046,251.81227837500046,251.81227837500046,251.81227837500046,251.733777458334,251.81227837500046,251.81227837500046,251.81227837500046,251.733777458334,251.81227837500046,251.81227837500046,251.81227837500046,253.9205844579992,257.93754358300066,251.81227837500046,251.81227837500046,256.9983882910019,251.81227837500046,251.81227837500046,251.81227837500046,251.81227837500046,252.27115504099856,253.32567758300138,252.24169208266565,253.27996662499936,253.9205844579992,254.97616633299913,253.89148162466543,,251.81227837500046,256.9983882910019,251.81227837500046,256.9983882910019,257.040709375,257.72662291600136,251.81227837500046,1,1,1.0141319169997587,reldom2_s034,001,2025-03-13_15h26.35.522,Aud-A-Scan_AC,2022.2.5,None,
21,First_Order,4.0,audwhat,stimulus/audwhat_stim/dummy.wav,stimulus/audwhat_stim/dummy.wav,stimulus/audwhat_stim/string viola_low-pitch_D_loud.wav,stimulus/audwhat_stim/percussion mallet_low-pitch_D_loud.wav,stimulus/audwhat_stim/blank_white.png,stimulus/audwhat_stim/category_box.png,stimulus/audwhat_stim/category_yes.png,stimulus/audwhat_stim/category_no.png,None,Category,None,Pitch,2,0.0,0,5.125,0,5.125,0,5.125,0,0.0,0.625,0,0,0,0,0,0,0,0,0,0.0,0,0.0,1,0.5,1,2.125,0,,,,,0,27,27,27,,,,,,,,,257.93754358300066,257.93754358300066,257.93754358300066,257.93754358300066,257.93754358300066,257.93754358300066,257.93754358300066,257.93754358300066,257.8599562493347,257.93754358300066,257.93754358300066,257.93754358300066,257.8599562493347,257.93754358300066,257.93754358300066,257.93754358300066,260.01657079100187,264.05452058300216,257.93754358300066,257.93754358300066,263.11216191600033,257.93754358300066,257.93754358300066,257.93754358300066,257.93754358300066,258.3995287910002,259.4617508750016,258.3699944996663,,260.01657079100187,261.08353658299893,259.98678295766535,,257.93754358300066,263.11216191600033,257.93754358300066,263.11216191600033,263.1528188330012,263.8023092910007,257.93754358300066,2,1,0.8052346669974213,reldom2_s034,001,2025-03-13_15h26.35.522,Aud-A-Scan_AC,2022.2.5,None,
22,First_Order,4.0,audwhat,stimulus/audwhat_stim/dummy.wav,stimulus/audwhat_stim/dummy.wav,stimulus/audwhat_stim/string viola_low-pitch_Ftri_loud.wav,stimulus/audwhat_stim/string cello_high-pitch_D_loud.wav,stimulus/audwhat_stim/blank_white.png,stimulus/audwhat_stim/pitch_box.png,stimulus/audwhat_stim/pitch_yes.png,stimulus/audwhat_stim/pitch_no.png,None,Pitch,None,Category,2,0.0,0,5.125,0,5.125,0,5.125,0,0.0,0.625,0,0,0,0,0,0,0,0,0,0.0,0,0.0,1,0.5,1,2.125,0,,,,,0,28,28,28,,,,,,,,,264.05452058300216,264.05452058300216,264.05452058300216,264.05452058300216,264.05452058300216,264.05452058300216,264.05452058300216,264.05452058300216,263.97560670833457,264.05452058300216,264.05452058300216,264.05452058300216,263.97560670833457,264.05452058300216,264.05452058300216,264.05452058300216,266.1283195830001,,264.05452058300216,264.05452058300216,269.21072241599904,264.05452058300216,264.05452058300216,264.05452058300216,264.05452058300216,264.5141577909999,265.5753878329997,264.4849799996666,,266.1283195830001,267.1885143750005,266.09862266666846,,264.05452058300216,269.21072241599904,264.05452058300216,269.21072241599904,269.251650582999,269.9011845829991,264.05452058300216,None,0,,reldom2_s034,001,2025-03-13_15h26.35.522,Aud-A-Scan_AC,2022.2.5,None,
0,0.0,None,fixation,stimulus/audwhere_stim/blank_white.png,stimulus/audwhere_stim/blank_white.png,stimulus/audwhat_stim/blank_white.png,stimulus/audwhat_stim/blank_white.png,stimulus/audwhere_stim/blank_white.png,stimulus/audwhere_stim/blank_white.png,stimulus/audwhere_stim/blank_white.png,stimulus/audwhere_stim/blank_white.png,0.0,0.0,0.0,0.0,0,0.0,0,0.0,0,0.0,0,0.0,0,0.0,0.0,0,0,0,0,0,0,0,0,0,0.0,0,0.0,0,0.0,0,0.0,10,,,,,0,29,29,29,,,,,,,,,270.17230958300206,270.17230958300206,270.17230958300206,270.17230958300206,270.17230958300206,270.17230958300206,270.17230958300206,270.17230958300206,270.075013666332,270.17230958300206,270.17230958300206,270.17230958300206,270.075013666332,270.17230958300206,270.17230958300206,270.17230958300206,270.17230958300206,270.17230958300206,270.17230958300206,270.17230958300206,270.17230958300206,270.17230958300206,270.17230958300206,270.17230958300206,270.17230958300206,270.17230958300206,270.17230958300206,270.125013666332,270.17230958300206,270.17230958300206,270.17230958300206,270.125013666332,270.17230958300206,270.17230958300206,270.17230958300206,270.17230958300206,270.17230958300206,275.3580235410009,275.3580235410009,280.32865545800087,None,0,,reldom2_s034,001,2025-03-13_15h26.35.522,Aud-A-Scan_AC,2022.2.5,None,
23,Second_Order,4.0,audwhat,stimulus/audwhat_stim/string cello_low-pitch_F_loud.wav,stimulus/audwhat_stim/string cello_high-pitch_Ftri_loud.wav,stimulus/audwhat_stim/percussion mallet_high-pitch_Ftri_loud.wav,stimulus/audwhat_stim/percussion mallet_low-pitch_F_loud.wav,stimulus/audwhere_stim/match_blank.png,stimulus/audwhat_stim/match_box.png,stimulus/audwhere_stim/match_yes.png,stimulus/audwhere_stim/match_no.png,1.0,Match,Category,Category,1,5.125,0,5.125,0,5.125,0,5.125,0,0.75,0.75,0,0,0,0,0,0,0,0,1,0.5,1,2.125,1,0.5,1,2.125,0,,,,,0,30,30,30,,,,,,,,,280.32865545800087,285.4502047909991,280.32865545800087,280.32865545800087,280.32865545800087,280.32865545800087,280.7840696659987,281.77406858299946,280.78705174966694,,282.4089074580006,283.4064107080012,282.42147595766824,,285.4502047909991,286.2977722079995,288.349296458,292.2929183330016,286.2977722079995,286.2977722079995,291.4561404160013,286.2977722079995,286.2977722079995,286.2977722079995,286.2977722079995,286.75221545800014,287.80259149999983,286.72317124966526,,288.349296458,289.40216733299894,288.3198837916682,,286.2977722079995,291.4561404160013,286.2977722079995,291.4561404160013,291.4962544580012,,286.2977722079995,1,1,1.150554749998264,reldom2_s034,001,2025-03-13_15h26.35.522,Aud-A-Scan_AC,2022.2.5,None,
24,Second_Order,4.0,audwhat,stimulus/audwhat_stim/percussion xylophone_high-pitch_Dtri_loud.wav,stimulus/audwhat_stim/percussion mallet_low-pitch_D_loud.wav,stimulus/audwhat_stim/string cello_low-pitch_Ftri_loud.wav,stimulus/audwhat_stim/string viola_high-pitch_D_loud.wav,stimulus/audwhere_stim/match_blank.png,stimulus/audwhat_stim/match_box.png,stimulus/audwhere_stim/match_yes.png,stimulus/audwhere_stim/match_no.png,1.0,Match,Category,Category,1,5.125,0,5.125,0,5.125,0,5.125,0,0.625,0.625,0,0,0,0,0,0,0,0,1,0.5,1,2.125,1,0.5,1,2.125,0,,,,,0,31,31,31,,,,,,,,,292.2929183330016,297.40997375000006,292.2929183330016,292.2929183330016,292.2929183330016,292.2929183330016,292.74896729100146,293.7468795829991,292.76157029166666,293.75010729100177,294.3697116250005,295.36755562500184,294.3818027496675,,297.40997375000006,298.1381407080007,300.1788459160016,,298.1381407080007,298.1381407080007,303.3203567499986,298.1381407080007,298.1381407080007,298.1381407080007,298.1381407080007,298.5890691249988,299.6338512500006,298.56019066666727,,300.1788459160016,301.2274373330001,300.14940179166683,,298.1381407080007,303.3203567499986,298.1381407080007,303.3203567499986,303.3203567499986,303.99923387500166,298.1381407080007,1,1,1.2015273750002962,reldom2_s034,001,2025-03-13_15h26.35.522,Aud-A-Scan_AC,2022.2.5,None,
0,0.0,None,fixation,stimulus/audwhere_stim/blank_white.png,stimulus/audwhere_stim/blank_white.png,stimulus/audwhat_stim/blank_white.png,stimulus/audwhat_stim/blank_white.png,stimulus/audwhere_stim/blank_white.png,stimulus/audwhere_stim/blank_white.png,stimulus/audwhere_stim/blank_white.png,stimulus/audwhere_stim/blank_white.png,0.0,0.0,0.0,0.0,0,0.0,0,0.0,0,0.0,0,0.0,0,0.0,0.0,0,0,0,0,0,0,0,0,0,0.0,0,0.0,0,0.0,0,0.0,9,,,,,0,32,32,32,,,,,,,,,304.2278750000005,304.2278750000005,304.2278750000005,304.2278750000005,304.2278750000005,304.2278750000005,304.2278750000005,304.2278750000005,304.132567208335,304.2278750000005,304.2278750000005,304.2278750000005,304.132567208335,304.2278750000005,304.2278750000005,304.2278750000005,304.2278750000005,304.2278750000005,304.2278750000005,304.2278750000005,304.2278750000005,304.2278750000005,304.2278750000005,304.2278750000005,304.2278750000005,304.2278750000005,304.2278750000005,304.182567208335,304.2278750000005,304.2278750000005,304.2278750000005,304.182567208335,304.2278750000005,304.2278750000005,304.2278750000005,304.2278750000005,304.2278750000005,309.4600973750021,309.4600973750021,313.469425457999,None,0,,reldom2_s034,001,2025-03-13_15h26.35.522,Aud-A-Scan_AC,2022.2.5,None,
25,First_Order,5.0,audwhere,stimulus/audwhere_stim/dummy.wav,stimulus/audwhere_stim/dummy.wav,stimulus/audwhere_stim/right_away_300h.wav,stimulus/audwhere_stim/right_toward_300h.wav,stimulus/audwhere_stim/blank_white.png,stimulus/audwhere_stim/direction_box.png,stimulus/audwhere_stim/direction_yes.png,stimulus/audwhere_stim/direction_no.png,None,Direction,None,Side,2,0.0,0,5.125,0,5.125,0,5.125,0,0.0,0.625,0,0,0,0,0,0,0,0,0,0.0,0,0.0,1,0.5,1,2.125,0,,,,,0,33,33,33,,,,,,,,,313.469425457999,313.469425457999,313.469425457999,313.469425457999,313.469425457999,313.469425457999,313.469425457999,313.469425457999,313.40213437466684,313.469425457999,313.469425457999,313.469425457999,313.40213437466684,313.469425457999,313.469425457999,313.469425457999,315.54339762499876,,313.469425457999,313.469425457999,318.63625983300153,313.469425457999,313.469425457999,313.469425457999,313.469425457999,313.9308943750002,314.9896636250014,313.9010308746658,,315.54339762499876,316.60705445799977,315.5138267916666,,313.469425457999,318.63625983300153,313.469425457999,318.63625983300153,318.67670579100013,319.3643736660015,313.469425457999,2,1,2.1789314590023423,reldom2_s034,001,2025-03-13_15h26.35.522,Aud-A-Scan_AC,2022.2.5,None,
26,First_Order,5.0,audwhere,stimulus/audwhere_stim/dummy.wav,stimulus/audwhere_stim/dummy.wav,stimulus/audwhere_stim/right_away_280h.wav,stimulus/audwhere_stim/left_away_270h.wav,stimulus/audwhere_stim/blank_white.png,stimulus/audwhere_stim/side_box.png,stimulus/audwhere_stim/side_yes.png,stimulus/audwhere_stim/side_no.png,None,Side,None,Direction,2,0.0,0,5.125,0,5.125,0,5.125,0,0.0,0.625,0,0,0,0,0,0,0,0,0,0.0,0,0.0,1,0.5,1,2.125,0,,,,,0,34,34,34,,,,,,,,,319.5743411660005,319.5743411660005,319.5743411660005,319.5743411660005,319.5743411660005,319.5743411660005,319.5743411660005,319.5743411660005,319.4977069993348,319.5743411660005,319.5743411660005,319.5743411660005,319.4977069993348,319.5743411660005,319.5743411660005,319.5743411660005,321.6852486659991,,319.5743411660005,319.5743411660005,324.76736945800076,319.5743411660005,319.5743411660005,319.5743411660005,319.5743411660005,320.03438766600084,321.0904577500005,320.00513874966805,,321.6852486659991,322.74009154099986,321.656027666668,,319.5743411660005,324.76736945800076,319.5743411660005,324.76736945800076,324.76736945800076,325.4177219580015,319.5743411660005,2,1,3.169417875997169,reldom2_s034,001,2025-03-13_15h26.35.522,Aud-A-Scan_AC,2022.2.5,None,
27,First_Order,5.0,audwhere,stimulus/audwhere_stim/dummy.wav,stimulus/audwhere_stim/dummy.wav,stimulus/audwhere_stim/left_away_300h.wav,stimulus/audwhere_stim/right_away_290h.wav,stimulus/audwhere_stim/blank_white.png,stimulus/audwhere_stim/direction_box.png,stimulus/audwhere_stim/direction_yes.png,stimulus/audwhere_stim/direction_no.png,None,Direction,None,Direction,1,0.0,0,5.125,0,5.125,0,5.125,0,0.0,0.625,0,0,0,0,0,0,0,0,0,0.0,0,0.0,1,0.5,1,2.125,0,,,,,0,35,35,35,,,,,,,,,325.668999583002,325.668999583002,325.668999583002,325.668999583002,325.668999583002,325.668999583002,325.668999583002,325.668999583002,325.59147449933346,325.668999583002,325.668999583002,325.668999583002,325.59147449933346,325.668999583002,325.668999583002,325.668999583002,327.7557331249991,,325.668999583002,325.668999583002,330.85691129100087,325.668999583002,325.668999583002,325.668999583002,325.668999583002,326.1326954159995,327.2008102079999,326.1031599996679,,327.7557331249991,328.8219136660009,327.7259805416654,,325.668999583002,330.85691129100087,325.668999583002,330.85691129100087,330.8980487910012,331.5484602910001,325.668999583002,1,1,1.4606524579976394,reldom2_s034,001,2025-03-13_15h26.35.522,Aud-A-Scan_AC,2022.2.5,None,
28,First_Order,5.0,audwhere,stimulus/audwhere_stim/dummy.wav,stimulus/audwhere_stim/dummy.wav,stimulus/audwhere_stim/left_away_290h.wav,stimulus/audwhere_stim/right_away_280h.wav,stimulus/audwhere_stim/blank_white.png,stimulus/audwhere_stim/direction_box.png,stimulus/audwhere_stim/direction_yes.png,stimulus/audwhere_stim/direction_no.png,None,Direction,None,Direction,1,0.0,0,5.125,0,5.125,0,5.125,0,0.0,0.625,0,0,0,0,0,0,0,0,0,0.0,0,0.0,1,0.5,1,2.125,0,,,,,0,36,36,36,,,,,,,,,331.75974662500084,331.75974662500084,331.75974662500084,331.75974662500084,331.75974662500084,331.75974662500084,331.75974662500084,331.75974662500084,331.6817936243334,331.75974662500084,331.75974662500084,331.75974662500084,331.6817936243334,331.75974662500084,331.75974662500084,331.75974662500084,333.84513375000097,,331.75974662500084,331.75974662500084,336.9115797500017,331.75974662500084,331.75974662500084,331.75974662500084,331.75974662500084,332.2212120410004,333.29020412500176,332.1912549166666,,333.84513375000097,334.91274766599963,333.81538862466573,,331.75974662500084,336.9115797500017,331.75974662500084,336.9115797500017,336.95268841600046,337.60772370799896,331.75974662500084,1,1,1.8877334169992537,reldom2_s034,001,2025-03-13_15h26.35.522,Aud-A-Scan_AC,2022.2.5,None,
0,0.0,None,fixation,stimulus/audwhere_stim/blank_white.png,stimulus/audwhere_stim/blank_white.png,stimulus/audwhat_stim/blank_white.png,stimulus/audwhat_stim/blank_white.png,stimulus/audwhere_stim/blank_white.png,stimulus/audwhere_stim/blank_white.png,stimulus/audwhere_stim/blank_white.png,stimulus/audwhere_stim/blank_white.png,0.0,0.0,0.0,0.0,0,0.0,0,0.0,0,0.0,0,0.0,0,0.0,0.0,0,0,0,0,0,0,0,0,0,0.0,0,0.0,0,0.0,0,0.0,9,,,,,0,37,37,37,,,,,,,,,337.8803867909992,337.8803867909992,337.8803867909992,337.8803867909992,337.8803867909992,337.8803867909992,337.8803867909992,337.8803867909992,337.78213945833534,337.8803867909992,337.8803867909992,337.8803867909992,337.78213945833534,337.8803867909992,337.8803867909992,337.8803867909992,337.8803867909992,337.8803867909992,337.8803867909992,337.8803867909992,337.8803867909992,337.8803867909992,337.8803867909992,337.8803867909992,337.8803867909992,337.8803867909992,337.8803867909992,337.83213945833535,337.8803867909992,337.8803867909992,337.8803867909992,337.83213945833535,337.8803867909992,337.8803867909992,337.8803867909992,337.8803867909992,337.8803867909992,343.08789879100004,343.08789879100004,347.00781054099934,None,0,,reldom2_s034,001,2025-03-13_15h26.35.522,Aud-A-Scan_AC,2022.2.5,None,
29,Second_Order,5.0,audwhere,stimulus/audwhere_stim/right_toward_270h.wav,stimulus/audwhere_stim/right_away_280h.wav,stimulus/audwhere_stim/left_toward_290h.wav,stimulus/audwhere_stim/left_away_290h.wav,stimulus/audwhere_stim/match_blank.png,stimulus/audwhere_stim/match_box.png,stimulus/audwhere_stim/match_yes.png,stimulus/audwhere_stim/match_no.png,1.0,Match,Side,Side,1,5.125,0,5.125,0,5.125,0,5.125,0,0.75,0.75,0,0,0,0,0,0,0,0,1,0.5,1,2.125,1,0.5,1,2.125,0,,,,,0,38,38,38,,,,,,,,,347.00781054099934,352.12023629100077,347.00781054099934,347.00781054099934,347.00781054099934,347.00781054099934,347.4566312909992,348.44357695800136,347.4708837916662,,349.07915412500006,350.0772086249999,349.0916887916685,,352.12023629100077,352.9695015409998,355.0261114160021,,352.9695015409998,352.9695015409998,358.14188470799854,352.9695015409998,352.9695015409998,352.9695015409998,352.9695015409998,353.4251433749996,354.4764066249991,353.3965169576661,,355.0261114160021,356.08137679100037,354.9959863746665,,352.9695015409998,358.14188470799854,352.9695015409998,358.14188470799854,358.14188470799854,,352.9695015409998,2,0,2.542795417000889,reldom2_s034,001,2025-03-13_15h26.35.522,Aud-A-Scan_AC,2022.2.5,None,
30,Second_Order,5.0,audwhere,stimulus/audwhere_stim/left_toward_300h.wav,stimulus/audwhere_stim/left_away_290h.wav,stimulus/audwhere_stim/right_away_290h.wav,stimulus/audwhere_stim/right_toward_280h.wav,stimulus/audwhere_stim/match_blank.png,stimulus/audwhere_stim/match_box.png,stimulus/audwhere_stim/match_yes.png,stimulus/audwhere_stim/match_no.png,1.0,Match,Side,Side,1,5.125,0,5.125,0,5.125,0,5.125,0,0.625,0.625,0,0,0,0,0,0,0,0,1,0.5,1,2.125,1,0.5,1,2.125,0,,,,,0,39,39,39,,,,,,,,,358.9409884580018,364.063773165999,358.9409884580018,358.9409884580018,358.9409884580018,358.9409884580018,359.40076633300123,360.3881344580004,359.41485262466836,,361.02371829099866,362.02192925000054,361.0358341666654,,364.063773165999,364.7937166660013,366.8367165410018,,364.7937166660013,364.7937166660013,369.97727666599894,364.7937166660013,364.7937166660013,364.7937166660013,364.7937166660013,365.246563916,366.2913263750015,365.21780145766775,,366.8367165410018,367.8854124999998,366.80762404166694,,364.7937166660013,369.97727666599894,364.7937166660013,369.97727666599894,369.97727666599894,370.65439374999914,364.7937166660013,1,1,1.3469632919986907,reldom2_s034,001,2025-03-13_15h26.35.522,Aud-A-Scan_AC,2022.2.5,None,
0,0.0,None,fixation,stimulus/audwhere_stim/blank_white.png,stimulus/audwhere_stim/blank_white.png,stimulus/audwhat_stim/blank_white.png,stimulus/audwhat_stim/blank_white.png,stimulus/audwhere_stim/blank_white.png,stimulus/audwhere_stim/blank_white.png,stimulus/audwhere_stim/blank_white.png,stimulus/audwhere_stim/blank_white.png,0.0,0.0,0.0,0.0,0,0.0,0,0.0,0,0.0,0,0.0,0,0.0,0.0,0,0,0,0,0,0,0,0,0,0.0,0,0.0,0,0.0,0,0.0,9,,,,,0,40,40,40,,,,,,,,,370.88306454100166,370.88306454100166,370.88306454100166,370.88306454100166,370.88306454100166,370.88306454100166,370.88306454100166,370.88306454100166,370.78772708333247,370.88306454100166,370.88306454100166,370.88306454100166,370.78772708333247,370.88306454100166,370.88306454100166,370.88306454100166,370.88306454100166,370.88306454100166,370.88306454100166,370.88306454100166,370.88306454100166,370.88306454100166,370.88306454100166,370.88306454100166,370.88306454100166,370.88306454100166,370.88306454100166,370.8377270833325,370.88306454100166,370.88306454100166,370.88306454100166,370.8377270833325,370.88306454100166,370.88306454100166,370.88306454100166,370.88306454100166,370.88306454100166,376.07995075000144,376.07995075000144,380.1082513330002,None,0,,reldom2_s034,001,2025-03-13_15h26.35.522,Aud-A-Scan_AC,2022.2.5,None,
31,First_Order,6.0,audwhere,stimulus/audwhere_stim/dummy.wav,stimulus/audwhere_stim/dummy.wav,stimulus/audwhere_stim/left_away_300h.wav,stimulus/audwhere_stim/left_toward_300h.wav,stimulus/audwhere_stim/blank_white.png,stimulus/audwhere_stim/side_box.png,stimulus/audwhere_stim/side_yes.png,stimulus/audwhere_stim/side_no.png,None,Side,None,Side,1,0.0,0,5.125,0,5.125,0,5.125,0,0.0,0.625,0,0,0,0,0,0,0,0,0,0.0,0,0.0,1,0.5,1,2.125,0,,,,,0,41,41,41,,,,,,,,,380.1082513330002,380.1082513330002,380.1082513330002,380.1082513330002,380.1082513330002,380.1082513330002,380.1082513330002,380.1082513330002,380.0370721246678,380.1082513330002,380.1082513330002,380.1082513330002,380.0370721246678,380.1082513330002,380.1082513330002,380.1082513330002,382.2200244580017,386.23461666599906,380.1082513330002,380.1082513330002,385.2571003330013,380.1082513330002,380.1082513330002,380.1082513330002,380.1082513330002,380.56638100000055,381.62346941600117,380.53687299966646,,382.2200244580017,383.2800982500012,382.1903629166666,,380.1082513330002,385.2571003330013,380.1082513330002,385.2571003330013,385.33797895799944,386.0256095830009,380.1082513330002,1,1,1.9753807919987594,reldom2_s034,001,2025-03-13_15h26.35.522,Aud-A-Scan_AC,2022.2.5,None,
32,First_Order,6.0,audwhere,stimulus/audwhere_stim/dummy.wav,stimulus/audwhere_stim/dummy.wav,stimulus/audwhere_stim/right_away_270h.wav,stimulus/audwhere_stim/left_away_280h.wav,stimulus/audwhere_stim/blank_white.png,stimulus/audwhere_stim/side_box.png,stimulus/audwhere_stim/side_yes.png,stimulus/audwhere_stim/side_no.png,None,Side,None,Direction,2,0.0,0,5.125,0,5.125,0,5.125,0,0.0,0.625,0,0,0,0,0,0,0,0,0,0.0,0,0.0,1,0.5,1,2.125,0,,,,,0,42,42,42,,,,,,,,,386.23461666599906,386.23461666599906,386.23461666599906,386.23461666599906,386.23461666599906,386.23461666599906,386.23461666599906,386.23461666599906,386.15894291633424,386.23461666599906,386.23461666599906,386.23461666599906,386.15894291633424,386.23461666599906,386.23461666599906,386.23461666599906,388.3479906249995,392.3648831249993,386.23461666599906,386.23461666599906,391.3842868749998,386.23461666599906,386.23461666599906,386.23461666599906,386.23461666599906,386.69298258300114,387.75018729099975,386.66317341666604,,388.3479906249995,389.4086544160018,388.3183022496671,,386.23461666599906,391.3842868749998,386.23461666599906,391.3842868749998,391.46512591600185,392.1130576249998,386.23461666599906,1,0,1.3297462500013353,reldom2_s034,001,2025-03-13_15h26.35.522,Aud-A-Scan_AC,2022.2.5,None,
33,First_Order,6.0,audwhere,stimulus/audwhere_stim/dummy.wav,stimulus/audwhere_stim/dummy.wav,stimulus/audwhere_stim/left_toward_270h.wav,stimulus/audwhere_stim/left_away_270h.wav,stimulus/audwhere_stim/blank_white.png,stimulus/audwhere_stim/direction_box.png,stimulus/audwhere_stim/direction_yes.png,stimulus/audwhere_stim/direction_no.png,None,Direction,None,Side,2,0.0,0,5.125,0,5.125,0,5.125,0,0.0,0.625,0,0,0,0,0,0,0,0,0,0.0,0,0.0,1,0.5,1,2.125,0,,,,,0,43,43,43,,,,,,,,,392.3648831249993,392.3648831249993,392.3648831249993,392.3648831249993,392.3648831249993,392.3648831249993,392.3648831249993,392.3648831249993,392.2869244163322,392.3648831249993,392.3648831249993,392.3648831249993,392.2869244163322,392.3648831249993,392.3648831249993,392.3648831249993,394.4518433750018,,392.3648831249993,392.3648831249993,397.51949879099993,392.3648831249993,392.3648831249993,392.3648831249993,392.3648831249993,392.82850600000165,393.89651508300085,392.7986734576664,,394.4518433750018,395.52460537500156,394.4219702916673,,392.3648831249993,397.51949879099993,392.3648831249993,397.51949879099993,397.56063329099925,398.2094795410012,392.3648831249993,2,1,1.8868790839987923,reldom2_s034,001,2025-03-13_15h26.35.522,Aud-A-Scan_AC,2022.2.5,None,
34,First_Order,6.0,audwhere,stimulus/audwhere_stim/dummy.wav,stimulus/audwhere_stim/dummy.wav,stimulus/audwhere_stim/left_toward_300h.wav,stimulus/audwhere_stim/left_away_300h.wav,stimulus/audwhere_stim/blank_white.png,stimulus/audwhere_stim/side_box.png,stimulus/audwhere_stim/side_yes.png,stimulus/audwhere_stim/side_no.png,None,Side,None,Side,1,0.0,0,5.125,0,5.125,0,5.125,0,0.0,0.625,0,0,0,0,0,0,0,0,0,0.0,0,0.0,1,0.5,1,2.125,0,,,,,0,44,44,44,,,,,,,,,398.4625692910013,398.4625692910013,398.4625692910013,398.4625692910013,398.4625692910013,398.4625692910013,398.4625692910013,398.4625692910013,398.38365283333235,398.4625692910013,398.4625692910013,398.4625692910013,398.38365283333235,398.4625692910013,398.4625692910013,398.4625692910013,400.5440387080016,404.6034075409989,398.4625692910013,398.4625692910013,403.64050150000185,398.4625692910013,398.4625692910013,398.4625692910013,398.4625692910013,398.92525695800214,399.9890768330006,398.89560358266704,,400.5440387080016,401.6101193329996,400.5139424996671,,398.4625692910013,403.64050150000185,398.4625692910013,403.64050150000185,403.68143129099917,404.330940541,398.4625692910013,1,1,1.32185537499754,reldom2_s034,001,2025-03-13_15h26.35.522,Aud-A-Scan_AC,2022.2.5,None,
0,0.0,None,fixation,stimulus/audwhere_stim/blank_white.png,stimulus/audwhere_stim/blank_white.png,stimulus/audwhat_stim/blank_white.png,stimulus/audwhat_stim/blank_white.png,stimulus/audwhere_stim/blank_white.png,stimulus/audwhere_stim/blank_white.png,stimulus/audwhere_stim/blank_white.png,stimulus/audwhere_stim/blank_white.png,0.0,0.0,0.0,0.0,0,0.0,0,0.0,0,0.0,0,0.0,0,0.0,0.0,0,0,0,0,0,0,0,0,0,0.0,0,0.0,0,0.0,0,0.0,10,,,,,0,45,45,45,,,,,,,,,404.6034075409989,404.6034075409989,404.6034075409989,404.6034075409989,404.6034075409989,404.6034075409989,404.6034075409989,404.6034075409989,404.504427666334,404.6034075409989,404.6034075409989,404.6034075409989,404.504427666334,404.6034075409989,404.6034075409989,404.6034075409989,404.6034075409989,404.6034075409989,404.6034075409989,404.6034075409989,404.6034075409989,404.6034075409989,404.6034075409989,404.6034075409989,404.6034075409989,404.6034075409989,404.6034075409989,404.554427666334,404.6034075409989,404.6034075409989,404.6034075409989,404.554427666334,404.6034075409989,404.6034075409989,404.6034075409989,404.6034075409989,404.6034075409989,409.813117083002,409.813117083002,414.7389593750013,None,0,,reldom2_s034,001,2025-03-13_15h26.35.522,Aud-A-Scan_AC,2022.2.5,None,
35,Second_Order,6.0,audwhere,stimulus/audwhere_stim/left_away_280h.wav,stimulus/audwhere_stim/left_toward_300h.wav,stimulus/audwhere_stim/right_away_280h.wav,stimulus/audwhere_stim/right_toward_300h.wav,stimulus/audwhere_stim/match_blank.png,stimulus/audwhere_stim/match_box.png,stimulus/audwhere_stim/match_yes.png,stimulus/audwhere_stim/match_no.png,1.0,Match,Side,Side,1,5.125,0,5.125,0,5.125,0,5.125,0,0.75,0.75,0,0,0,0,0,0,0,0,1,0.5,1,2.125,1,0.5,1,2.125,0,,,,,0,46,46,46,,,,,,,,,414.7389593750013,419.85961812499954,414.7389593750013,414.7389593750013,414.7389593750013,414.7389593750013,415.1982253749993,416.19661070800066,415.2108475826683,,416.8193062909995,417.8174166659992,416.8314842496659,,419.85961812499954,420.70546575000117,422.76539262499864,,420.70546575000117,420.70546575000117,425.8855279999989,420.70546575000117,420.70546575000117,420.70546575000117,420.70546575000117,421.16208137500143,422.2167269160018,421.1329428326683,,422.76539262499864,423.82329675000074,422.7364827916683,,420.70546575000117,425.8855279999989,420.70546575000117,425.8855279999989,425.8855279999989,,420.70546575000117,1,1,1.1706573340015893,reldom2_s034,001,2025-03-13_15h26.35.522,Aud-A-Scan_AC,2022.2.5,None,
36,Second_Order,6.0,audwhere,stimulus/audwhere_stim/left_away_290h.wav,stimulus/audwhere_stim/left_toward_270h.wav,stimulus/audwhere_stim/left_toward_290h.wav,stimulus/audwhere_stim/right_toward_270h.wav,stimulus/audwhere_stim/match_blank.png,stimulus/audwhere_stim/match_box.png,stimulus/audwhere_stim/match_yes.png,stimulus/audwhere_stim/match_no.png,2.0,Match,Side,Direction,2,5.125,0,5.125,0,5.125,0,5.125,0,0.625,0.625,0,0,0,0,0,0,0,0,1,0.5,1,2.125,1,0.5,1,2.125,0,,,,,0,47,47,47,,,,,,,,,426.68630129099984,431.80484637500194,426.68630129099984,426.68630129099984,426.68630129099984,426.68630129099984,427.1402291250015,428.1279433330019,427.154756832668,,428.76323050000065,429.76141670799916,428.77580308266647,,431.80484637500194,432.5321929999991,434.57286841600217,,432.5321929999991,432.5321929999991,437.71862474999944,432.5321929999991,432.5321929999991,432.5321929999991,432.5321929999991,432.9845247500016,434.02941949999877,432.95544499966877,433.9839854999991,434.57286841600217,435.620820832999,434.54410549966656,,432.5321929999991,437.71862474999944,432.5321929999991,437.71862474999944,437.71862474999944,438.40099137500147,432.5321929999991,2,1,1.6118383749999339,reldom2_s034,001,2025-03-13_15h26.35.522,Aud-A-Scan_AC,2022.2.5,None,
0,0.0,None,fixation,stimulus/audwhere_stim/blank_white.png,stimulus/audwhere_stim/blank_white.png,stimulus/audwhat_stim/blank_white.png,stimulus/audwhat_stim/blank_white.png,stimulus/audwhere_stim/blank_white.png,stimulus/audwhere_stim/blank_white.png,stimulus/audwhere_stim/blank_white.png,stimulus/audwhere_stim/blank_white.png,0.0,0.0,0.0,0.0,0,0.0,0,0.0,0,0.0,0,0.0,0,0.0,0.0,0,0,0,0,0,0,0,0,0,0.0,0,0.0,0,0.0,0,0.0,9,,,,,0,48,48,48,,,,,,,,,438.6298190000016,438.6298190000016,438.6298190000016,438.6298190000016,438.6298190000016,438.6298190000016,438.6298190000016,438.6298190000016,438.5343247083348,438.6298190000016,438.6298190000016,438.6298190000016,438.5343247083348,438.6298190000016,438.6298190000016,438.6298190000016,438.6298190000016,438.6298190000016,438.6298190000016,438.6298190000016,438.6298190000016,438.6298190000016,438.6298190000016,438.6298190000016,438.6298190000016,438.6298190000016,438.6298190000016,438.5843247083348,438.6298190000016,438.6298190000016,438.6298190000016,438.5843247083348,438.6298190000016,438.6298190000016,438.6298190000016,438.6298190000016,438.6298190000016,443.8261883330015,443.8261883330015,447.8536045410001,None,0,,reldom2_s034,001,2025-03-13_15h26.35.522,Aud-A-Scan_AC,2022.2.5,None,
37,First_Order,7.0,audwhat,stimulus/audwhat_stim/dummy.wav,stimulus/audwhat_stim/dummy.wav,stimulus/audwhat_stim/string cello_low-pitch_Ftri_loud.wav,stimulus/audwhat_stim/string cello_high-pitch_D_loud.wav,stimulus/audwhat_stim/blank_white.png,stimulus/audwhat_stim/pitch_box.png,stimulus/audwhat_stim/pitch_yes.png,stimulus/audwhat_stim/pitch_no.png,None,Pitch,None,Category,2,0.0,0,5.125,0,5.125,0,5.125,0,0.0,0.625,0,0,0,0,0,0,0,0,0,0.0,0,0.0,1,0.5,1,2.125,0,,,,,0,49,49,49,,,,,,,,,447.8536045410001,447.8536045410001,447.8536045410001,447.8536045410001,447.8536045410001,447.8536045410001,447.8536045410001,447.8536045410001,447.7848840826688,447.8536045410001,447.8536045410001,447.8536045410001,447.7848840826688,447.8536045410001,447.8536045410001,447.8536045410001,449.967157416002,,447.8536045410001,447.8536045410001,453.00820941599886,447.8536045410001,447.8536045410001,447.8536045410001,447.8536045410001,448.31262466599946,449.3697994159993,448.2830636246656,,449.967157416002,451.02684645800036,449.9375652916681,,447.8536045410001,453.00820941599886,447.8536045410001,453.00820941599886,453.04873520800174,453.6981031659998,447.8536045410001,2,1,1.0733291249998729,reldom2_s034,001,2025-03-13_15h26.35.522,Aud-A-Scan_AC,2022.2.5,None,
38,First_Order,7.0,audwhat,stimulus/audwhat_stim/dummy.wav,stimulus/audwhat_stim/dummy.wav,stimulus/audwhat_stim/string cello_low-pitch_D_loud.wav,stimulus/audwhat_stim/string cello_high-pitch_Ftri_loud.wav,stimulus/audwhat_stim/blank_white.png,stimulus/audwhat_stim/pitch_box.png,stimulus/audwhat_stim/pitch_yes.png,stimulus/audwhat_stim/pitch_no.png,None,Pitch,None,Category,2,0.0,0,5.125,0,5.125,0,5.125,0,0.0,0.625,0,0,0,0,0,0,0,0,0,0.0,0,0.0,1,0.5,1,2.125,0,,,,,0,50,50,50,,,,,,,,,453.94955950000076,453.94955950000076,453.94955950000076,453.94955950000076,453.94955950000076,453.94955950000076,453.94955950000076,453.94955950000076,453.8717460413337,453.94955950000076,453.94955950000076,453.94955950000076,453.8717460413337,453.94955950000076,453.94955950000076,453.94955950000076,456.0248898329992,,453.94955950000076,453.94955950000076,459.11383133300114,453.94955950000076,453.94955950000076,453.94955950000076,453.94955950000076,454.41066325000065,455.47217129099954,454.38102841666864,,456.0248898329992,457.08630562500184,455.9951579166666,,453.94955950000076,459.11383133300114,453.94955950000076,459.11383133300114,459.15470970800015,459.8042398329999,453.94955950000076,2,1,1.095086833996902,reldom2_s034,001,2025-03-13_15h26.35.522,Aud-A-Scan_AC,2022.2.5,None,
39,First_Order,7.0,audwhat,stimulus/audwhat_stim/dummy.wav,stimulus/audwhat_stim/dummy.wav,stimulus/audwhat_stim/percussion xylophone_high-pitch_Dtri_loud.wav,stimulus/audwhat_stim/string cello_high-pitch_Dtri_loud.wav,stimulus/audwhat_stim/blank_white.png,stimulus/audwhat_stim/pitch_box.png,stimulus/audwhat_stim/pitch_yes.png,stimulus/audwhat_stim/pitch_no.png,None,Pitch,None,Pitch,1,0.0,0,5.125,0,5.125,0,5.125,0,0.0,0.625,0,0,0,0,0,0,0,0,0,0.0,0,0.0,1,0.5,1,2.125,0,,,,,0,51,51,51,,,,,,,,,460.0560328749998,460.0560328749998,460.0560328749998,460.0560328749998,460.0560328749998,460.0560328749998,460.0560328749998,460.0560328749998,459.977964666332,460.0560328749998,460.0560328749998,460.0560328749998,459.977964666332,460.0560328749998,460.0560328749998,460.0560328749998,462.1304605410005,466.17253875000097,460.0560328749998,460.0560328749998,465.2312864580017,460.0560328749998,460.0560328749998,460.0560328749998,460.0560328749998,460.5174504579991,461.57636991600157,460.48771887466523,461.5300653330014,462.1304605410005,463.195170125,462.10056304166596,,460.0560328749998,465.2312864580017,460.0560328749998,465.2312864580017,465.272386749999,465.9214542080008,460.0560328749998,1,1,1.2799046250001993,reldom2_s034,001,2025-03-13_15h26.35.522,Aud-A-Scan_AC,2022.2.5,None,
40,First_Order,7.0,audwhat,stimulus/audwhat_stim/dummy.wav,stimulus/audwhat_stim/dummy.wav,stimulus/audwhat_stim/string cello_low-pitch_D_loud.wav,stimulus/audwhat_stim/percussion mallet_low-pitch_D_loud.wav,stimulus/audwhat_stim/blank_white.png,stimulus/audwhat_stim/pitch_box.png,stimulus/audwhat_stim/pitch_yes.png,stimulus/audwhat_stim/pitch_no.png,None,Pitch,None,Pitch,1,0.0,0,5.125,0,5.125,0,5.125,0,0.0,0.625,0,0,0,0,0,0,0,0,0,0.0,0,0.0,1,0.5,1,2.125,0,,,,,0,52,52,52,,,,,,,,,466.17253875000097,466.17253875000097,466.17253875000097,466.17253875000097,466.17253875000097,466.17253875000097,466.17253875000097,466.17253875000097,466.0952045413343,466.17253875000097,466.17253875000097,466.17253875000097,466.0952045413343,466.17253875000097,466.17253875000097,466.17253875000097,468.25250512500133,472.3151371249987,466.17253875000097,466.17253875000097,471.35257249999995,466.17253875000097,466.17253875000097,466.17253875000097,466.17253875000097,466.63458312500006,467.6980227080021,466.60491220766585,,468.25250512500133,469.3210701249991,468.22285558266617,,466.17253875000097,471.35257249999995,466.17253875000097,471.35257249999995,471.393224833002,472.04283716600185,466.17253875000097,1,1,0.8532804999995278,reldom2_s034,001,2025-03-13_15h26.35.522,Aud-A-Scan_AC,2022.2.5,None,
0,0.0,None,fixation,stimulus/audwhere_stim/blank_white.png,stimulus/audwhere_stim/blank_white.png,stimulus/audwhat_stim/blank_white.png,stimulus/audwhat_stim/blank_white.png,stimulus/audwhere_stim/blank_white.png,stimulus/audwhere_stim/blank_white.png,stimulus/audwhere_stim/blank_white.png,stimulus/audwhere_stim/blank_white.png,0.0,0.0,0.0,0.0,0,0.0,0,0.0,0,0.0,0,0.0,0,0.0,0.0,0,0,0,0,0,0,0,0,0,0.0,0,0.0,0,0.0,0,0.0,10,,,,,0,53,53,53,,,,,,,,,472.3151371249987,472.3151371249987,472.3151371249987,472.3151371249987,472.3151371249987,472.3151371249987,472.3151371249987,472.3151371249987,472.21690695833433,472.3151371249987,472.3151371249987,472.3151371249987,472.21690695833433,472.3151371249987,472.3151371249987,472.3151371249987,472.3151371249987,472.3151371249987,472.3151371249987,472.3151371249987,472.3151371249987,472.3151371249987,472.3151371249987,472.3151371249987,472.3151371249987,472.3151371249987,472.3151371249987,472.26690695833435,472.3151371249987,472.3151371249987,472.3151371249987,472.26690695833435,472.3151371249987,472.3151371249987,472.3151371249987,472.3151371249987,472.3151371249987,477.53224387500086,477.53224387500086,482.46638716600137,None,0,,reldom2_s034,001,2025-03-13_15h26.35.522,Aud-A-Scan_AC,2022.2.5,None,
41,Second_Order,7.0,audwhat,stimulus/audwhat_stim/percussion xylophone_high-pitch_Ftri_loud.wav,stimulus/audwhat_stim/percussion mallet_low-pitch_Dtri_loud.wav,stimulus/audwhat_stim/string viola_low-pitch_Ftri_loud.wav,stimulus/audwhat_stim/percussion mallet_low-pitch_Ftri_loud.wav,stimulus/audwhere_stim/match_blank.png,stimulus/audwhat_stim/match_box.png,stimulus/audwhere_stim/match_yes.png,stimulus/audwhere_stim/match_no.png,2.0,Match,Category,Pitch,2,5.125,0,5.125,0,5.125,0,5.125,0,0.75,0.75,0,0,0,0,0,0,0,0,1,0.5,1,2.125,1,0.5,1,2.125,0,,,,,0,54,54,54,,,,,,,,,482.46638716600137,487.58301816600215,482.46638716600137,482.46638716600137,482.46638716600137,482.46638716600137,482.9212050829992,483.9199649580005,482.93425270766625,483.92356225000185,484.54224862499905,485.5404760829988,484.5549655416655,,487.58301816600215,488.4346396660003,490.4920582500017,494.4185210409996,488.4346396660003,488.4346396660003,493.61482791600065,488.4346396660003,488.4346396660003,488.4346396660003,488.4346396660003,488.8903071249988,489.9440054580009,488.86153737466543,,490.4920582500017,491.5541834579999,490.4619407076682,,488.4346396660003,493.61482791600065,488.4346396660003,493.61482791600065,493.61482791600065,,488.4346396660003,2,1,0.8551336669988814,reldom2_s034,001,2025-03-13_15h26.35.522,Aud-A-Scan_AC,2022.2.5,None,
42,Second_Order,7.0,audwhat,stimulus/audwhat_stim/string cello_high-pitch_Dtri_loud.wav,stimulus/audwhat_stim/percussion mallet_high-pitch_Dtri_loud.wav,stimulus/audwhat_stim/percussion mallet_low-pitch_D_loud.wav,stimulus/audwhat_stim/string cello_low-pitch_D_loud.wav,stimulus/audwhere_stim/match_blank.png,stimulus/audwhat_stim/match_box.png,stimulus/audwhere_stim/match_yes.png,stimulus/audwhere_stim/match_no.png,1.0,Match,Pitch,Pitch,1,5.125,0,5.125,0,5.125,0,5.125,0,0.625,0.625,0,0,0,0,0,0,0,0,1,0.5,1,2.125,1,0.5,1,2.125,0,,,,,0,55,55,55,,,,,,,,,494.4185210409996,499.53917516599904,494.4185210409996,494.4185210409996,494.4185210409996,494.4185210409996,494.8659262500005,495.8638167079989,494.8790632076673,,496.49949387499873,497.4884632079993,496.5036050826677,,499.53917516599904,500.2746264160014,502.3206620000019,506.37730137499966,500.2746264160014,500.2746264160014,505.4272451249999,500.2746264160014,500.2746264160014,500.2746264160014,500.2746264160014,500.7268464580011,501.77293508300136,500.69777224966697,501.72740179099856,502.3206620000019,503.37568737499896,502.29146079166844,,500.2746264160014,505.4272451249999,500.2746264160014,505.4272451249999,505.46747816599964,506.14836800000194,500.2746264160014,1,1,1.1266157089994522,reldom2_s034,001,2025-03-13_15h26.35.522,Aud-A-Scan_AC,2022.2.5,None,
0,0.0,None,fixation,stimulus/audwhere_stim/blank_white.png,stimulus/audwhere_stim/blank_white.png,stimulus/audwhat_stim/blank_white.png,stimulus/audwhat_stim/blank_white.png,stimulus/audwhere_stim/blank_white.png,stimulus/audwhere_stim/blank_white.png,stimulus/audwhere_stim/blank_white.png,stimulus/audwhere_stim/blank_white.png,0.0,0.0,0.0,0.0,0,0.0,0,0.0,0,0.0,0,0.0,0,0.0,0.0,0,0,0,0,0,0,0,0,0,0.0,0,0.0,0,0.0,0,0.0,9,,,,,0,56,56,56,,,,,,,,,506.37730137499966,506.37730137499966,506.37730137499966,506.37730137499966,506.37730137499966,506.37730137499966,506.37730137499966,506.37730137499966,506.28170133333526,506.37730137499966,506.37730137499966,506.37730137499966,506.28170133333526,506.37730137499966,506.37730137499966,506.37730137499966,506.37730137499966,506.37730137499966,506.37730137499966,506.37730137499966,506.37730137499966,506.37730137499966,506.37730137499966,506.37730137499966,506.37730137499966,506.37730137499966,506.37730137499966,506.3317013333353,506.37730137499966,506.37730137499966,506.37730137499966,506.3317013333353,506.37730137499966,506.37730137499966,506.37730137499966,506.37730137499966,506.37730137499966,511.578705625001,511.578705625001,515.6104543750007,None,0,,reldom2_s034,001,2025-03-13_15h26.35.522,Aud-A-Scan_AC,2022.2.5,None,
43,First_Order,8.0,audwhat,stimulus/audwhat_stim/dummy.wav,stimulus/audwhat_stim/dummy.wav,stimulus/audwhat_stim/string viola_low-pitch_F_loud.wav,stimulus/audwhat_stim/percussion mallet_low-pitch_F_loud.wav,stimulus/audwhat_stim/blank_white.png,stimulus/audwhat_stim/category_box.png,stimulus/audwhat_stim/category_yes.png,stimulus/audwhat_stim/category_no.png,None,Category,None,Pitch,2,0.0,0,5.125,0,5.125,0,5.125,0,0.0,0.625,0,0,0,0,0,0,0,0,0,0.0,0,0.0,1,0.5,1,2.125,0,,,,,0,57,57,57,,,,,,,,,515.6104543750007,515.6104543750007,515.6104543750007,515.6104543750007,515.6104543750007,515.6104543750007,515.6104543750007,515.6104543750007,515.5409350416654,515.6104543750007,515.6104543750007,515.6104543750007,515.5409350416654,515.6104543750007,515.6104543750007,515.6104543750007,517.6902261659998,521.7268294999994,515.6104543750007,515.6104543750007,520.785312750002,515.6104543750007,515.6104543750007,515.6104543750007,515.6104543750007,516.0715113330007,517.1366505000005,516.0416619166683,,517.6902261659998,518.7566779580011,517.6604187496671,,515.6104543750007,520.785312750002,515.6104543750007,520.785312750002,520.8253109159996,521.4762268330014,515.6104543750007,2,1,1.9287727500013716,reldom2_s034,001,2025-03-13_15h26.35.522,Aud-A-Scan_AC,2022.2.5,None,
44,First_Order,8.0,audwhat,stimulus/audwhat_stim/dummy.wav,stimulus/audwhat_stim/dummy.wav,stimulus/audwhat_stim/percussion mallet_low-pitch_Dtri_loud.wav,stimulus/audwhat_stim/percussion xylophone_high-pitch_F_loud.wav,stimulus/audwhat_stim/blank_white.png,stimulus/audwhat_stim/category_box.png,stimulus/audwhat_stim/category_yes.png,stimulus/audwhat_stim/category_no.png,None,Category,None,Category,1,0.0,0,5.125,0,5.125,0,5.125,0,0.0,0.625,0,0,0,0,0,0,0,0,0,0.0,0,0.0,1,0.5,1,2.125,0,,,,,0,58,58,58,,,,,,,,,521.7268294999994,521.7268294999994,521.7268294999994,521.7268294999994,521.7268294999994,521.7268294999994,521.7268294999994,521.7268294999994,521.6495221243332,521.7268294999994,521.7268294999994,521.7268294999994,521.6495221243332,521.7268294999994,521.7268294999994,521.7268294999994,523.8161650000002,,521.7268294999994,521.7268294999994,526.919264832999,521.7268294999994,521.7268294999994,521.7268294999994,521.7268294999994,522.190417875001,523.2595464160004,522.1600097916673,,523.8161650000002,524.8826410830006,523.7862712496683,524.8365115000015,521.7268294999994,526.919264832999,521.7268294999994,526.919264832999,526.919264832999,527.568490083002,521.7268294999994,1,1,1.3204001669982972,reldom2_s034,001,2025-03-13_15h26.35.522,Aud-A-Scan_AC,2022.2.5,None,
45,First_Order,8.0,audwhat,stimulus/audwhat_stim/dummy.wav,stimulus/audwhat_stim/dummy.wav,stimulus/audwhat_stim/string cello_high-pitch_Dtri_loud.wav,stimulus/audwhat_stim/percussion xylophone_high-pitch_Dtri_loud.wav,stimulus/audwhat_stim/blank_white.png,stimulus/audwhat_stim/category_box.png,stimulus/audwhat_stim/category_yes.png,stimulus/audwhat_stim/category_no.png,None,Category,None,Pitch,2,0.0,0,5.125,0,5.125,0,5.125,0,0.0,0.625,0,0,0,0,0,0,0,0,0,0.0,0,0.0,1,0.5,1,2.125,0,,,,,0,59,59,59,,,,,,,,,527.8202363749988,527.8202363749988,527.8202363749988,527.8202363749988,527.8202363749988,527.8202363749988,527.8202363749988,527.8202363749988,527.7426002083322,527.8202363749988,527.8202363749988,527.8202363749988,527.7426002083322,527.8202363749988,527.8202363749988,527.8202363749988,529.9071408749987,,527.8202363749988,527.8202363749988,532.9702574580006,527.8202363749988,527.8202363749988,527.8202363749988,527.8202363749988,528.2827370410014,529.3497440409992,528.2531807496673,,529.9071408749987,530.976874791002,529.8767710826653,530.9306972500017,527.8202363749988,532.9702574580006,527.8202363749988,532.9702574580006,533.0118277500005,533.6669512910012,527.8202363749988,2,1,0.9903438340006687,reldom2_s034,001,2025-03-13_15h26.35.522,Aud-A-Scan_AC,2022.2.5,None,
46,First_Order,8.0,audwhat,stimulus/audwhat_stim/dummy.wav,stimulus/audwhat_stim/dummy.wav,stimulus/audwhat_stim/percussion mallet_low-pitch_Ftri_loud.wav,stimulus/audwhat_stim/percussion mallet_high-pitch_F_loud.wav,stimulus/audwhat_stim/blank_white.png,stimulus/audwhat_stim/category_box.png,stimulus/audwhat_stim/category_yes.png,stimulus/audwhat_stim/category_no.png,None,Category,None,Category,1,0.0,0,5.125,0,5.125,0,5.125,0,0.0,0.625,0,0,0,0,0,0,0,0,0,0.0,0,0.0,1,0.5,1,2.125,0,,,,,0,60,60,60,,,,,,,,,533.9191306659995,533.9191306659995,533.9191306659995,533.9191306659995,533.9191306659995,533.9191306659995,533.9191306659995,533.9191306659995,533.8401744993336,533.9191306659995,533.9191306659995,533.9191306659995,533.8401744993336,533.9191306659995,533.9191306659995,533.9191306659995,536.008674875,,533.9191306659995,533.9191306659995,539.0782368750006,533.9191306659995,533.9191306659995,533.9191306659995,533.9191306659995,534.3841891250013,535.4518648330013,534.3537138326685,,536.008674875,537.0817767500012,535.9785249576673,,533.9191306659995,539.0782368750006,533.9191306659995,539.0782368750006,539.119401041,539.7721458330016,533.9191306659995,1,1,2.3780542089989467,reldom2_s034,001,2025-03-13_15h26.35.522,Aud-A-Scan_AC,2022.2.5,None,
0,0.0,None,fixation,stimulus/audwhere_stim/blank_white.png,stimulus/audwhere_stim/blank_white.png,stimulus/audwhat_stim/blank_white.png,stimulus/audwhat_stim/blank_white.png,stimulus/audwhere_stim/blank_white.png,stimulus/audwhere_stim/blank_white.png,stimulus/audwhere_stim/blank_white.png,stimulus/audwhere_stim/blank_white.png,0.0,0.0,0.0,0.0,0,0.0,0,0.0,0,0.0,0,0.0,0,0.0,0.0,0,0,0,0,0,0,0,0,0,0.0,0,0.0,0,0.0,0,0.0,8,,,,,0,61,61,61,,,,,,,,,540.0448161659988,540.0448161659988,540.0448161659988,540.0448161659988,540.0448161659988,540.0448161659988,540.0448161659988,540.0448161659988,539.9457002083346,540.0448161659988,540.0448161659988,540.0448161659988,539.9457002083346,540.0448161659988,540.0448161659988,540.0448161659988,540.0448161659988,540.0448161659988,540.0448161659988,540.0448161659988,540.0448161659988,540.0448161659988,540.0448161659988,540.0448161659988,540.0448161659988,540.0448161659988,540.0448161659988,539.9957002083346,540.0448161659988,540.0448161659988,540.0448161659988,539.9957002083346,540.0448161659988,540.0448161659988,540.0448161659988,540.0448161659988,540.0448161659988,545.2675656249994,545.2675656249994,548.191055583,None,0,,reldom2_s034,001,2025-03-13_15h26.35.522,Aud-A-Scan_AC,2022.2.5,None,
47,Second_Order,8.0,audwhat,stimulus/audwhat_stim/string cello_high-pitch_F_loud.wav,stimulus/audwhat_stim/string viola_low-pitch_D_loud.wav,stimulus/audwhat_stim/percussion mallet_low-pitch_Ftri_loud.wav,stimulus/audwhat_stim/percussion xylophone_high-pitch_F_loud.wav,stimulus/audwhere_stim/match_blank.png,stimulus/audwhat_stim/match_box.png,stimulus/audwhere_stim/match_yes.png,stimulus/audwhere_stim/match_no.png,1.0,Match,Category,Category,1,5.125,0,5.125,0,5.125,0,5.125,0,0.75,0.75,0,0,0,0,0,0,0,0,1,0.5,1,2.125,1,0.5,1,2.125,0,,,,,0,62,62,62,,,,,,,,,548.191055583,553.3131776660011,548.191055583,548.191055583,548.191055583,548.191055583,548.6381473330002,549.625292875,548.6523285416663,,550.2729367909997,551.2618216660012,550.2766640826669,,553.3131776660011,554.1633989580005,556.227168458001,560.1596920000011,554.1633989580005,554.1633989580005,559.3148500409989,554.1633989580005,554.1633989580005,554.1633989580005,554.1633989580005,554.620195208001,555.6778645830018,554.5908971246683,,556.227168458001,557.2908964999988,556.1979573326682,557.244799291002,554.1633989580005,559.3148500409989,554.1633989580005,559.3148500409989,559.3553782080016,,554.1633989580005,1,1,0.6891124169997056,reldom2_s034,001,2025-03-13_15h26.35.522,Aud-A-Scan_AC,2022.2.5,None,
48,Second_Order,8.0,audwhat,stimulus/audwhat_stim/percussion mallet_high-pitch_Ftri_loud.wav,stimulus/audwhat_stim/percussion mallet_low-pitch_D_loud.wav,stimulus/audwhat_stim/string cello_high-pitch_Ftri_loud.wav,stimulus/audwhat_stim/percussion xylophone_high-pitch_Ftri_loud.wav,stimulus/audwhere_stim/match_blank.png,stimulus/audwhat_stim/match_box.png,stimulus/audwhere_stim/match_yes.png,stimulus/audwhere_stim/match_no.png,2.0,Match,Category,Pitch,2,5.125,0,5.125,0,5.125,0,5.125,0,0.625,0.625,0,0,0,0,0,0,0,0,1,0.5,1,2.125,1,0.5,1,2.125,0,,,,,0,63,63,63,,,,,,,,,560.1596920000011,565.2790090830022,560.1596920000011,560.1596920000011,560.1596920000011,560.1596920000011,560.6172965410005,561.6031645000003,560.6300435826672,,562.237912208002,563.2363645410005,562.2505047076668,,565.2790090830022,566.007438790999,568.0565724160006,572.113569041001,566.007438790999,566.007438790999,571.1600089999993,566.007438790999,566.007438790999,566.007438790999,566.007438790999,566.4595852499988,567.5089540000008,566.4302763326671,,568.0565724160006,569.1100824579989,568.0274104576677,569.0644999579999,566.007438790999,571.1600089999993,566.007438790999,571.1600089999993,571.2002650409995,571.8851197500007,566.007438790999,2,1,1.184737874998973,reldom2_s034,001,2025-03-13_15h26.35.522,Aud-A-Scan_AC,2022.2.5,None,
0,0.0,None,fixation,stimulus/audwhere_stim/blank_white.png,stimulus/audwhere_stim/blank_white.png,stimulus/audwhat_stim/blank_white.png,stimulus/audwhat_stim/blank_white.png,stimulus/audwhere_stim/blank_white.png,stimulus/audwhere_stim/blank_white.png,stimulus/audwhere_stim/blank_white.png,stimulus/audwhere_stim/blank_white.png,0.0,0.0,0.0,0.0,0,0.0,0,0.0,0,0.0,0,0.0,0,0.0,0.0,0,0,0,0,0,0,0,0,0,0.0,0,0.0,0,0.0,0,0.0,16,,,,,0,64,64,64,,,,,,,,,572.113569041001,572.113569041001,572.113569041001,572.113569041001,572.113569041001,572.113569041001,572.113569041001,572.113569041001,572.0184530833341,572.113569041001,572.113569041001,572.113569041001,572.0184530833341,572.113569041001,572.113569041001,572.113569041001,572.113569041001,572.113569041001,572.113569041001,572.113569041001,572.113569041001,572.113569041001,572.113569041001,572.113569041001,572.113569041001,572.113569041001,572.113569041001,572.068453083334,572.113569041001,572.113569041001,572.113569041001,572.068453083334,572.113569041001,572.113569041001,572.113569041001,572.113569041001,572.113569041001,577.323980041001,577.323980041001,588.2510797079995,None,0,,reldom2_s034,001,2025-03-13_15h26.35.522,Aud-A-Scan_AC,2022.2.5,None,
