Trial,Order,Block,Type,Stimuli_File1,Stimuli_File2,Stimuli_File3,Stimuli_File4,Cue_File1,Cue_File2,Response_File_Yes,Response_File_No,Match,Cue_Dimension,Pair1_Dimension,Pair2_Dimension,Key,Cue1_Duration,Cue1_Onset,Cue2_Duration,Cue2_Onset,ResponseYes_Duration,ResponseYes_Onset,ResponseNo_Duration,ResponseNo_Onset,ITI_Within,ITI_Between,Image1_Duration,Image1_Onset,Image2_Duration,Image2_Onset,Image3_Duration,Image3_Onset,Image4_Duration,Image4_Onset,Sound1_Duration,Sound1_Onset,Sound2_Duration,Sound2_Onset,Sound3_Duration,Sound3_Onset,Sound4_Duration,Sound4_Onset,Fixation_Duration,trials_2.thisRepN,trials_2.thisTrialN,trials_2.thisN,trials_2.thisIndex,trials.thisRepN,trials.thisTrialN,trials.thisN,trials.thisIndex,text_start.started,key_resp_start.started,key_resp_start.keys,key_resp_start.rt,text2.started,key_resp_2.started,key_resp_2.keys,key_resp_2.rt,cue_file1.started,cue_file1.stopped,image_1.started,image_1.stopped,image_2.started,image_2.stopped,sound_icon1.started,sound_icon1.stopped,sound_1.started,sound_1.stopped,sound_icon2.started,sound_icon2.stopped,sound_2.started,sound_2.stopped,image_blank_1.started,image_blank_1.stopped,key_press.started,key_press.stopped,fixation_text.started,cue_file2.started,cue_file2.stopped,image_3.started,image_3.stopped,image_4.started,image_4.stopped,sound_icon3.started,sound_icon3.stopped,sound_3.started,sound_3.stopped,sound_icon4.started,sound_icon4.stopped,sound_4.started,sound_4.stopped,response_yes.started,response_yes.stopped,response_no.started,response_no.stopped,iti_blank.started,iti_blank.stopped,fixation_text.stopped,key_press.keys,key_press.corr,key_press.rt,participant,session,date,expName,psychopyVersion,frameRate,
,,,,,,,,,,,,,,,,,,,,,,,,,,,,,,,,,,,,,,,,,,,,,,,,,,,,7.688118834001216,7.688118834001216,2,1.1013048750028247,,,,,,,,,,,,,,,,,,,,,,,,,,,,,,,,,,,,,,,,,,,,,,,,reldom2_s034,001,2025-03-13_16h03.26.621,Where-A-Scan_AC,2022.2.5,None,
,,,,,,,,,,,,,,,,,,,,,,,,,,,,,,,,,,,,,,,,,,,,0,0,0,0,,,,,,,,,8.829952666997997,8.829952666997997,5,20.35708912500195,,,,,,,,,,,,,,,,,,,,,,,,,,,,,,,,,,,,,,,,,,,,reldom2_s034,001,2025-03-13_16h03.26.621,Where-A-Scan_AC,2022.2.5,None,
,,,,,,,,,,,,,,,,,,,,,,,,,,,,,,,,,,,,,,,,,,,,1,0,1,0,,,,,,,,,29.20342345899917,29.20342345899917,5,1.9837771670026996,,,,,,,,,,,,,,,,,,,,,,,,,,,,,,,,,,,,,,,,,,,,reldom2_s034,001,2025-03-13_16h03.26.621,Where-A-Scan_AC,2022.2.5,None,
,,,,,,,,,,,,,,,,,,,,,,,,,,,,,,,,,,,,,,,,,,,,2,0,2,0,,,,,,,,,31.21360095899945,31.21360095899945,5,1.9745066670038796,,,,,,,,,,,,,,,,,,,,,,,,,,,,,,,,,,,,,,,,,,,,reldom2_s034,001,2025-03-13_16h03.26.621,Where-A-Scan_AC,2022.2.5,None,
,,,,,,,,,,,,,,,,,,,,,,,,,,,,,,,,,,,,,,,,,,,,3,0,3,0,,,,,,,,,33.20205216699833,33.20205216699833,5,1.984911417002877,,,,,,,,,,,,,,,,,,,,,,,,,,,,,,,,,,,,,,,,,,,,reldom2_s034,001,2025-03-13_16h03.26.621,Where-A-Scan_AC,2022.2.5,None,
0,0.0,None,fixation,stimulus/viswhere_stim/blank_white.png,stimulus/viswhere_stim/blank_white.png,stimulus/audwhere_stim/blank_white.png,stimulus/audwhere_stim/blank_white.png,stimulus/viswhere_stim/blank_white.png,stimulus/viswhere_stim/blank_white.png,stimulus/viswhere_stim/blank_white.png,stimulus/viswhere_stim/blank_white.png,0.0,0.0,0.0,0.0,0,0.0,0,0.0,0,0.0,0,0.0,0,0.0,0.0,0,0.0,0,0.0,0,0.0,0,0.0,0,0.0,0,0.0,0,0.0,0,0.0,16,,,,,0,0,0,0,,,,,,,,,35.40866479200122,35.40866479200122,35.40866479200122,35.40866479200122,35.40866479200122,35.40866479200122,35.40866479200122,35.40866479200122,35.30713908366476,35.40866479200122,35.40866479200122,35.40866479200122,35.30713908366476,35.40866479200122,35.40866479200122,35.40866479200122,35.40866479200122,35.40866479200122,35.40866479200122,35.40866479200122,35.40866479200122,35.40866479200122,35.40866479200122,35.40866479200122,35.40866479200122,35.40866479200122,35.40866479200122,35.357139083664755,35.40866479200122,35.40866479200122,35.40866479200122,35.357139083664755,35.40866479200122,35.40866479200122,35.40866479200122,35.40866479200122,35.40866479200122,40.591977291998774,40.591977291998774,51.56477525000082,None,0,,reldom2_s034,001,2025-03-13_16h03.26.621,Where-A-Scan_AC,2022.2.5,None,
1,First_Order,1.0,viswhere,stimulus/viswhere_stim/blank_white.png,stimulus/viswhere_stim/blank_white.png,stimulus/viswhere_stim/60-deg_dot-left_peru.png,stimulus/viswhere_stim/60-deg_dot-right_turquoise.png,stimulus/viswhere_stim/blank_white.png,stimulus/viswhere_stim/dot_box.png,stimulus/viswhere_stim/dot_yes.png,stimulus/viswhere_stim/dot_no.png,None,Dot,None,Line,2,0.0,0,5.125,0,5.125,0,5.125,0,0.0,0.625,0,0.0,0,0.0,1,0.5,1,2.125,0,0.0,0,0.0,0,0.0,0,0.0,0,,,,,0,1,1,1,,,,,,,,,51.56477525000082,51.56477525000082,51.56477525000082,51.56477525000082,51.56477525000082,51.56477525000082,51.56477525000082,51.56477525000082,51.54493012499952,51.56477525000082,51.56477525000082,51.56477525000082,51.54493012499952,51.56477525000082,51.56477525000082,51.56477525000082,53.66276316699805,57.62575899999865,51.56477525000082,51.56477525000082,56.693247999999585,52.04824274999919,53.050596083998244,53.66276316699805,54.670803334000084,51.56477525000082,51.56477525000082,51.56159679166618,51.56477525000082,51.56477525000082,51.56477525000082,51.56159679166618,51.56477525000082,51.56477525000082,56.693247999999585,51.56477525000082,56.693247999999585,56.7892458339993,57.42049791699901,51.56477525000082,2,1,1.1880750420023105,reldom2_s034,001,2025-03-13_16h03.26.621,Where-A-Scan_AC,2022.2.5,None,
2,First_Order,1.0,viswhere,stimulus/viswhere_stim/blank_white.png,stimulus/viswhere_stim/blank_white.png,stimulus/viswhere_stim/60-deg_dot-right_turquoise.png,stimulus/viswhere_stim/60-deg_dot-left_turquoise.png,stimulus/viswhere_stim/blank_white.png,stimulus/viswhere_stim/line_box.png,stimulus/viswhere_stim/line_yes.png,stimulus/viswhere_stim/line_no.png,None,Line,None,Line,1,0.0,0,5.125,0,5.125,0,5.125,0,0.0,0.625,0,0.0,0,0.0,1,0.5,1,2.125,0,0.0,0,0.0,0,0.0,0,0.0,0,,,,,0,2,2,2,,,,,,,,,57.62575899999865,57.62575899999865,57.62575899999865,57.62575899999865,57.62575899999865,57.62575899999865,57.62575899999865,57.62575899999865,57.61006345833206,57.62575899999865,57.62575899999865,57.62575899999865,57.61006345833206,57.62575899999865,57.62575899999865,57.62575899999865,59.734407833999285,63.68780395900103,57.62575899999865,57.62575899999865,62.75546787499843,58.11181683399991,59.119514916998014,59.734407833999285,60.75011274999997,57.62575899999865,57.62575899999865,57.61006345833206,57.62575899999865,57.62575899999865,57.62575899999865,57.61006345833206,57.62575899999865,57.62575899999865,62.75546787499843,57.62575899999865,62.75546787499843,62.850086499998724,63.48089854199861,57.62575899999865,1,1,0.9855743750013062,reldom2_s034,001,2025-03-13_16h03.26.621,Where-A-Scan_AC,2022.2.5,None,
3,First_Order,1.0,viswhere,stimulus/viswhere_stim/blank_white.png,stimulus/viswhere_stim/blank_white.png,stimulus/viswhere_stim/30-deg_dot-left_salmon.png,stimulus/viswhere_stim/120-deg_dot-left_royalblue.png,stimulus/viswhere_stim/blank_white.png,stimulus/viswhere_stim/line_box.png,stimulus/viswhere_stim/line_yes.png,stimulus/viswhere_stim/line_no.png,None,Line,None,Dot,2,0.0,0,5.125,0,5.125,0,5.125,0,0.0,0.625,0,0.0,0,0.0,1,0.5,1,2.125,0,0.0,0,0.0,0,0.0,0,0.0,0,,,,,0,3,3,3,,,,,,,,,63.68780395900103,63.68780395900103,63.68780395900103,63.68780395900103,63.68780395900103,63.68780395900103,63.68780395900103,63.68780395900103,63.67154529233206,63.68780395900103,63.68780395900103,63.68780395900103,63.67154529233206,63.68780395900103,63.68780395900103,63.68780395900103,65.80487250000078,69.74949449999986,63.68780395900103,63.68780395900103,68.81951854200088,64.17403045899846,65.18489466699975,65.80487250000078,66.82460633400115,63.68780395900103,63.68780395900103,63.67154529233206,63.68780395900103,63.68780395900103,63.68780395900103,63.67154529233206,63.68780395900103,63.68780395900103,68.81951854200088,63.68780395900103,68.81951854200088,68.9141431249991,69.55216437499985,63.68780395900103,2,1,0.6991540830022132,reldom2_s034,001,2025-03-13_16h03.26.621,Where-A-Scan_AC,2022.2.5,None,
4,First_Order,1.0,viswhere,stimulus/viswhere_stim/blank_white.png,stimulus/viswhere_stim/blank_white.png,stimulus/viswhere_stim/150-deg_dot-right_salmon.png,stimulus/viswhere_stim/90-deg_dot-right_goldenrod.png,stimulus/viswhere_stim/blank_white.png,stimulus/viswhere_stim/line_box.png,stimulus/viswhere_stim/line_yes.png,stimulus/viswhere_stim/line_no.png,None,Line,None,Dot,2,0.0,0,5.125,0,5.125,0,5.125,0,0.0,0.625,0,0.0,0,0.0,1,0.5,1,2.125,0,0.0,0,0.0,0,0.0,0,0.0,0,,,,,0,4,4,4,,,,,,,,,69.74949449999986,69.74949449999986,69.74949449999986,69.74949449999986,69.74949449999986,69.74949449999986,69.74949449999986,69.74949449999986,69.73209416733273,69.74949449999986,69.74949449999986,69.74949449999986,69.73209416733273,69.74949449999986,69.74949449999986,69.74949449999986,71.85537370900056,75.90853095900093,69.74949449999986,69.74949449999986,74.88113829199938,70.2243820420008,71.23033437499907,71.85537370900056,72.86465374999898,69.74949449999986,69.74949449999986,69.73209416733273,69.74949449999986,69.74949449999986,69.74949449999986,69.73209416733273,69.74949449999986,69.74949449999986,74.88113829199938,69.74949449999986,74.88113829199938,74.97821329200087,75.60636079200049,69.74949449999986,2,1,1.1877022500011662,reldom2_s034,001,2025-03-13_16h03.26.621,Where-A-Scan_AC,2022.2.5,None,
0,0.0,None,fixation,stimulus/viswhere_stim/blank_white.png,stimulus/viswhere_stim/blank_white.png,stimulus/audwhere_stim/blank_white.png,stimulus/audwhere_stim/blank_white.png,stimulus/viswhere_stim/blank_white.png,stimulus/viswhere_stim/blank_white.png,stimulus/viswhere_stim/blank_white.png,stimulus/viswhere_stim/blank_white.png,0.0,0.0,0.0,0.0,0,0.0,0,0.0,0,0.0,0,0.0,0,0.0,0.0,0,0.0,0,0.0,0,0.0,0,0.0,0,0.0,0,0.0,0,0.0,0,0.0,9,,,,,0,5,5,5,,,,,,,,,75.90853095900093,75.90853095900093,75.90853095900093,75.90853095900093,75.90853095900093,75.90853095900093,75.90853095900093,75.90853095900093,75.81647666733382,75.90853095900093,75.90853095900093,75.90853095900093,75.81647666733382,75.90853095900093,75.90853095900093,75.90853095900093,75.90853095900093,75.90853095900093,75.90853095900093,75.90853095900093,75.90853095900093,75.90853095900093,75.90853095900093,75.90853095900093,75.90853095900093,75.90853095900093,75.90853095900093,75.86647666733381,75.90853095900093,75.90853095900093,75.90853095900093,75.86647666733381,75.90853095900093,75.90853095900093,75.90853095900093,75.90853095900093,75.90853095900093,81.10358804199859,81.10358804199859,85.01559841700146,None,0,,reldom2_s034,001,2025-03-13_16h03.26.621,Where-A-Scan_AC,2022.2.5,None,
5,Second_Order,1.0,viswhere,stimulus/viswhere_stim/90-deg_dot-right_mediumslateblue.png,stimulus/viswhere_stim/90-deg_dot-left_peru.png,stimulus/viswhere_stim/150-deg_dot-left_seagreen.png,stimulus/viswhere_stim/120-deg_dot-left_mediumslateblue.png,stimulus/viswhere_stim/match_blank.png,stimulus/viswhere_stim/match_box.png,stimulus/viswhere_stim/match_yes.png,stimulus/viswhere_stim/match_no.png,2.0,Match,Line,Dot,2,5.125,0,5.125,0,5.125,0,5.125,0,0.75,0.75,1,0.5,1,2.125,1,0.5,1,2.125,0,0.0,0,0.0,0,0.0,0,0.0,0,,,,,0,6,6,6,,,,,,,,,85.01559841700146,90.13888916699943,85.4921388340008,86.47883141700004,87.11453358400104,88.11237170900131,85.01559841700146,85.01559841700146,85.0164614586664,85.01559841700146,85.01559841700146,85.01559841700146,85.0164614586664,85.01559841700146,90.13888916699943,90.93367383399891,93.00931416700041,96.8980566249993,90.93367383399891,90.93367383399891,96.06837287500093,91.39383666700087,92.40213645900076,93.00931416700041,94.02529700000014,90.93367383399891,90.93367383399891,90.92256795899884,90.93367383399891,90.93367383399891,90.93367383399891,90.92256795899884,90.93367383399891,90.93367383399891,96.06837287500093,90.93367383399891,96.06837287500093,96.12393504200008,96.8980566249993,90.93367383399891,2,1,0.8869727080018492,reldom2_s034,001,2025-03-13_16h03.26.621,Where-A-Scan_AC,2022.2.5,None,
6,Second_Order,1.0,viswhere,stimulus/viswhere_stim/60-deg_dot-right_salmon.png,stimulus/viswhere_stim/150-deg_dot-right_cyan.png,stimulus/viswhere_stim/120-deg_dot-left_lightsseagreen.png,stimulus/viswhere_stim/90-deg_dot-left_goldenrod.png,stimulus/viswhere_stim/match_blank.png,stimulus/viswhere_stim/match_box.png,stimulus/viswhere_stim/match_yes.png,stimulus/viswhere_stim/match_no.png,1.0,Match,Dot,Dot,1,5.125,0,5.125,0,5.125,0,5.125,0,0.625,0.625,1,0.5,1,2.125,1,0.5,1,2.125,0,0.0,0,0.0,0,0.0,0,0.0,0,,,,,0,7,7,7,,,,,,,,,96.8980566249993,102.01579329200104,97.38370974999998,98.37355812500027,99.00873295899873,100.00666687500052,96.8980566249993,96.8980566249993,96.91172654199981,96.8980566249993,96.8980566249993,96.8980566249993,96.91172654199981,96.8980566249993,102.01579329200104,102.68648929199844,104.76951349999945,108.80343179199917,102.68648929199844,102.68648929199844,107.80990408399884,103.14303841699802,104.14661958400029,104.76951349999945,105.78006537499823,102.68648929199844,102.68648929199844,102.66291204233178,102.68648929199844,102.68648929199844,102.68648929199844,102.66291204233178,102.68648929199844,102.68648929199844,107.80990408399884,102.68648929199844,107.80990408399884,107.87675287499951,108.50207516699811,102.68648929199844,1,1,0.8852755000007164,reldom2_s034,001,2025-03-13_16h03.26.621,Where-A-Scan_AC,2022.2.5,None,
0,0.0,None,fixation,stimulus/viswhere_stim/blank_white.png,stimulus/viswhere_stim/blank_white.png,stimulus/audwhere_stim/blank_white.png,stimulus/audwhere_stim/blank_white.png,stimulus/viswhere_stim/blank_white.png,stimulus/viswhere_stim/blank_white.png,stimulus/viswhere_stim/blank_white.png,stimulus/viswhere_stim/blank_white.png,0.0,0.0,0.0,0.0,0,0.0,0,0.0,0,0.0,0,0.0,0,0.0,0.0,0,0.0,0,0.0,0,0.0,0,0.0,0,0.0,0,0.0,0,0.0,0,0.0,8,,,,,0,8,8,8,,,,,,,,,108.80343179199917,108.80343179199917,108.80343179199917,108.80343179199917,108.80343179199917,108.80343179199917,108.80343179199917,108.80343179199917,108.70901966733193,108.80343179199917,108.80343179199917,108.80343179199917,108.70901966733193,108.80343179199917,108.80343179199917,108.80343179199917,108.80343179199917,108.80343179199917,108.80343179199917,108.80343179199917,108.80343179199917,108.80343179199917,108.80343179199917,108.80343179199917,108.80343179199917,108.80343179199917,108.80343179199917,108.75901966733193,108.80343179199917,108.80343179199917,108.80343179199917,108.75901966733193,108.80343179199917,108.80343179199917,108.80343179199917,108.80343179199917,108.80343179199917,114.03077570900132,114.03077570900132,117.02052704200105,None,0,,reldom2_s034,001,2025-03-13_16h03.26.621,Where-A-Scan_AC,2022.2.5,None,
7,First_Order,2.0,viswhere,stimulus/viswhere_stim/blank_white.png,stimulus/viswhere_stim/blank_white.png,stimulus/viswhere_stim/30-deg_dot-right_cyan.png,stimulus/viswhere_stim/30-deg_dot-left_cyan.png,stimulus/viswhere_stim/blank_white.png,stimulus/viswhere_stim/line_box.png,stimulus/viswhere_stim/line_yes.png,stimulus/viswhere_stim/line_no.png,None,Line,None,Line,1,0.0,0,5.125,0,5.125,0,5.125,0,0.0,0.625,0,0.0,0,0.0,1,0.5,1,2.125,0,0.0,0,0.0,0,0.0,0,0.0,0,,,,,0,9,9,9,,,,,,,,,117.02052704200105,117.02052704200105,117.02052704200105,117.02052704200105,117.02052704200105,117.02052704200105,117.02052704200105,117.02052704200105,117.004523375667,117.02052704200105,117.02052704200105,117.02052704200105,117.004523375667,117.02052704200105,117.02052704200105,117.02052704200105,119.1264047500008,123.08513304200096,117.02052704200105,117.02052704200105,122.14296283400108,117.49679962499795,118.50207566699828,119.1264047500008,120.13973899999837,117.02052704200105,117.02052704200105,117.004523375667,117.02052704200105,117.02052704200105,117.02052704200105,117.004523375667,117.02052704200105,117.02052704200105,122.14296283400108,117.02052704200105,122.14296283400108,122.23725470899808,122.87518058400019,117.02052704200105,1,1,1.206138749999809,reldom2_s034,001,2025-03-13_16h03.26.621,Where-A-Scan_AC,2022.2.5,None,
8,First_Order,2.0,viswhere,stimulus/viswhere_stim/blank_white.png,stimulus/viswhere_stim/blank_white.png,stimulus/viswhere_stim/60-deg_dot-right_slateblue.png,stimulus/viswhere_stim/60-deg_dot-left_goldenrod.png,stimulus/viswhere_stim/blank_white.png,stimulus/viswhere_stim/dot_box.png,stimulus/viswhere_stim/dot_yes.png,stimulus/viswhere_stim/dot_no.png,None,Dot,None,Line,2,0.0,0,5.125,0,5.125,0,5.125,0,0.0,0.625,0,0.0,0,0.0,1,0.5,1,2.125,0,0.0,0,0.0,0,0.0,0,0.0,0,,,,,0,10,10,10,,,,,,,,,123.08513304200096,123.08513304200096,123.08513304200096,123.08513304200096,123.08513304200096,123.08513304200096,123.08513304200096,123.08513304200096,123.06570245833184,123.08513304200096,123.08513304200096,123.08513304200096,123.06570245833184,123.08513304200096,123.08513304200096,123.08513304200096,125.18834775000141,129.1481820839981,123.08513304200096,123.08513304200096,128.20703954200144,123.560592834001,124.56333254199853,125.18834775000141,126.19884558400008,123.08513304200096,123.08513304200096,123.06570245833184,123.08513304200096,123.08513304200096,123.08513304200096,123.06570245833184,123.08513304200096,123.08513304200096,128.20703954200144,123.08513304200096,128.20703954200144,128.31794912500118,128.95274775000144,123.08513304200096,2,1,0.9586329580015445,reldom2_s034,001,2025-03-13_16h03.26.621,Where-A-Scan_AC,2022.2.5,None,
9,First_Order,2.0,viswhere,stimulus/viswhere_stim/blank_white.png,stimulus/viswhere_stim/blank_white.png,stimulus/viswhere_stim/90-deg_dot-right_cyan.png,stimulus/viswhere_stim/60-deg_dot-right_slateblue.png,stimulus/viswhere_stim/blank_white.png,stimulus/viswhere_stim/dot_box.png,stimulus/viswhere_stim/dot_yes.png,stimulus/viswhere_stim/dot_no.png,None,Dot,None,Dot,1,0.0,0,5.125,0,5.125,0,5.125,0,0.0,0.625,0,0.0,0,0.0,1,0.5,1,2.125,0,0.0,0,0.0,0,0.0,0,0.0,0,,,,,0,11,11,11,,,,,,,,,129.1481820839981,129.1481820839981,129.1481820839981,129.1481820839981,129.1481820839981,129.1481820839981,129.1481820839981,129.1481820839981,129.12921137533462,129.1481820839981,129.1481820839981,129.1481820839981,129.12921137533462,129.1481820839981,129.1481820839981,129.1481820839981,131.25768849999804,135.20757491699987,129.1481820839981,129.1481820839981,134.28754299999855,129.624309584,130.63120516699928,131.25768849999804,132.26955074999933,129.1481820839981,129.1481820839981,129.12921137533462,129.1481820839981,129.1481820839981,129.1481820839981,129.12921137533462,129.1481820839981,129.1481820839981,134.28754299999855,129.1481820839981,134.28754299999855,134.3852221249981,135.0366451669979,129.1481820839981,1,1,0.9545117080015189,reldom2_s034,001,2025-03-13_16h03.26.621,Where-A-Scan_AC,2022.2.5,None,
10,First_Order,2.0,viswhere,stimulus/viswhere_stim/blank_white.png,stimulus/viswhere_stim/blank_white.png,stimulus/viswhere_stim/60-deg_dot-left_mediumslateblue.png,stimulus/viswhere_stim/150-deg_dot-left_peru.png,stimulus/viswhere_stim/blank_white.png,stimulus/viswhere_stim/dot_box.png,stimulus/viswhere_stim/dot_yes.png,stimulus/viswhere_stim/dot_no.png,None,Dot,None,Dot,1,0.0,0,5.125,0,5.125,0,5.125,0,0.0,0.625,0,0.0,0,0.0,1,0.5,1,2.125,0,0.0,0,0.0,0,0.0,0,0.0,0,,,,,0,12,12,12,,,,,,,,,135.20757491699987,135.20757491699987,135.20757491699987,135.20757491699987,135.20757491699987,135.20757491699987,135.20757491699987,135.20757491699987,135.18685916733133,135.20757491699987,135.20757491699987,135.20757491699987,135.18685916733133,135.20757491699987,135.20757491699987,135.20757491699987,137.3074833339997,141.3489520840012,135.20757491699987,135.20757491699987,140.34892362499886,135.68551104200014,136.69645529199988,137.3074833339997,138.32598462500027,135.20757491699987,135.20757491699987,135.18685916733133,135.20757491699987,135.20757491699987,135.20757491699987,135.18685916733133,135.20757491699987,135.20757491699987,140.34892362499886,135.20757491699987,140.34892362499886,140.4354654589988,141.0672685419995,135.20757491699987,1,1,0.847597042004054,reldom2_s034,001,2025-03-13_16h03.26.621,Where-A-Scan_AC,2022.2.5,None,
0,0.0,None,fixation,stimulus/viswhere_stim/blank_white.png,stimulus/viswhere_stim/blank_white.png,stimulus/audwhere_stim/blank_white.png,stimulus/audwhere_stim/blank_white.png,stimulus/viswhere_stim/blank_white.png,stimulus/viswhere_stim/blank_white.png,stimulus/viswhere_stim/blank_white.png,stimulus/viswhere_stim/blank_white.png,0.0,0.0,0.0,0.0,0,0.0,0,0.0,0,0.0,0,0.0,0,0.0,0.0,0,0.0,0,0.0,0,0.0,0,0.0,0,0.0,0,0.0,0,0.0,0,0.0,10,,,,,0,13,13,13,,,,,,,,,141.3489520840012,141.3489520840012,141.3489520840012,141.3489520840012,141.3489520840012,141.3489520840012,141.3489520840012,141.3489520840012,141.25095666733372,141.3489520840012,141.3489520840012,141.3489520840012,141.25095666733372,141.3489520840012,141.3489520840012,141.3489520840012,141.3489520840012,141.3489520840012,141.3489520840012,141.3489520840012,141.3489520840012,141.3489520840012,141.3489520840012,141.3489520840012,141.3489520840012,141.3489520840012,141.3489520840012,141.30095666733374,141.3489520840012,141.3489520840012,141.3489520840012,141.30095666733374,141.3489520840012,141.3489520840012,141.3489520840012,141.3489520840012,141.3489520840012,146.5389798340002,146.5389798340002,151.4787443339992,None,0,,reldom2_s034,001,2025-03-13_16h03.26.621,Where-A-Scan_AC,2022.2.5,None,
11,Second_Order,2.0,viswhere,stimulus/viswhere_stim/120-deg_dot-right_turquoise.png,stimulus/viswhere_stim/120-deg_dot-left_goldenrod.png,stimulus/viswhere_stim/60-deg_dot-left_turquoise.png,stimulus/viswhere_stim/150-deg_dot-left_seagreen.png,stimulus/viswhere_stim/match_blank.png,stimulus/viswhere_stim/match_box.png,stimulus/viswhere_stim/match_yes.png,stimulus/viswhere_stim/match_no.png,2.0,Match,Line,Dot,2,5.125,0,5.125,0,5.125,0,5.125,0,0.75,0.75,1,0.5,1,2.125,1,0.5,1,2.125,0,0.0,0,0.0,0,0.0,0,0.0,0,,,,,0,14,14,14,,,,,,,,,151.4787443339992,156.59218908399998,151.96002433399917,152.94863570899906,153.58513179199872,154.58241175000148,151.4787443339992,151.4787443339992,151.47818300066672,151.4787443339992,151.4787443339992,151.4787443339992,151.47818300066672,151.4787443339992,156.59218908399998,157.3750468340004,159.4554269170003,163.35732887500126,157.3750468340004,157.3750468340004,162.50034337499892,157.8378432919999,158.83964404200015,159.4554269170003,160.45971020900106,157.3750468340004,157.3750468340004,157.35901912533205,157.3750468340004,157.3750468340004,157.3750468340004,157.35901912533205,157.3750468340004,157.3750468340004,162.50034337499892,157.3750468340004,162.50034337499892,162.5835452499996,163.35732887500126,157.3750468340004,2,1,0.997500208002748,reldom2_s034,001,2025-03-13_16h03.26.621,Where-A-Scan_AC,2022.2.5,None,
12,Second_Order,2.0,viswhere,stimulus/viswhere_stim/30-deg_dot-right_mediumslateblue.png,stimulus/viswhere_stim/30-deg_dot-left_seagreen.png,stimulus/viswhere_stim/120-deg_dot-right_goldenrod.png,stimulus/viswhere_stim/120-deg_dot-left_salmon.png,stimulus/viswhere_stim/match_blank.png,stimulus/viswhere_stim/match_box.png,stimulus/viswhere_stim/match_yes.png,stimulus/viswhere_stim/match_no.png,1.0,Match,Line,Line,1,5.125,0,5.125,0,5.125,0,5.125,0,0.625,0.625,1,0.5,1,2.125,1,0.5,1,2.125,0,0.0,0,0.0,0,0.0,0,0.0,0,,,,,0,15,15,15,,,,,,,,,163.35732887500126,168.46930083400002,163.84170429200094,164.83986200000072,165.46172441700037,166.4604744999997,163.35732887500126,163.35732887500126,163.3714506250006,163.35732887500126,163.35732887500126,163.35732887500126,163.3714506250006,163.35732887500126,168.46930083400002,169.140777583998,171.21226733399817,175.25943679199918,169.140777583998,169.140777583998,174.26616404200104,169.60043791700082,170.60570783399817,171.21226733399817,172.22676895900076,169.140777583998,169.140777583998,169.11631508333136,169.140777583998,169.140777583998,169.140777583998,169.11631508333136,169.140777583998,169.140777583998,174.26616404200104,169.140777583998,174.26616404200104,174.3343527090001,174.9790759589996,169.140777583998,1,1,0.7359115000035672,reldom2_s034,001,2025-03-13_16h03.26.621,Where-A-Scan_AC,2022.2.5,None,
0,0.0,None,fixation,stimulus/viswhere_stim/blank_white.png,stimulus/viswhere_stim/blank_white.png,stimulus/audwhere_stim/blank_white.png,stimulus/audwhere_stim/blank_white.png,stimulus/viswhere_stim/blank_white.png,stimulus/viswhere_stim/blank_white.png,stimulus/viswhere_stim/blank_white.png,stimulus/viswhere_stim/blank_white.png,0.0,0.0,0.0,0.0,0,0.0,0,0.0,0,0.0,0,0.0,0,0.0,0.0,0,0.0,0,0.0,0,0.0,0,0.0,0,0.0,0,0.0,0,0.0,0,0.0,8,,,,,0,16,16,16,,,,,,,,,175.25943679199918,175.25943679199918,175.25943679199918,175.25943679199918,175.25943679199918,175.25943679199918,175.25943679199918,175.25943679199918,175.16261383333162,175.25943679199918,175.25943679199918,175.25943679199918,175.16261383333162,175.25943679199918,175.25943679199918,175.25943679199918,175.25943679199918,175.25943679199918,175.25943679199918,175.25943679199918,175.25943679199918,175.25943679199918,175.25943679199918,175.25943679199918,175.25943679199918,175.25943679199918,175.25943679199918,175.21261383333163,175.25943679199918,175.25943679199918,175.25943679199918,175.21261383333163,175.25943679199918,175.25943679199918,175.25943679199918,175.25943679199918,175.25943679199918,180.44534629199916,180.44534629199916,183.51991029200144,None,0,,reldom2_s034,001,2025-03-13_16h03.26.621,Where-A-Scan_AC,2022.2.5,None,
13,First_Order,3.0,audwhere,stimulus/audwhere_stim/dummy.wav,stimulus/audwhere_stim/dummy.wav,stimulus/audwhere_stim/right_away_290h.wav,stimulus/audwhere_stim/right_toward_280h.wav,stimulus/audwhere_stim/blank_white.png,stimulus/audwhere_stim/side_box.png,stimulus/audwhere_stim/side_yes.png,stimulus/audwhere_stim/side_no.png,None,Side,None,Side,1,0.0,0,5.125,0,5.125,0,5.125,0,0.0,0.625,0,0.0,0,0.0,0,0.0,0,0.0,0,0.0,0,0.0,1,0.5,1,2.125,0,,,,,0,17,17,17,,,,,,,,,183.51991029200144,183.51991029200144,183.51991029200144,183.51991029200144,183.51991029200144,183.51991029200144,183.51991029200144,183.51991029200144,183.45169620866608,183.51991029200144,183.51991029200144,183.51991029200144,183.45169620866608,183.51991029200144,183.51991029200144,183.51991029200144,185.62469033399975,,183.51991029200144,183.51991029200144,188.69201949999842,183.51991029200144,183.51991029200144,183.51991029200144,183.51991029200144,183.97727766699973,185.02864029199918,183.9482093336667,,185.62469033399975,186.6744340840014,185.59556033366633,,183.51991029200144,188.69201949999842,183.51991029200144,188.69201949999842,188.73229424999954,189.41930700000012,183.51991029200144,1,1,1.3457804580029915,reldom2_s034,001,2025-03-13_16h03.26.621,Where-A-Scan_AC,2022.2.5,None,
14,First_Order,3.0,audwhere,stimulus/audwhere_stim/dummy.wav,stimulus/audwhere_stim/dummy.wav,stimulus/audwhere_stim/right_away_300h.wav,stimulus/audwhere_stim/left_away_300h.wav,stimulus/audwhere_stim/blank_white.png,stimulus/audwhere_stim/side_box.png,stimulus/audwhere_stim/side_yes.png,stimulus/audwhere_stim/side_no.png,None,Side,None,Direction,2,0.0,0,5.125,0,5.125,0,5.125,0,0.0,0.625,0,0.0,0,0.0,0,0.0,0,0.0,0,0.0,0,0.0,1,0.5,1,2.125,0,,,,,0,18,18,18,,,,,,,,,189.63255199999912,189.63255199999912,189.63255199999912,189.63255199999912,189.63255199999912,189.63255199999912,189.63255199999912,189.63255199999912,189.55264033333347,189.63255199999912,189.63255199999912,189.63255199999912,189.55264033333347,189.63255199999912,189.63255199999912,189.63255199999912,191.7470179999982,,189.63255199999912,189.63255199999912,194.78336862500146,189.63255199999912,189.63255199999912,189.63255199999912,189.63255199999912,190.09075162500085,191.1466047089998,190.06113275066699,,191.7470179999982,192.80736216700097,191.717257333665,,189.63255199999912,194.78336862500146,189.63255199999912,194.78336862500146,194.82406670899945,195.51080362499852,189.63255199999912,2,1,1.3347929590017884,reldom2_s034,001,2025-03-13_16h03.26.621,Where-A-Scan_AC,2022.2.5,None,
15,First_Order,3.0,audwhere,stimulus/audwhere_stim/dummy.wav,stimulus/audwhere_stim/dummy.wav,stimulus/audwhere_stim/left_away_290h.wav,stimulus/audwhere_stim/right_away_280h.wav,stimulus/audwhere_stim/blank_white.png,stimulus/audwhere_stim/direction_box.png,stimulus/audwhere_stim/direction_yes.png,stimulus/audwhere_stim/direction_no.png,None,Direction,None,Direction,1,0.0,0,5.125,0,5.125,0,5.125,0,0.0,0.625,0,0.0,0,0.0,0,0.0,0,0.0,0,0.0,0,0.0,1,0.5,1,2.125,0,,,,,0,19,19,19,,,,,,,,,195.72344920899923,195.72344920899923,195.72344920899923,195.72344920899923,195.72344920899923,195.72344920899923,195.72344920899923,195.72344920899923,195.64413695833187,195.72344920899923,195.72344920899923,195.72344920899923,195.64413695833187,195.72344920899923,195.72344920899923,195.72344920899923,197.8093286250005,,195.72344920899923,195.72344920899923,200.9127198339993,195.72344920899923,195.72344920899923,195.72344920899923,195.72344920899923,196.18677154200122,197.25387420900006,196.15790716666768,,197.8093286250005,198.87598637499832,197.7793889586649,,195.72344920899923,200.9127198339993,195.72344920899923,200.9127198339993,200.9127198339993,201.5667134590003,195.72344920899923,1,1,1.454383708001842,reldom2_s034,001,2025-03-13_16h03.26.621,Where-A-Scan_AC,2022.2.5,None,
16,First_Order,3.0,audwhere,stimulus/audwhere_stim/dummy.wav,stimulus/audwhere_stim/dummy.wav,stimulus/audwhere_stim/right_toward_270h.wav,stimulus/audwhere_stim/right_away_300h.wav,stimulus/audwhere_stim/blank_white.png,stimulus/audwhere_stim/direction_box.png,stimulus/audwhere_stim/direction_yes.png,stimulus/audwhere_stim/direction_no.png,None,Direction,None,Side,2,0.0,0,5.125,0,5.125,0,5.125,0,0.0,0.625,0,0.0,0,0.0,0,0.0,0,0.0,0,0.0,0,0.0,1,0.5,1,2.125,0,,,,,0,20,20,20,,,,,,,,,201.82030999999915,201.82030999999915,201.82030999999915,201.82030999999915,201.82030999999915,201.82030999999915,201.82030999999915,201.82030999999915,201.74150020833454,201.82030999999915,201.82030999999915,201.82030999999915,201.74150020833454,201.82030999999915,201.82030999999915,201.82030999999915,203.90873433399975,,201.82030999999915,201.82030999999915,206.96864879200075,201.82030999999915,201.82030999999915,201.82030999999915,201.82030999999915,202.28342512499876,203.35310729200137,202.25309095866785,,203.90873433399975,204.9759538750004,203.87900258366815,,201.82030999999915,206.96864879200075,201.82030999999915,206.96864879200075,207.0501050419989,207.70266983400143,201.82030999999915,2,1,1.4214405420025287,reldom2_s034,001,2025-03-13_16h03.26.621,Where-A-Scan_AC,2022.2.5,None,
0,0.0,None,fixation,stimulus/viswhere_stim/blank_white.png,stimulus/viswhere_stim/blank_white.png,stimulus/audwhere_stim/blank_white.png,stimulus/audwhere_stim/blank_white.png,stimulus/viswhere_stim/blank_white.png,stimulus/viswhere_stim/blank_white.png,stimulus/viswhere_stim/blank_white.png,stimulus/viswhere_stim/blank_white.png,0.0,0.0,0.0,0.0,0,0.0,0,0.0,0,0.0,0,0.0,0,0.0,0.0,0,0.0,0,0.0,0,0.0,0,0.0,0,0.0,0,0.0,0,0.0,0,0.0,9,,,,,0,21,21,21,,,,,,,,,207.93658179200065,207.93658179200065,207.93658179200065,207.93658179200065,207.93658179200065,207.93658179200065,207.93658179200065,207.93658179200065,207.83600316733478,207.93658179200065,207.93658179200065,207.93658179200065,207.83600316733478,207.93658179200065,207.93658179200065,207.93658179200065,207.93658179200065,207.93658179200065,207.93658179200065,207.93658179200065,207.93658179200065,207.93658179200065,207.93658179200065,207.93658179200065,207.93658179200065,207.93658179200065,207.93658179200065,207.88600316733476,207.93658179200065,207.93658179200065,207.93658179200065,207.88600316733476,207.93658179200065,207.93658179200065,207.93658179200065,207.93658179200065,207.93658179200065,213.15633491699919,213.15633491699919,217.08331616699797,None,0,,reldom2_s034,001,2025-03-13_16h03.26.621,Where-A-Scan_AC,2022.2.5,None,
17,Second_Order,3.0,audwhere,stimulus/audwhere_stim/right_away_270h.wav,stimulus/audwhere_stim/left_away_270h.wav,stimulus/audwhere_stim/right_toward_280h.wav,stimulus/audwhere_stim/left_toward_280h.wav,stimulus/viswhere_stim/match_blank.png,stimulus/audwhere_stim/match_box.png,stimulus/viswhere_stim/match_yes.png,stimulus/viswhere_stim/match_no.png,1.0,Match,Direction,Direction,1,5.125,0,5.125,0,5.125,0,5.125,0,0.75,0.75,0,0.0,0,0.0,0,0.0,0,0.0,1,0.5,1,2.125,1,0.5,1,2.125,0,,,,,0,22,22,22,,,,,,,,,217.08331616699797,222.20604325000022,217.08331616699797,217.08331616699797,217.08331616699797,217.08331616699797,217.53022508399954,218.51878120900074,217.54414450066568,,219.1652359590007,220.15526474999933,219.16859387566754,,222.20604325000022,223.05742649999956,225.11117433400068,,223.05742649999956,223.05742649999956,228.2352540840002,223.05742649999956,223.05742649999956,223.05742649999956,223.05742649999956,223.51454941699922,224.5625749589999,223.48497595866527,,225.11117433400068,226.1684007920012,225.08218045866695,,223.05742649999956,228.2352540840002,223.05742649999956,228.2352540840002,228.2352540840002,,223.05742649999956,1,1,1.4026780000021972,reldom2_s034,001,2025-03-13_16h03.26.621,Where-A-Scan_AC,2022.2.5,None,
18,Second_Order,3.0,audwhere,stimulus/audwhere_stim/left_away_300h.wav,stimulus/audwhere_stim/right_away_290h.wav,stimulus/audwhere_stim/left_toward_300h.wav,stimulus/audwhere_stim/left_away_290h.wav,stimulus/viswhere_stim/match_blank.png,stimulus/audwhere_stim/match_box.png,stimulus/viswhere_stim/match_yes.png,stimulus/viswhere_stim/match_no.png,2.0,Match,Direction,Side,2,5.125,0,5.125,0,5.125,0,5.125,0,0.625,0.625,0,0.0,0,0.0,0,0.0,0,0.0,1,0.5,1,2.125,1,0.5,1,2.125,0,,,,,0,23,23,23,,,,,,,,,229.03837275000114,234.15471962499942,229.03837275000114,229.03837275000114,229.03837275000114,229.03837275000114,229.49123329199938,230.4790837920009,229.50539420866724,,231.1139994590012,232.11144412499925,231.12620133366752,,234.15471962499942,234.88475237500097,236.92732583399993,240.98330783399797,234.88475237500097,234.88475237500097,240.07342399999834,234.88475237500097,234.88475237500097,234.88475237500097,234.88475237500097,235.33850874999916,236.3838778749996,235.30949575066577,,236.92732583399993,237.97557908399904,236.89844337566709,,234.88475237500097,240.07342399999834,234.88475237500097,240.07342399999834,240.07342399999834,240.754412667,234.88475237500097,2,1,1.5449502080009552,reldom2_s034,001,2025-03-13_16h03.26.621,Where-A-Scan_AC,2022.2.5,None,
0,0.0,None,fixation,stimulus/viswhere_stim/blank_white.png,stimulus/viswhere_stim/blank_white.png,stimulus/audwhere_stim/blank_white.png,stimulus/audwhere_stim/blank_white.png,stimulus/viswhere_stim/blank_white.png,stimulus/viswhere_stim/blank_white.png,stimulus/viswhere_stim/blank_white.png,stimulus/viswhere_stim/blank_white.png,0.0,0.0,0.0,0.0,0,0.0,0,0.0,0,0.0,0,0.0,0,0.0,0.0,0,0.0,0,0.0,0,0.0,0,0.0,0,0.0,0,0.0,0,0.0,0,0.0,9,,,,,0,24,24,24,,,,,,,,,240.98330783399797,240.98330783399797,240.98330783399797,240.98330783399797,240.98330783399797,240.98330783399797,240.98330783399797,240.98330783399797,240.88774600033335,240.98330783399797,240.98330783399797,240.98330783399797,240.88774600033335,240.98330783399797,240.98330783399797,240.98330783399797,240.98330783399797,240.98330783399797,240.98330783399797,240.98330783399797,240.98330783399797,240.98330783399797,240.98330783399797,240.98330783399797,240.98330783399797,240.98330783399797,240.98330783399797,240.93774600033333,240.98330783399797,240.98330783399797,240.98330783399797,240.93774600033333,240.98330783399797,240.98330783399797,240.98330783399797,240.98330783399797,240.98330783399797,246.18600049999804,246.18600049999804,250.2191234999991,None,0,,reldom2_s034,001,2025-03-13_16h03.26.621,Where-A-Scan_AC,2022.2.5,None,
19,First_Order,4.0,audwhere,stimulus/audwhere_stim/dummy.wav,stimulus/audwhere_stim/dummy.wav,stimulus/audwhere_stim/right_away_300h.wav,stimulus/audwhere_stim/left_away_280h.wav,stimulus/audwhere_stim/blank_white.png,stimulus/audwhere_stim/direction_box.png,stimulus/audwhere_stim/direction_yes.png,stimulus/audwhere_stim/direction_no.png,None,Direction,None,Direction,1,0.0,0,5.125,0,5.125,0,5.125,0,0.0,0.625,0,0.0,0,0.0,0,0.0,0,0.0,0,0.0,0,0.0,1,0.5,1,2.125,0,,,,,0,25,25,25,,,,,,,,,250.2191234999991,250.2191234999991,250.2191234999991,250.2191234999991,250.2191234999991,250.2191234999991,250.2191234999991,250.2191234999991,250.1497740006659,250.2191234999991,250.2191234999991,250.2191234999991,250.1497740006659,250.2191234999991,250.2191234999991,250.2191234999991,252.2975027499997,256.34224724999876,250.2191234999991,250.2191234999991,255.39651045899882,250.2191234999991,250.2191234999991,250.2191234999991,250.2191234999991,250.68187270899944,251.74526500000138,250.65182133366787,,252.2975027499997,253.3624480840008,252.26850804166705,,250.2191234999991,255.39651045899882,250.2191234999991,255.39651045899882,255.4375410419998,256.0898812919986,250.2191234999991,1,1,2.9167133750052017,reldom2_s034,001,2025-03-13_16h03.26.621,Where-A-Scan_AC,2022.2.5,None,
20,First_Order,4.0,audwhere,stimulus/audwhere_stim/dummy.wav,stimulus/audwhere_stim/dummy.wav,stimulus/audwhere_stim/right_toward_270h.wav,stimulus/audwhere_stim/right_away_280h.wav,stimulus/audwhere_stim/blank_white.png,stimulus/audwhere_stim/direction_box.png,stimulus/audwhere_stim/direction_yes.png,stimulus/audwhere_stim/direction_no.png,None,Direction,None,Side,2,0.0,0,5.125,0,5.125,0,5.125,0,0.0,0.625,0,0.0,0,0.0,0,0.0,0,0.0,0,0.0,0,0.0,1,0.5,1,2.125,0,,,,,0,26,26,26,,,,,,,,,256.34224724999876,256.34224724999876,256.34224724999876,256.34224724999876,256.34224724999876,256.34224724999876,256.34224724999876,256.34224724999876,256.2640355003333,256.34224724999876,256.34224724999876,256.34224724999876,256.2640355003333,256.34224724999876,256.34224724999876,256.34224724999876,258.4260346250012,262.46927629199854,256.34224724999876,256.34224724999876,261.522556584001,256.34224724999876,256.34224724999876,256.34224724999876,256.34224724999876,256.8047538339997,257.8713971670004,256.77513291666787,,258.4260346250012,259.4928601669999,258.3962657916675,,256.34224724999876,261.522556584001,256.34224724999876,261.522556584001,261.5633990839997,262.21695370900125,256.34224724999876,2,1,1.0650497920032649,reldom2_s034,001,2025-03-13_16h03.26.621,Where-A-Scan_AC,2022.2.5,None,
21,First_Order,4.0,audwhere,stimulus/audwhere_stim/dummy.wav,stimulus/audwhere_stim/dummy.wav,stimulus/audwhere_stim/left_toward_300h.wav,stimulus/audwhere_stim/left_away_300h.wav,stimulus/audwhere_stim/blank_white.png,stimulus/audwhere_stim/side_box.png,stimulus/audwhere_stim/side_yes.png,stimulus/audwhere_stim/side_no.png,None,Side,None,Side,1,0.0,0,5.125,0,5.125,0,5.125,0,0.0,0.625,0,0.0,0,0.0,0,0.0,0,0.0,0,0.0,0,0.0,1,0.5,1,2.125,0,,,,,0,27,27,27,,,,,,,,,262.46927629199854,262.46927629199854,262.46927629199854,262.46927629199854,262.46927629199854,262.46927629199854,262.46927629199854,262.46927629199854,262.39093516733385,262.46927629199854,262.46927629199854,262.46927629199854,262.39093516733385,262.46927629199854,262.46927629199854,262.46927629199854,264.54529479199846,268.5867574170006,262.46927629199854,262.46927629199854,267.6410526670006,262.46927629199854,262.46927629199854,262.46927629199854,262.46927629199854,262.9304708749987,263.9939147920013,262.90059712566676,,264.54529479199846,265.61101979199884,264.51547800066714,,262.46927629199854,267.6410526670006,262.46927629199854,267.6410526670006,267.68210004199864,268.33413495900095,262.46927629199854,1,1,1.8252492499996151,reldom2_s034,001,2025-03-13_16h03.26.621,Where-A-Scan_AC,2022.2.5,None,
22,First_Order,4.0,audwhere,stimulus/audwhere_stim/dummy.wav,stimulus/audwhere_stim/dummy.wav,stimulus/audwhere_stim/right_away_270h.wav,stimulus/audwhere_stim/left_away_300h.wav,stimulus/audwhere_stim/blank_white.png,stimulus/audwhere_stim/side_box.png,stimulus/audwhere_stim/side_yes.png,stimulus/audwhere_stim/side_no.png,None,Side,None,Direction,2,0.0,0,5.125,0,5.125,0,5.125,0,0.0,0.625,0,0.0,0,0.0,0,0.0,0,0.0,0,0.0,0,0.0,1,0.5,1,2.125,0,,,,,0,28,28,28,,,,,,,,,268.5867574170006,268.5867574170006,268.5867574170006,268.5867574170006,268.5867574170006,268.5867574170006,268.5867574170006,268.5867574170006,268.50824050033236,268.5867574170006,268.5867574170006,268.5867574170006,268.50824050033236,268.5867574170006,268.5867574170006,268.5867574170006,270.6643507500012,274.72522675000073,268.5867574170006,268.5867574170006,273.7613404170006,268.5867574170006,268.5867574170006,268.5867574170006,268.5867574170006,269.0489717499986,270.11192745899825,269.01971958366653,,270.6643507500012,271.7319664589995,270.63445387566776,,268.5867574170006,273.7613404170006,268.5867574170006,273.7613404170006,273.8016134169993,274.45117241700063,268.5867574170006,2,1,1.0260705000036978,reldom2_s034,001,2025-03-13_16h03.26.621,Where-A-Scan_AC,2022.2.5,None,
0,0.0,None,fixation,stimulus/viswhere_stim/blank_white.png,stimulus/viswhere_stim/blank_white.png,stimulus/audwhere_stim/blank_white.png,stimulus/audwhere_stim/blank_white.png,stimulus/viswhere_stim/blank_white.png,stimulus/viswhere_stim/blank_white.png,stimulus/viswhere_stim/blank_white.png,stimulus/viswhere_stim/blank_white.png,0.0,0.0,0.0,0.0,0,0.0,0,0.0,0,0.0,0,0.0,0,0.0,0.0,0,0.0,0,0.0,0,0.0,0,0.0,0,0.0,0,0.0,0,0.0,0,0.0,9,,,,,0,29,29,29,,,,,,,,,274.72522675000073,274.72522675000073,274.72522675000073,274.72522675000073,274.72522675000073,274.72522675000073,274.72522675000073,274.72522675000073,274.62542958333336,274.72522675000073,274.72522675000073,274.72522675000073,274.62542958333336,274.72522675000073,274.72522675000073,274.72522675000073,274.72522675000073,274.72522675000073,274.72522675000073,274.72522675000073,274.72522675000073,274.72522675000073,274.72522675000073,274.72522675000073,274.72522675000073,274.72522675000073,274.72522675000073,274.67542958333337,274.72522675000073,274.72522675000073,274.72522675000073,274.67542958333337,274.72522675000073,274.72522675000073,274.72522675000073,274.72522675000073,274.72522675000073,279.94749862499884,279.94749862499884,283.8733825419986,None,0,,reldom2_s034,001,2025-03-13_16h03.26.621,Where-A-Scan_AC,2022.2.5,None,
23,Second_Order,4.0,audwhere,stimulus/audwhere_stim/left_away_270h.wav,stimulus/audwhere_stim/left_toward_290h.wav,stimulus/audwhere_stim/left_toward_300h.wav,stimulus/audwhere_stim/right_toward_280h.wav,stimulus/viswhere_stim/match_blank.png,stimulus/audwhere_stim/match_box.png,stimulus/viswhere_stim/match_yes.png,stimulus/viswhere_stim/match_no.png,2.0,Match,Side,Direction,2,5.125,0,5.125,0,5.125,0,5.125,0,0.75,0.75,0,0.0,0,0.0,0,0.0,0,0.0,1,0.5,1,2.125,1,0.5,1,2.125,0,,,,,0,30,30,30,,,,,,,,,283.8733825419986,288.99830779200056,283.8733825419986,283.8733825419986,283.8733825419986,283.8733825419986,284.33196370899896,285.32147358400107,284.3350121256665,285.32147358400107,285.9575056249996,286.9554154590005,285.9693089166651,,288.99830779200056,289.8477315839991,291.9096769589996,295.84063558399794,289.8477315839991,289.8477315839991,295.03646729200045,289.8477315839991,289.8477315839991,289.8477315839991,289.8477315839991,290.304063874999,291.35945899999933,290.2752822506666,,291.9096769589996,292.9693871249983,291.8806131666681,,289.8477315839991,295.03646729200045,289.8477315839991,295.03646729200045,295.03646729200045,,289.8477315839991,2,1,0.8682805830030702,reldom2_s034,001,2025-03-13_16h03.26.621,Where-A-Scan_AC,2022.2.5,None,
24,Second_Order,4.0,audwhere,stimulus/audwhere_stim/right_toward_290h.wav,stimulus/audwhere_stim/right_away_290h.wav,stimulus/audwhere_stim/left_away_300h.wav,stimulus/audwhere_stim/left_toward_270h.wav,stimulus/viswhere_stim/match_blank.png,stimulus/audwhere_stim/match_box.png,stimulus/viswhere_stim/match_yes.png,stimulus/viswhere_stim/match_no.png,1.0,Match,Side,Side,1,5.125,0,5.125,0,5.125,0,5.125,0,0.625,0.625,0,0.0,0,0.0,0,0.0,0,0.0,1,0.5,1,2.125,1,0.5,1,2.125,0,,,,,0,31,31,31,,,,,,,,,295.84063558399794,300.95862900000066,295.84063558399794,295.84063558399794,295.84063558399794,295.84063558399794,296.2964694170005,297.29538362499807,296.3098042916647,,297.91837054200005,298.9162046249985,297.9305905006661,,300.95862900000066,301.6879388749985,303.7369747499979,307.7960998339986,301.6879388749985,301.6879388749985,306.84252879199994,301.6879388749985,301.6879388749985,301.6879388749985,301.6879388749985,302.14033233399823,303.1882572499999,302.11099583366763,,303.7369747499979,304.78668420900067,303.708128000668,,301.6879388749985,306.84252879199994,301.6879388749985,306.84252879199994,306.88326754199807,307.56677095899795,301.6879388749985,1,1,1.597150875000807,reldom2_s034,001,2025-03-13_16h03.26.621,Where-A-Scan_AC,2022.2.5,None,
0,0.0,None,fixation,stimulus/viswhere_stim/blank_white.png,stimulus/viswhere_stim/blank_white.png,stimulus/audwhere_stim/blank_white.png,stimulus/audwhere_stim/blank_white.png,stimulus/viswhere_stim/blank_white.png,stimulus/viswhere_stim/blank_white.png,stimulus/viswhere_stim/blank_white.png,stimulus/viswhere_stim/blank_white.png,0.0,0.0,0.0,0.0,0,0.0,0,0.0,0,0.0,0,0.0,0,0.0,0.0,0,0.0,0,0.0,0,0.0,0,0.0,0,0.0,0,0.0,0,0.0,0,0.0,10,,,,,0,32,32,32,,,,,,,,,307.7960998339986,307.7960998339986,307.7960998339986,307.7960998339986,307.7960998339986,307.7960998339986,307.7960998339986,307.7960998339986,307.7001042923313,307.7960998339986,307.7960998339986,307.7960998339986,307.7001042923313,307.7960998339986,307.7960998339986,307.7960998339986,307.7960998339986,307.7960998339986,307.7960998339986,307.7960998339986,307.7960998339986,307.7960998339986,307.7960998339986,307.7960998339986,307.7960998339986,307.7960998339986,307.7960998339986,307.7501042923313,307.7960998339986,307.7960998339986,307.7960998339986,307.7501042923313,307.7960998339986,307.7960998339986,307.7960998339986,307.7960998339986,307.7960998339986,313.0125548750002,313.0125548750002,317.9972114589982,None,0,,reldom2_s034,001,2025-03-13_16h03.26.621,Where-A-Scan_AC,2022.2.5,None,
25,First_Order,5.0,viswhere,stimulus/viswhere_stim/blank_white.png,stimulus/viswhere_stim/blank_white.png,stimulus/viswhere_stim/120-deg_dot-right_goldenrod.png,stimulus/viswhere_stim/150-deg_dot-right_turquoise.png,stimulus/viswhere_stim/blank_white.png,stimulus/viswhere_stim/dot_box.png,stimulus/viswhere_stim/dot_yes.png,stimulus/viswhere_stim/dot_no.png,None,Dot,None,Dot,1,0.0,0,5.125,0,5.125,0,5.125,0,0.0,0.625,0,0.0,0,0.0,1,0.5,1,2.125,0,0.0,0,0.0,0,0.0,0,0.0,0,,,,,0,33,33,33,,,,,,,,,317.9972114589982,317.9972114589982,317.9972114589982,317.9972114589982,317.9972114589982,317.9972114589982,317.9972114589982,317.9972114589982,317.97864475066547,317.9972114589982,317.9972114589982,317.9972114589982,317.97864475066547,317.9972114589982,317.9972114589982,317.9972114589982,320.10272658399845,324.05646233399966,317.9972114589982,317.9972114589982,323.1234548749999,318.47654258400144,319.4933665839999,320.10272658399845,321.118132708998,317.9972114589982,317.9972114589982,317.97864475066547,317.9972114589982,317.9972114589982,317.9972114589982,317.97864475066547,317.9972114589982,317.9972114589982,323.1234548749999,317.9972114589982,323.1234548749999,323.23823354200067,323.86966462499913,317.9972114589982,None,0,,reldom2_s034,001,2025-03-13_16h03.26.621,Where-A-Scan_AC,2022.2.5,None,
26,First_Order,5.0,viswhere,stimulus/viswhere_stim/blank_white.png,stimulus/viswhere_stim/blank_white.png,stimulus/viswhere_stim/90-deg_dot-right_royalblue.png,stimulus/viswhere_stim/120-deg_dot-right_seagreen.png,stimulus/viswhere_stim/blank_white.png,stimulus/viswhere_stim/line_box.png,stimulus/viswhere_stim/line_yes.png,stimulus/viswhere_stim/line_no.png,None,Line,None,Dot,2,0.0,0,5.125,0,5.125,0,5.125,0,0.0,0.625,0,0.0,0,0.0,1,0.5,1,2.125,0,0.0,0,0.0,0,0.0,0,0.0,0,,,,,0,34,34,34,,,,,,,,,324.05646233399966,324.05646233399966,324.05646233399966,324.05646233399966,324.05646233399966,324.05646233399966,324.05646233399966,324.05646233399966,324.0365522503319,324.05646233399966,324.05646233399966,324.05646233399966,324.0365522503319,324.05646233399966,324.05646233399966,324.05646233399966,326.15639004200057,330.12424629199813,324.05646233399966,324.05646233399966,329.1806994590006,324.53405229200143,325.54722129199945,326.15639004200057,327.17269716699957,324.05646233399966,324.05646233399966,324.05321891699856,324.05646233399966,324.05646233399966,324.05646233399966,324.05321891699856,324.05646233399966,324.05646233399966,329.1806994590006,324.05646233399966,329.1806994590006,329.2793590420006,329.9074063340013,324.05646233399966,2,1,1.0605068330041831,reldom2_s034,001,2025-03-13_16h03.26.621,Where-A-Scan_AC,2022.2.5,None,
27,First_Order,5.0,viswhere,stimulus/viswhere_stim/blank_white.png,stimulus/viswhere_stim/blank_white.png,stimulus/viswhere_stim/60-deg_dot-left_lightsseagreen.png,stimulus/viswhere_stim/60-deg_dot-right_slateblue.png,stimulus/viswhere_stim/blank_white.png,stimulus/viswhere_stim/line_box.png,stimulus/viswhere_stim/line_yes.png,stimulus/viswhere_stim/line_no.png,None,Line,None,Line,1,0.0,0,5.125,0,5.125,0,5.125,0,0.0,0.625,0,0.0,0,0.0,1,0.5,1,2.125,0,0.0,0,0.0,0,0.0,0,0.0,0,,,,,0,35,35,35,,,,,,,,,330.12424629199813,330.12424629199813,330.12424629199813,330.12424629199813,330.12424629199813,330.12424629199813,330.12424629199813,330.12424629199813,330.1037092923337,330.12424629199813,330.12424629199813,330.12424629199813,330.1037092923337,330.12424629199813,330.12424629199813,330.12424629199813,332.222146084001,336.1849675000012,330.12424629199813,330.12424629199813,335.2583468749981,330.60122154200144,331.6132209169991,332.222146084001,333.23654579199865,330.12424629199813,330.12424629199813,330.12037595900034,330.12424629199813,330.12424629199813,330.12424629199813,330.12037595900034,330.12424629199813,330.12424629199813,335.2583468749981,330.12424629199813,335.2583468749981,335.3531998340004,335.9808752499994,330.12424629199813,1,1,1.3384981660019548,reldom2_s034,001,2025-03-13_16h03.26.621,Where-A-Scan_AC,2022.2.5,None,
28,First_Order,5.0,viswhere,stimulus/viswhere_stim/blank_white.png,stimulus/viswhere_stim/blank_white.png,stimulus/viswhere_stim/120-deg_dot-right_slateblue.png,stimulus/viswhere_stim/90-deg_dot-right_cyan.png,stimulus/viswhere_stim/blank_white.png,stimulus/viswhere_stim/dot_box.png,stimulus/viswhere_stim/dot_yes.png,stimulus/viswhere_stim/dot_no.png,None,Dot,None,Dot,1,0.0,0,5.125,0,5.125,0,5.125,0,0.0,0.625,0,0.0,0,0.0,1,0.5,1,2.125,0,0.0,0,0.0,0,0.0,0,0.0,0,,,,,0,36,36,36,,,,,,,,,336.1849675000012,336.1849675000012,336.1849675000012,336.1849675000012,336.1849675000012,336.1849675000012,336.1849675000012,336.1849675000012,336.1646074583344,336.1849675000012,336.1849675000012,336.1849675000012,336.1646074583344,336.1849675000012,336.1849675000012,336.1849675000012,338.2841011249984,342.3221344170015,336.1849675000012,336.1849675000012,341.3093926670008,336.66188791699824,337.6753191249991,338.2841011249984,339.28891400000066,336.1849675000012,336.1849675000012,336.18127412500104,336.1849675000012,336.1849675000012,336.1849675000012,336.18127412500104,336.1849675000012,336.1849675000012,341.3093926670008,336.1849675000012,341.3093926670008,341.4041212919983,342.031501958998,336.1849675000012,1,1,0.8161393340014911,reldom2_s034,001,2025-03-13_16h03.26.621,Where-A-Scan_AC,2022.2.5,None,
0,0.0,None,fixation,stimulus/viswhere_stim/blank_white.png,stimulus/viswhere_stim/blank_white.png,stimulus/audwhere_stim/blank_white.png,stimulus/audwhere_stim/blank_white.png,stimulus/viswhere_stim/blank_white.png,stimulus/viswhere_stim/blank_white.png,stimulus/viswhere_stim/blank_white.png,stimulus/viswhere_stim/blank_white.png,0.0,0.0,0.0,0.0,0,0.0,0,0.0,0,0.0,0,0.0,0,0.0,0.0,0,0.0,0,0.0,0,0.0,0,0.0,0,0.0,0,0.0,0,0.0,0,0.0,9,,,,,0,37,37,37,,,,,,,,,342.3221344170015,342.3221344170015,342.3221344170015,342.3221344170015,342.3221344170015,342.3221344170015,342.3221344170015,342.3221344170015,342.2253574173313,342.3221344170015,342.3221344170015,342.3221344170015,342.2253574173313,342.3221344170015,342.3221344170015,342.3221344170015,342.3221344170015,342.3221344170015,342.3221344170015,342.3221344170015,342.3221344170015,342.3221344170015,342.3221344170015,342.3221344170015,342.3221344170015,342.3221344170015,342.3221344170015,342.2753574173313,342.3221344170015,342.3221344170015,342.3221344170015,342.2753574173313,342.3221344170015,342.3221344170015,342.3221344170015,342.3221344170015,342.3221344170015,347.55517212500126,347.55517212500126,351.4624827500011,None,0,,reldom2_s034,001,2025-03-13_16h03.26.621,Where-A-Scan_AC,2022.2.5,None,
29,Second_Order,5.0,viswhere,stimulus/viswhere_stim/150-deg_dot-right_cyan.png,stimulus/viswhere_stim/150-deg_dot-left_peru.png,stimulus/viswhere_stim/90-deg_dot-left_goldenrod.png,stimulus/viswhere_stim/90-deg_dot-right_mediumslateblue.png,stimulus/viswhere_stim/match_blank.png,stimulus/viswhere_stim/match_box.png,stimulus/viswhere_stim/match_yes.png,stimulus/viswhere_stim/match_no.png,1.0,Match,Line,Line,1,5.125,0,5.125,0,5.125,0,5.125,0,0.75,0.75,1,0.5,1,2.125,1,0.5,1,2.125,0,0.0,0,0.0,0,0.0,0,0.0,0,,,,,0,38,38,38,,,,,,,,,351.4624827500011,356.5872559169984,351.9432145840001,352.9406027090008,353.56415600000037,354.56101358399974,351.4624827500011,351.4624827500011,351.47743979233394,351.4624827500011,351.4624827500011,351.4624827500011,351.47743979233394,351.4624827500011,356.5872559169984,357.374020291998,359.4503287919979,363.3213536250005,357.374020291998,357.374020291998,362.5088492499999,357.83794750000015,358.8556591669985,359.4503287919979,360.4538632920012,357.374020291998,357.374020291998,357.35442270833346,357.374020291998,357.374020291998,357.374020291998,357.35442270833346,357.374020291998,357.374020291998,362.5088492499999,357.374020291998,362.5088492499999,362.5789462089997,363.35791141699883,357.374020291998,1,1,1.2123723750046338,reldom2_s034,001,2025-03-13_16h03.26.621,Where-A-Scan_AC,2022.2.5,None,
30,Second_Order,5.0,viswhere,stimulus/viswhere_stim/90-deg_dot-right_royalblue.png,stimulus/viswhere_stim/60-deg_dot-right_peru.png,stimulus/viswhere_stim/30-deg_dot-left_slateblue.png,stimulus/viswhere_stim/90-deg_dot-left_seagreen.png,stimulus/viswhere_stim/match_blank.png,stimulus/viswhere_stim/match_box.png,stimulus/viswhere_stim/match_yes.png,stimulus/viswhere_stim/match_no.png,1.0,Match,Dot,Dot,1,5.125,0,5.125,0,5.125,0,5.125,0,0.625,0.625,1,0.5,1,2.125,1,0.5,1,2.125,0,0.0,0,0.0,0,0.0,0,0.0,0,,,,,0,39,39,39,,,,,,,,,363.35791141699883,368.4808613749992,363.836190916998,364.8350280839986,365.46980175000135,366.4591372920004,363.35791141699883,363.35791141699883,363.3713536250005,363.35791141699883,363.35791141699883,363.35791141699883,363.3713536250005,363.35791141699883,368.4808613749992,369.15021591700133,371.23991662499975,375.2676942500002,369.15021591700133,369.15021591700133,374.2764242919984,369.6128797499987,370.6265653340015,371.23991662499975,372.2422805419992,369.15021591700133,369.15021591700133,369.1280302083328,369.15021591700133,369.15021591700133,369.15021591700133,369.1280302083328,369.15021591700133,369.15021591700133,374.2764242919984,369.15021591700133,374.2764242919984,374.3470899999993,374.9745294589993,369.15021591700133,1,1,0.8375403330028348,reldom2_s034,001,2025-03-13_16h03.26.621,Where-A-Scan_AC,2022.2.5,None,
0,0.0,None,fixation,stimulus/viswhere_stim/blank_white.png,stimulus/viswhere_stim/blank_white.png,stimulus/audwhere_stim/blank_white.png,stimulus/audwhere_stim/blank_white.png,stimulus/viswhere_stim/blank_white.png,stimulus/viswhere_stim/blank_white.png,stimulus/viswhere_stim/blank_white.png,stimulus/viswhere_stim/blank_white.png,0.0,0.0,0.0,0.0,0,0.0,0,0.0,0,0.0,0,0.0,0,0.0,0.0,0,0.0,0,0.0,0,0.0,0,0.0,0,0.0,0,0.0,0,0.0,0,0.0,8,,,,,0,40,40,40,,,,,,,,,375.2676942500002,375.2676942500002,375.2676942500002,375.2676942500002,375.2676942500002,375.2676942500002,375.2676942500002,375.2676942500002,375.1683022083319,375.2676942500002,375.2676942500002,375.2676942500002,375.1683022083319,375.2676942500002,375.2676942500002,375.2676942500002,375.2676942500002,375.2676942500002,375.2676942500002,375.2676942500002,375.2676942500002,375.2676942500002,375.2676942500002,375.2676942500002,375.2676942500002,375.2676942500002,375.2676942500002,375.2183022083319,375.2676942500002,375.2676942500002,375.2676942500002,375.2183022083319,375.2676942500002,375.2676942500002,375.2676942500002,375.2676942500002,375.2676942500002,380.45810462499867,380.45810462499867,383.4647103339994,None,0,,reldom2_s034,001,2025-03-13_16h03.26.621,Where-A-Scan_AC,2022.2.5,None,
31,First_Order,6.0,viswhere,stimulus/viswhere_stim/blank_white.png,stimulus/viswhere_stim/blank_white.png,stimulus/viswhere_stim/90-deg_dot-right_lightsseagreen.png,stimulus/viswhere_stim/90-deg_dot-left_turquoise.png,stimulus/viswhere_stim/blank_white.png,stimulus/viswhere_stim/line_box.png,stimulus/viswhere_stim/line_yes.png,stimulus/viswhere_stim/line_no.png,None,Line,None,Line,1,0.0,0,5.125,0,5.125,0,5.125,0,0.0,0.625,0,0.0,0,0.0,1,0.5,1,2.125,0,0.0,0,0.0,0,0.0,0,0.0,0,,,,,0,41,41,41,,,,,,,,,383.4647103339994,383.4647103339994,383.4647103339994,383.4647103339994,383.4647103339994,383.4647103339994,383.4647103339994,383.4647103339994,383.4445011256672,383.4647103339994,383.4647103339994,383.4647103339994,383.4445011256672,383.4647103339994,383.4647103339994,383.4647103339994,385.5747201250015,389.5315980000014,383.4647103339994,383.4647103339994,388.59174529200027,383.94330545900084,384.9616178340002,385.5747201250015,386.59323004199905,383.4647103339994,383.4647103339994,383.4611677923339,383.4647103339994,383.4647103339994,383.4647103339994,383.4611677923339,383.4647103339994,383.4647103339994,388.59174529200027,383.4647103339994,388.59174529200027,388.6892950420006,389.31466649999857,383.4647103339994,1,1,1.023638500002562,reldom2_s034,001,2025-03-13_16h03.26.621,Where-A-Scan_AC,2022.2.5,None,
32,First_Order,6.0,viswhere,stimulus/viswhere_stim/blank_white.png,stimulus/viswhere_stim/blank_white.png,stimulus/viswhere_stim/30-deg_dot-right_goldenrod.png,stimulus/viswhere_stim/30-deg_dot-left_seagreen.png,stimulus/viswhere_stim/blank_white.png,stimulus/viswhere_stim/dot_box.png,stimulus/viswhere_stim/dot_yes.png,stimulus/viswhere_stim/dot_no.png,None,Dot,None,Line,2,0.0,0,5.125,0,5.125,0,5.125,0,0.0,0.625,0,0.0,0,0.0,1,0.5,1,2.125,0,0.0,0,0.0,0,0.0,0,0.0,0,,,,,0,42,42,42,,,,,,,,,389.5315980000014,389.5315980000014,389.5315980000014,389.5315980000014,389.5315980000014,389.5315980000014,389.5315980000014,389.5315980000014,389.5104693753322,389.5315980000014,389.5315980000014,389.5315980000014,389.5104693753322,389.5315980000014,389.5315980000014,389.5315980000014,391.62994049999907,395.5916087500009,389.5315980000014,389.5315980000014,394.6659209589998,390.01012629199977,391.0203584589981,391.62994049999907,392.64354183400064,389.5315980000014,389.5315980000014,389.52713604199886,389.5315980000014,389.5315980000014,389.5315980000014,389.52713604199886,389.5315980000014,389.5315980000014,394.6659209589998,389.5315980000014,394.6659209589998,394.7608020000007,395.4048969590003,389.5315980000014,2,1,1.0834800000011455,reldom2_s034,001,2025-03-13_16h03.26.621,Where-A-Scan_AC,2022.2.5,None,
33,First_Order,6.0,viswhere,stimulus/viswhere_stim/blank_white.png,stimulus/viswhere_stim/blank_white.png,stimulus/viswhere_stim/150-deg_dot-left_lightsseagreen.png,stimulus/viswhere_stim/150-deg_dot-right_royalblue.png,stimulus/viswhere_stim/blank_white.png,stimulus/viswhere_stim/dot_box.png,stimulus/viswhere_stim/dot_yes.png,stimulus/viswhere_stim/dot_no.png,None,Dot,None,Line,2,0.0,0,5.125,0,5.125,0,5.125,0,0.0,0.625,0,0.0,0,0.0,1,0.5,1,2.125,0,0.0,0,0.0,0,0.0,0,0.0,0,,,,,0,43,43,43,,,,,,,,,395.5916087500009,395.5916087500009,395.5916087500009,395.5916087500009,395.5916087500009,395.5916087500009,395.5916087500009,395.5916087500009,395.5715015003346,395.5916087500009,395.5916087500009,395.5916087500009,395.5715015003346,395.5916087500009,395.5916087500009,395.5916087500009,397.69062220900014,401.65685912499976,395.5916087500009,395.5916087500009,400.7275964170003,396.0717345839985,397.073402916998,397.69062220900014,398.6961109590011,395.5916087500009,395.5916087500009,395.58816816700124,395.5916087500009,395.5916087500009,395.5916087500009,395.58816816700124,395.5916087500009,395.5916087500009,400.7275964170003,395.5916087500009,400.7275964170003,400.8117244169989,401.43981037499907,395.5916087500009,2,1,1.9571590830018977,reldom2_s034,001,2025-03-13_16h03.26.621,Where-A-Scan_AC,2022.2.5,None,
34,First_Order,6.0,viswhere,stimulus/viswhere_stim/blank_white.png,stimulus/viswhere_stim/blank_white.png,stimulus/viswhere_stim/120-deg_dot-left_peru.png,stimulus/viswhere_stim/90-deg_dot-left_royalblue.png,stimulus/viswhere_stim/blank_white.png,stimulus/viswhere_stim/line_box.png,stimulus/viswhere_stim/line_yes.png,stimulus/viswhere_stim/line_no.png,None,Line,None,Dot,2,0.0,0,5.125,0,5.125,0,5.125,0,0.0,0.625,0,0.0,0,0.0,1,0.5,1,2.125,0,0.0,0,0.0,0,0.0,0,0.0,0,,,,,0,44,44,44,,,,,,,,,401.65685912499976,401.65685912499976,401.65685912499976,401.65685912499976,401.65685912499976,401.65685912499976,401.65685912499976,401.65685912499976,401.6356194173325,401.65685912499976,401.65685912499976,401.65685912499976,401.6356194173325,401.65685912499976,401.65685912499976,401.65685912499976,403.759262167001,407.79771795899796,401.65685912499976,401.65685912499976,406.7843774590001,402.13521120899895,403.14833745899887,403.759262167001,404.77587654200033,401.65685912499976,401.65685912499976,401.6522860839992,401.65685912499976,401.65685912499976,401.65685912499976,401.6522860839992,401.65685912499976,401.65685912499976,406.7843774590001,401.65685912499976,406.7843774590001,406.88413058399965,407.51870337500077,401.65685912499976,2,1,1.8247005840021302,reldom2_s034,001,2025-03-13_16h03.26.621,Where-A-Scan_AC,2022.2.5,None,
0,0.0,None,fixation,stimulus/viswhere_stim/blank_white.png,stimulus/viswhere_stim/blank_white.png,stimulus/audwhere_stim/blank_white.png,stimulus/audwhere_stim/blank_white.png,stimulus/viswhere_stim/blank_white.png,stimulus/viswhere_stim/blank_white.png,stimulus/viswhere_stim/blank_white.png,stimulus/viswhere_stim/blank_white.png,0.0,0.0,0.0,0.0,0,0.0,0,0.0,0,0.0,0,0.0,0,0.0,0.0,0,0.0,0,0.0,0,0.0,0,0.0,0,0.0,0,0.0,0,0.0,0,0.0,10,,,,,0,45,45,45,,,,,,,,,407.79771795899796,407.79771795899796,407.79771795899796,407.79771795899796,407.79771795899796,407.79771795899796,407.79771795899796,407.79771795899796,407.6998044173318,407.79771795899796,407.79771795899796,407.79771795899796,407.6998044173318,407.79771795899796,407.79771795899796,407.79771795899796,407.79771795899796,407.79771795899796,407.79771795899796,407.79771795899796,407.79771795899796,407.79771795899796,407.79771795899796,407.79771795899796,407.79771795899796,407.79771795899796,407.79771795899796,407.7498044173318,407.79771795899796,407.79771795899796,407.79771795899796,407.7498044173318,407.79771795899796,407.79771795899796,407.79771795899796,407.79771795899796,407.79771795899796,412.99074683399886,412.99074683399886,417.9233493749998,None,0,,reldom2_s034,001,2025-03-13_16h03.26.621,Where-A-Scan_AC,2022.2.5,None,
35,Second_Order,6.0,viswhere,stimulus/viswhere_stim/60-deg_dot-right_mediumslateblue.png,stimulus/viswhere_stim/150-deg_dot-right_turquoise.png,stimulus/viswhere_stim/90-deg_dot-right_slateblue.png,stimulus/viswhere_stim/90-deg_dot-left_seagreen.png,stimulus/viswhere_stim/match_blank.png,stimulus/viswhere_stim/match_box.png,stimulus/viswhere_stim/match_yes.png,stimulus/viswhere_stim/match_no.png,2.0,Match,Dot,Line,2,5.125,0,5.125,0,5.125,0,5.125,0,0.75,0.75,1,0.5,1,2.125,1,0.5,1,2.125,0,0.0,0,0.0,0,0.0,0,0.0,0,,,,,0,46,46,46,,,,,,,,,417.9233493749998,423.04078112500065,418.3964882500004,419.39417129199865,420.033662875001,421.031255083999,417.9233493749998,417.9233493749998,417.9379413333319,417.9233493749998,417.9233493749998,417.9233493749998,417.9379413333319,417.9233493749998,423.04078112500065,423.8317759169986,425.9111725420007,429.80631466699924,423.8317759169986,423.8317759169986,428.9556263339982,424.2957188750006,425.2973631669993,425.9111725420007,426.91409524999835,423.8317759169986,423.8317759169986,423.80831270833414,423.8317759169986,423.8317759169986,423.8317759169986,423.80831270833414,423.8317759169986,423.8317759169986,428.9556263339982,423.8317759169986,428.9556263339982,429.02656987500086,429.80631466699924,423.8317759169986,2,1,1.750052916999266,reldom2_s034,001,2025-03-13_16h03.26.621,Where-A-Scan_AC,2022.2.5,None,
36,Second_Order,6.0,viswhere,stimulus/viswhere_stim/120-deg_dot-left_royalblue.png,stimulus/viswhere_stim/120-deg_dot-right_cyan.png,stimulus/viswhere_stim/90-deg_dot-left_slateblue.png,stimulus/viswhere_stim/90-deg_dot-right_turquoise.png,stimulus/viswhere_stim/match_blank.png,stimulus/viswhere_stim/match_box.png,stimulus/viswhere_stim/match_yes.png,stimulus/viswhere_stim/match_no.png,1.0,Match,Line,Line,1,5.125,0,5.125,0,5.125,0,5.125,0,0.625,0.625,1,0.5,1,2.125,1,0.5,1,2.125,0,0.0,0,0.0,0,0.0,0,0.0,0,,,,,0,47,47,47,,,,,,,,,429.80631466699924,434.9181349999999,430.2902363339999,431.2886432089981,431.9107909589984,432.90907674999835,429.80631466699924,429.80631466699924,429.8201804999997,429.80631466699924,429.80631466699924,429.80631466699924,429.8201804999997,429.80631466699924,434.9181349999999,435.5880282500002,437.6776627090003,441.7108760839983,435.5880282500002,435.5880282500002,440.7151941250013,436.0502575419996,437.06475212499936,437.6776627090003,438.6812212090008,435.5880282500002,435.5880282500002,435.56482354233276,435.5880282500002,435.5880282500002,435.5880282500002,435.56482354233276,435.5880282500002,435.5880282500002,440.7151941250013,435.5880282500002,440.7151941250013,440.783937917,441.41519716699986,435.5880282500002,1,1,0.7911370420006278,reldom2_s034,001,2025-03-13_16h03.26.621,Where-A-Scan_AC,2022.2.5,None,
0,0.0,None,fixation,stimulus/viswhere_stim/blank_white.png,stimulus/viswhere_stim/blank_white.png,stimulus/audwhere_stim/blank_white.png,stimulus/audwhere_stim/blank_white.png,stimulus/viswhere_stim/blank_white.png,stimulus/viswhere_stim/blank_white.png,stimulus/viswhere_stim/blank_white.png,stimulus/viswhere_stim/blank_white.png,0.0,0.0,0.0,0.0,0,0.0,0,0.0,0,0.0,0,0.0,0,0.0,0.0,0,0.0,0,0.0,0,0.0,0,0.0,0,0.0,0,0.0,0,0.0,0,0.0,9,,,,,0,48,48,48,,,,,,,,,441.7108760839983,441.7108760839983,441.7108760839983,441.7108760839983,441.7108760839983,441.7108760839983,441.7108760839983,441.7108760839983,441.6113525003323,441.7108760839983,441.7108760839983,441.7108760839983,441.6113525003323,441.7108760839983,441.7108760839983,441.7108760839983,441.7108760839983,441.7108760839983,441.7108760839983,441.7108760839983,441.7108760839983,441.7108760839983,441.7108760839983,441.7108760839983,441.7108760839983,441.7108760839983,441.7108760839983,441.6613525003323,441.7108760839983,441.7108760839983,441.7108760839983,441.6613525003323,441.7108760839983,441.7108760839983,441.7108760839983,441.7108760839983,441.7108760839983,446.915639584,446.915639584,450.9803372919996,None,0,,reldom2_s034,001,2025-03-13_16h03.26.621,Where-A-Scan_AC,2022.2.5,None,
37,First_Order,7.0,audwhere,stimulus/audwhere_stim/dummy.wav,stimulus/audwhere_stim/dummy.wav,stimulus/audwhere_stim/left_toward_280h.wav,stimulus/audwhere_stim/left_away_290h.wav,stimulus/audwhere_stim/blank_white.png,stimulus/audwhere_stim/direction_box.png,stimulus/audwhere_stim/direction_yes.png,stimulus/audwhere_stim/direction_no.png,None,Direction,None,Side,2,0.0,0,5.125,0,5.125,0,5.125,0,0.0,0.625,0,0.0,0,0.0,0,0.0,0,0.0,0,0.0,0,0.0,1,0.5,1,2.125,0,,,,,0,49,49,49,,,,,,,,,450.9803372919996,450.9803372919996,450.9803372919996,450.9803372919996,450.9803372919996,450.9803372919996,450.9803372919996,450.9803372919996,450.9090386256672,450.9803372919996,450.9803372919996,450.9803372919996,450.9090386256672,450.9803372919996,450.9803372919996,450.9803372919996,453.07166758400126,457.09318095900016,450.9803372919996,450.9803372919996,456.1462586669986,450.9803372919996,450.9803372919996,450.9803372919996,450.9803372919996,451.4467713749982,452.513689667001,451.4166677086653,,453.07166758400126,454.14537416700114,453.0416035836681,,450.9803372919996,456.1462586669986,450.9803372919996,456.1462586669986,456.1873969590015,456.8408688339987,450.9803372919996,2,1,1.3553953750015353,reldom2_s034,001,2025-03-13_16h03.26.621,Where-A-Scan_AC,2022.2.5,None,
38,First_Order,7.0,audwhere,stimulus/audwhere_stim/dummy.wav,stimulus/audwhere_stim/dummy.wav,stimulus/audwhere_stim/left_away_300h.wav,stimulus/audwhere_stim/right_away_280h.wav,stimulus/audwhere_stim/blank_white.png,stimulus/audwhere_stim/side_box.png,stimulus/audwhere_stim/side_yes.png,stimulus/audwhere_stim/side_no.png,None,Side,None,Direction,2,0.0,0,5.125,0,5.125,0,5.125,0,0.0,0.625,0,0.0,0,0.0,0,0.0,0,0.0,0,0.0,0,0.0,1,0.5,1,2.125,0,,,,,0,50,50,50,,,,,,,,,457.09318095900016,457.09318095900016,457.09318095900016,457.09318095900016,457.09318095900016,457.09318095900016,457.09318095900016,457.09318095900016,457.0145547923331,457.09318095900016,457.09318095900016,457.09318095900016,457.0145547923331,457.09318095900016,457.09318095900016,457.09318095900016,459.17766024999946,463.2204112090003,457.09318095900016,457.09318095900016,462.2760828749997,457.09318095900016,457.09318095900016,457.09318095900016,457.09318095900016,457.5575119589994,458.62046504200043,457.52808116666733,,459.17766024999946,460.24631208400024,459.14769608366646,,457.09318095900016,462.2760828749997,457.09318095900016,462.2760828749997,462.31661658400117,462.9670740420006,457.09318095900016,2,1,0.9015947500047332,reldom2_s034,001,2025-03-13_16h03.26.621,Where-A-Scan_AC,2022.2.5,None,
39,First_Order,7.0,audwhere,stimulus/audwhere_stim/dummy.wav,stimulus/audwhere_stim/dummy.wav,stimulus/audwhere_stim/right_toward_280h.wav,stimulus/audwhere_stim/right_away_300h.wav,stimulus/audwhere_stim/blank_white.png,stimulus/audwhere_stim/side_box.png,stimulus/audwhere_stim/side_yes.png,stimulus/audwhere_stim/side_no.png,None,Side,None,Side,1,0.0,0,5.125,0,5.125,0,5.125,0,0.0,0.625,0,0.0,0,0.0,0,0.0,0,0.0,0,0.0,0,0.0,1,0.5,1,2.125,0,,,,,0,51,51,51,,,,,,,,,463.2204112090003,463.2204112090003,463.2204112090003,463.2204112090003,463.2204112090003,463.2204112090003,463.2204112090003,463.2204112090003,463.1404280003318,463.2204112090003,463.2204112090003,463.2204112090003,463.1404280003318,463.2204112090003,463.2204112090003,463.2204112090003,465.3023755840004,469.3473883750012,463.2204112090003,463.2204112090003,468.39926062499944,463.2204112090003,463.2204112090003,463.2204112090003,463.2204112090003,463.6840748750001,464.74532029200054,463.6540035416658,,465.3023755840004,466.36767962500016,465.2725500006675,,463.2204112090003,468.39926062499944,463.2204112090003,468.39926062499944,468.43971570899885,469.09273912500066,463.2204112090003,1,1,1.1050425419998646,reldom2_s034,001,2025-03-13_16h03.26.621,Where-A-Scan_AC,2022.2.5,None,
40,First_Order,7.0,audwhere,stimulus/audwhere_stim/dummy.wav,stimulus/audwhere_stim/dummy.wav,stimulus/audwhere_stim/left_away_280h.wav,stimulus/audwhere_stim/left_toward_300h.wav,stimulus/audwhere_stim/blank_white.png,stimulus/audwhere_stim/side_box.png,stimulus/audwhere_stim/side_yes.png,stimulus/audwhere_stim/side_no.png,None,Side,None,Side,1,0.0,0,5.125,0,5.125,0,5.125,0,0.0,0.625,0,0.0,0,0.0,0,0.0,0,0.0,0,0.0,0,0.0,1,0.5,1,2.125,0,,,,,0,52,52,52,,,,,,,,,469.3473883750012,469.3473883750012,469.3473883750012,469.3473883750012,469.3473883750012,469.3473883750012,469.3473883750012,469.3473883750012,469.26678533333154,469.3473883750012,469.3473883750012,469.3473883750012,469.26678533333154,469.3473883750012,469.3473883750012,469.3473883750012,471.4282923339997,475.4976944170012,469.3473883750012,469.3473883750012,474.52947383399805,469.3473883750012,469.3473883750012,469.3473883750012,469.3473883750012,469.80911520899826,470.8718396250006,469.7794721666653,,471.4282923339997,472.49382841699844,471.3982053756665,,469.3473883750012,474.52947383399805,469.3473883750012,474.52947383399805,474.5711708339986,475.22316658400086,469.3473883750012,1,1,1.7441524170026241,reldom2_s034,001,2025-03-13_16h03.26.621,Where-A-Scan_AC,2022.2.5,None,
0,0.0,None,fixation,stimulus/viswhere_stim/blank_white.png,stimulus/viswhere_stim/blank_white.png,stimulus/audwhere_stim/blank_white.png,stimulus/audwhere_stim/blank_white.png,stimulus/viswhere_stim/blank_white.png,stimulus/viswhere_stim/blank_white.png,stimulus/viswhere_stim/blank_white.png,stimulus/viswhere_stim/blank_white.png,0.0,0.0,0.0,0.0,0,0.0,0,0.0,0,0.0,0,0.0,0,0.0,0.0,0,0.0,0,0.0,0,0.0,0,0.0,0,0.0,0,0.0,0,0.0,0,0.0,8,,,,,0,53,53,53,,,,,,,,,475.4976944170012,475.4976944170012,475.4976944170012,475.4976944170012,475.4976944170012,475.4976944170012,475.4976944170012,475.4976944170012,475.397323667332,475.4976944170012,475.4976944170012,475.4976944170012,475.397323667332,475.4976944170012,475.4976944170012,475.4976944170012,475.4976944170012,475.4976944170012,475.4976944170012,475.4976944170012,475.4976944170012,475.4976944170012,475.4976944170012,475.4976944170012,475.4976944170012,475.4976944170012,475.4976944170012,475.447323667332,475.4976944170012,475.4976944170012,475.4976944170012,475.447323667332,475.4976944170012,475.4976944170012,475.4976944170012,475.4976944170012,475.4976944170012,480.7123997089984,480.7123997089984,483.6342120420013,None,0,,reldom2_s034,001,2025-03-13_16h03.26.621,Where-A-Scan_AC,2022.2.5,None,
41,Second_Order,7.0,audwhere,stimulus/audwhere_stim/left_away_300h.wav,stimulus/audwhere_stim/left_toward_300h.wav,stimulus/audwhere_stim/right_away_290h.wav,stimulus/audwhere_stim/right_toward_290h.wav,stimulus/viswhere_stim/match_blank.png,stimulus/audwhere_stim/match_box.png,stimulus/viswhere_stim/match_yes.png,stimulus/viswhere_stim/match_no.png,1.0,Match,Side,Side,1,5.125,0,5.125,0,5.125,0,5.125,0,0.75,0.75,0,0.0,0,0.0,0,0.0,0,0.0,1,0.5,1,2.125,1,0.5,1,2.125,0,,,,,0,54,54,54,,,,,,,,,483.6342120420013,488.75499041700095,483.6342120420013,483.6342120420013,483.6342120420013,483.6342120420013,484.0807899169995,485.079609542001,484.0939075006647,,485.71905479199995,486.71691308400113,485.7310436666669,,488.75499041700095,489.60708770899873,491.67253491700103,,489.60708770899873,489.60708770899873,494.7665576670006,489.60708770899873,489.60708770899873,489.60708770899873,489.60708770899873,490.0187522919987,491.07376091699916,489.9893685416648,,491.67253491700103,492.7367745420015,491.6432426666654,,489.60708770899873,494.7665576670006,489.60708770899873,494.7665576670006,494.7665576670006,,489.60708770899873,1,1,0.9340608329985116,reldom2_s034,001,2025-03-13_16h03.26.621,Where-A-Scan_AC,2022.2.5,None,
42,Second_Order,7.0,audwhere,stimulus/audwhere_stim/left_away_280h.wav,stimulus/audwhere_stim/right_away_270h.wav,stimulus/audwhere_stim/right_toward_270h.wav,stimulus/audwhere_stim/left_toward_280h.wav,stimulus/viswhere_stim/match_blank.png,stimulus/audwhere_stim/match_box.png,stimulus/viswhere_stim/match_yes.png,stimulus/viswhere_stim/match_no.png,1.0,Match,Direction,Direction,1,5.125,0,5.125,0,5.125,0,5.125,0,0.625,0.625,0,0.0,0,0.0,0,0.0,0,0.0,1,0.5,1,2.125,1,0.5,1,2.125,0,,,,,0,55,55,55,,,,,,,,,495.57532354199793,500.6990427919991,495.57532354199793,495.57532354199793,495.57532354199793,495.57532354199793,496.0239670839983,497.01068395900074,496.037773000666,,497.65866145900145,498.6478451670009,497.6618559166675,,500.6990427919991,501.4219158749984,503.47651804199995,507.54885720899983,501.4219158749984,501.4219158749984,506.5929712500001,501.4219158749984,501.4219158749984,501.4219158749984,501.4219158749984,501.8770990839985,502.92722841700015,501.8479269166676,,503.47651804199995,504.529861250001,503.4474327086648,,501.4219158749984,506.5929712500001,501.4219158749984,506.5929712500001,506.5929712500001,507.2777598339999,501.4219158749984,1,1,1.5006410000023607,reldom2_s034,001,2025-03-13_16h03.26.621,Where-A-Scan_AC,2022.2.5,None,
0,0.0,None,fixation,stimulus/viswhere_stim/blank_white.png,stimulus/viswhere_stim/blank_white.png,stimulus/audwhere_stim/blank_white.png,stimulus/audwhere_stim/blank_white.png,stimulus/viswhere_stim/blank_white.png,stimulus/viswhere_stim/blank_white.png,stimulus/viswhere_stim/blank_white.png,stimulus/viswhere_stim/blank_white.png,0.0,0.0,0.0,0.0,0,0.0,0,0.0,0,0.0,0,0.0,0,0.0,0.0,0,0.0,0,0.0,0,0.0,0,0.0,0,0.0,0,0.0,0,0.0,0,0.0,10,,,,,0,56,56,56,,,,,,,,,507.54885720899983,507.54885720899983,507.54885720899983,507.54885720899983,507.54885720899983,507.54885720899983,507.54885720899983,507.54885720899983,507.4510190003331,507.54885720899983,507.54885720899983,507.54885720899983,507.4510190003331,507.54885720899983,507.54885720899983,507.54885720899983,507.54885720899983,507.54885720899983,507.54885720899983,507.54885720899983,507.54885720899983,507.54885720899983,507.54885720899983,507.54885720899983,507.54885720899983,507.54885720899983,507.54885720899983,507.5010190003331,507.54885720899983,507.54885720899983,507.54885720899983,507.5010190003331,507.54885720899983,507.54885720899983,507.54885720899983,507.54885720899983,507.54885720899983,512.7814470000012,512.7814470000012,517.7968273750012,None,0,,reldom2_s034,001,2025-03-13_16h03.26.621,Where-A-Scan_AC,2022.2.5,None,
43,First_Order,8.0,audwhere,stimulus/audwhere_stim/dummy.wav,stimulus/audwhere_stim/dummy.wav,stimulus/audwhere_stim/left_away_270h.wav,stimulus/audwhere_stim/right_away_300h.wav,stimulus/audwhere_stim/blank_white.png,stimulus/audwhere_stim/direction_box.png,stimulus/audwhere_stim/direction_yes.png,stimulus/audwhere_stim/direction_no.png,None,Direction,None,Direction,1,0.0,0,5.125,0,5.125,0,5.125,0,0.0,0.625,0,0.0,0,0.0,0,0.0,0,0.0,0,0.0,0,0.0,1,0.5,1,2.125,0,,,,,0,57,57,57,,,,,,,,,517.7968273750012,517.7968273750012,517.7968273750012,517.7968273750012,517.7968273750012,517.7968273750012,517.7968273750012,517.7968273750012,517.7246907916657,517.7968273750012,517.7968273750012,517.7968273750012,517.7246907916657,517.7968273750012,517.7968273750012,517.7968273750012,519.8884982089985,,517.7968273750012,517.7968273750012,522.9508652920013,517.7968273750012,517.7968273750012,517.7968273750012,517.7968273750012,518.2605999590014,519.3322950840011,518.230881833668,,519.8884982089985,520.9563102920001,519.8585079166662,,517.7968273750012,522.9508652920013,517.7968273750012,522.9508652920013,522.9921099999992,523.6458890840004,517.7968273750012,1,1,1.3723477500025183,reldom2_s034,001,2025-03-13_16h03.26.621,Where-A-Scan_AC,2022.2.5,None,
44,First_Order,8.0,audwhere,stimulus/audwhere_stim/dummy.wav,stimulus/audwhere_stim/dummy.wav,stimulus/audwhere_stim/left_toward_300h.wav,stimulus/audwhere_stim/left_away_280h.wav,stimulus/audwhere_stim/blank_white.png,stimulus/audwhere_stim/direction_box.png,stimulus/audwhere_stim/direction_yes.png,stimulus/audwhere_stim/direction_no.png,None,Direction,None,Side,2,0.0,0,5.125,0,5.125,0,5.125,0,0.0,0.625,0,0.0,0,0.0,0,0.0,0,0.0,0,0.0,0,0.0,1,0.5,1,2.125,0,,,,,0,58,58,58,,,,,,,,,523.8983254589984,523.8983254589984,523.8983254589984,523.8983254589984,523.8983254589984,523.8983254589984,523.8983254589984,523.8983254589984,523.819527875332,523.8983254589984,523.8983254589984,523.8983254589984,523.819527875332,523.8983254589984,523.8983254589984,523.8983254589984,525.9894188340004,530.0127923340006,523.8983254589984,523.8983254589984,529.060805000001,523.8983254589984,523.8983254589984,523.8983254589984,523.8983254589984,524.3621870839997,525.432521499999,524.3328428336647,,525.9894188340004,527.0599680000014,525.9593542506666,,523.8983254589984,529.060805000001,523.8983254589984,529.060805000001,529.1020124169991,529.7596872920003,523.8983254589984,2,1,2.1636844580025354,reldom2_s034,001,2025-03-13_16h03.26.621,Where-A-Scan_AC,2022.2.5,None,
45,First_Order,8.0,audwhere,stimulus/audwhere_stim/dummy.wav,stimulus/audwhere_stim/dummy.wav,stimulus/audwhere_stim/right_away_290h.wav,stimulus/audwhere_stim/left_away_280h.wav,stimulus/audwhere_stim/blank_white.png,stimulus/audwhere_stim/side_box.png,stimulus/audwhere_stim/side_yes.png,stimulus/audwhere_stim/side_no.png,None,Side,None,Direction,2,0.0,0,5.125,0,5.125,0,5.125,0,0.0,0.625,0,0.0,0,0.0,0,0.0,0,0.0,0,0.0,0,0.0,1,0.5,1,2.125,0,,,,,0,59,59,59,,,,,,,,,530.0127923340006,530.0127923340006,530.0127923340006,530.0127923340006,530.0127923340006,530.0127923340006,530.0127923340006,530.0127923340006,529.9337388753321,530.0127923340006,530.0127923340006,530.0127923340006,529.9337388753321,530.0127923340006,530.0127923340006,530.0127923340006,532.0931137919979,536.1443765420008,530.0127923340006,530.0127923340006,535.1943920000012,530.0127923340006,530.0127923340006,530.0127923340006,530.0127923340006,530.475302709001,531.539259541998,530.4457625416655,,532.0931137919979,533.1566974169982,532.0633299166659,,530.0127923340006,535.1943920000012,530.0127923340006,535.1943920000012,535.2358205419987,535.8883179590011,530.0127923340006,2,1,1.1656222500023432,reldom2_s034,001,2025-03-13_16h03.26.621,Where-A-Scan_AC,2022.2.5,None,
46,First_Order,8.0,audwhere,stimulus/audwhere_stim/dummy.wav,stimulus/audwhere_stim/dummy.wav,stimulus/audwhere_stim/left_away_270h.wav,stimulus/audwhere_stim/right_away_290h.wav,stimulus/audwhere_stim/blank_white.png,stimulus/audwhere_stim/direction_box.png,stimulus/audwhere_stim/direction_yes.png,stimulus/audwhere_stim/direction_no.png,None,Direction,None,Direction,1,0.0,0,5.125,0,5.125,0,5.125,0,0.0,0.625,0,0.0,0,0.0,0,0.0,0,0.0,0,0.0,0,0.0,1,0.5,1,2.125,0,,,,,0,60,60,60,,,,,,,,,536.1443765420008,536.1443765420008,536.1443765420008,536.1443765420008,536.1443765420008,536.1443765420008,536.1443765420008,536.1443765420008,536.0617897503345,536.1443765420008,536.1443765420008,536.1443765420008,536.0617897503345,536.1443765420008,536.1443765420008,536.1443765420008,538.240123708998,542.2848019589983,536.1443765420008,536.1443765420008,541.3157475000007,536.1443765420008,536.1443765420008,536.1443765420008,536.1443765420008,536.6112232089981,537.6827715,536.5810680416655,,538.240123708998,539.3143889999992,538.2099565836654,,536.1443765420008,541.3157475000007,536.1443765420008,541.3157475000007,541.3571617919988,542.0106332089999,536.1443765420008,1,1,1.3442670420045033,reldom2_s034,001,2025-03-13_16h03.26.621,Where-A-Scan_AC,2022.2.5,None,
0,0.0,None,fixation,stimulus/viswhere_stim/blank_white.png,stimulus/viswhere_stim/blank_white.png,stimulus/audwhere_stim/blank_white.png,stimulus/audwhere_stim/blank_white.png,stimulus/viswhere_stim/blank_white.png,stimulus/viswhere_stim/blank_white.png,stimulus/viswhere_stim/blank_white.png,stimulus/viswhere_stim/blank_white.png,0.0,0.0,0.0,0.0,0,0.0,0,0.0,0,0.0,0,0.0,0,0.0,0.0,0,0.0,0,0.0,0,0.0,0,0.0,0,0.0,0,0.0,0,0.0,0,0.0,9,,,,,0,61,61,61,,,,,,,,,542.2848019589983,542.2848019589983,542.2848019589983,542.2848019589983,542.2848019589983,542.2848019589983,542.2848019589983,542.2848019589983,542.1850312503321,542.2848019589983,542.2848019589983,542.2848019589983,542.1850312503321,542.2848019589983,542.2848019589983,542.2848019589983,542.2848019589983,542.2848019589983,542.2848019589983,542.2848019589983,542.2848019589983,542.2848019589983,542.2848019589983,542.2848019589983,542.2848019589983,542.2848019589983,542.2848019589983,542.2350312503321,542.2848019589983,542.2848019589983,542.2848019589983,542.2350312503321,542.2848019589983,542.2848019589983,542.2848019589983,542.2848019589983,542.2848019589983,547.4724712499992,547.4724712499992,551.4148969589987,None,0,,reldom2_s034,001,2025-03-13_16h03.26.621,Where-A-Scan_AC,2022.2.5,None,
47,Second_Order,8.0,audwhere,stimulus/audwhere_stim/right_away_280h.wav,stimulus/audwhere_stim/left_away_290h.wav,stimulus/audwhere_stim/right_toward_300h.wav,stimulus/audwhere_stim/right_away_300h.wav,stimulus/viswhere_stim/match_blank.png,stimulus/audwhere_stim/match_box.png,stimulus/viswhere_stim/match_yes.png,stimulus/viswhere_stim/match_no.png,2.0,Match,Direction,Side,2,5.125,0,5.125,0,5.125,0,5.125,0,0.75,0.75,0,0.0,0,0.0,0,0.0,0,0.0,1,0.5,1,2.125,1,0.5,1,2.125,0,,,,,0,62,62,62,,,,,,,,,551.4148969589987,556.5334109590003,551.4148969589987,551.4148969589987,551.4148969589987,551.4148969589987,551.87137325,552.8694647919983,551.8838517916668,552.8739958340011,553.4923189590008,554.48959225,553.5043801666654,,556.5334109590003,557.379024875001,559.4489286249991,,557.379024875001,557.379024875001,562.5387113750003,557.379024875001,557.379024875001,557.379024875001,557.379024875001,557.8374944589996,558.8941978750008,557.8079083336672,,559.4489286249991,560.5115016669988,559.4193180416662,,557.379024875001,562.5387113750003,557.379024875001,562.5387113750003,562.5790097089994,,557.379024875001,2,1,1.3363417500004289,reldom2_s034,001,2025-03-13_16h03.26.621,Where-A-Scan_AC,2022.2.5,None,
48,Second_Order,8.0,audwhere,stimulus/audwhere_stim/left_away_280h.wav,stimulus/audwhere_stim/right_away_290h.wav,stimulus/audwhere_stim/left_toward_280h.wav,stimulus/audwhere_stim/right_toward_300h.wav,stimulus/viswhere_stim/match_blank.png,stimulus/audwhere_stim/match_box.png,stimulus/viswhere_stim/match_yes.png,stimulus/viswhere_stim/match_no.png,1.0,Match,Direction,Direction,1,5.125,0,5.125,0,5.125,0,5.125,0,0.625,0.625,0,0.0,0,0.0,0,0.0,0,0.0,1,0.5,1,2.125,1,0.5,1,2.125,0,,,,,0,63,63,63,,,,,,,,,563.3445720839991,568.4607677919994,563.3445720839991,563.3445720839991,563.3445720839991,563.3445720839991,563.798090291999,564.797086833998,563.811460375666,,565.4193669999986,566.4174227920012,565.431625833666,,568.4607677919994,569.188423708998,571.2413593339988,,569.188423708998,569.188423708998,574.3701292920014,569.188423708998,569.188423708998,569.188423708998,569.188423708998,569.6437805839996,570.6910842500001,569.6142953336678,,571.2413593339988,572.3064821670014,571.2105835416662,,569.188423708998,574.3701292920014,569.188423708998,574.3701292920014,574.3701292920014,575.0558422089998,569.188423708998,1,1,1.7873939169985533,reldom2_s034,001,2025-03-13_16h03.26.621,Where-A-Scan_AC,2022.2.5,None,
0,0.0,None,fixation,stimulus/viswhere_stim/blank_white.png,stimulus/viswhere_stim/blank_white.png,stimulus/audwhere_stim/blank_white.png,stimulus/audwhere_stim/blank_white.png,stimulus/viswhere_stim/blank_white.png,stimulus/viswhere_stim/blank_white.png,stimulus/viswhere_stim/blank_white.png,stimulus/viswhere_stim/blank_white.png,0.0,0.0,0.0,0.0,0,0.0,0,0.0,0,0.0,0,0.0,0,0.0,0.0,0,0.0,0,0.0,0,0.0,0,0.0,0,0.0,0,0.0,0,0.0,0,0.0,16,,,,,0,64,64,64,,,,,,,,,575.2878937499991,575.2878937499991,575.2878937499991,575.2878937499991,575.2878937499991,575.2878937499991,575.2878937499991,575.2878937499991,575.1891755423331,575.2878937499991,575.2878937499991,575.2878937499991,575.1891755423331,575.2878937499991,575.2878937499991,575.2878937499991,575.2878937499991,575.2878937499991,575.2878937499991,575.2878937499991,575.2878937499991,575.2878937499991,575.2878937499991,575.2878937499991,575.2878937499991,575.2878937499991,575.2878937499991,575.2391755423331,575.2878937499991,575.2878937499991,575.2878937499991,575.2391755423331,575.2878937499991,575.2878937499991,575.2878937499991,575.2878937499991,575.2878937499991,580.4815544999983,580.4815544999983,591.4314362090008,None,0,,reldom2_s034,001,2025-03-13_16h03.26.621,Where-A-Scan_AC,2022.2.5,None,
