Trial,Order,Block,Type,Stimuli_File1,Stimuli_File2,Stimuli_File3,Stimuli_File4,Cue_File1,Cue_File2,Response_File_Yes,Response_File_No,Match,Cue_Dimension,Pair1_Dimension,Pair2_Dimension,Key,Cue1_Duration,Cue1_Onset,Cue2_Duration,Cue2_Onset,ResponseYes_Duration,ResponseYes_Onset,ResponseNo_Duration,ResponseNo_Onset,ITI_Within,ITI_Between,Image1_Duration,Image1_Onset,Image2_Duration,Image2_Onset,Image3_Duration,Image3_Onset,Image4_Duration,Image4_Onset,Sound1_Duration,Sound1_Onset,Sound2_Duration,Sound2_Onset,Sound3_Duration,Sound3_Onset,Sound4_Duration,Sound4_Onset,Fixation_Duration,trials_2.thisRepN,trials_2.thisTrialN,trials_2.thisN,trials_2.thisIndex,trials.thisRepN,trials.thisTrialN,trials.thisN,trials.thisIndex,text_start.started,key_resp_start.started,key_resp_start.keys,key_resp_start.rt,text2.started,key_resp_2.started,key_resp_2.keys,key_resp_2.rt,cue_file1.started,cue_file1.stopped,image_1.started,image_1.stopped,image_2.started,image_2.stopped,sound_icon1.started,sound_icon1.stopped,sound_1.started,sound_1.stopped,sound_icon2.started,sound_icon2.stopped,sound_2.started,sound_2.stopped,image_blank_1.started,image_blank_1.stopped,key_press.started,key_press.stopped,fixation_text.started,cue_file2.started,cue_file2.stopped,image_3.started,image_3.stopped,image_4.started,image_4.stopped,sound_icon3.started,sound_icon3.stopped,sound_3.started,sound_3.stopped,sound_icon4.started,sound_icon4.stopped,sound_4.started,sound_4.stopped,response_yes.started,response_yes.stopped,response_no.started,response_no.stopped,iti_blank.started,iti_blank.stopped,fixation_text.stopped,key_press.keys,key_press.corr,key_press.rt,participant,session,date,expName,psychopyVersion,frameRate,
,,,,,,,,,,,,,,,,,,,,,,,,,,,,,,,,,,,,,,,,,,,,,,,,,,,,46.32154816699767,46.32154816699767,2,4.130491583000548,,,,,,,,,,,,,,,,,,,,,,,,,,,,,,,,,,,,,,,,,,,,,,,,reldom2_s034,001,2025-03-13_15h37.42.803,Vis-A-Scan_AC,2022.2.5,None,
,,,,,,,,,,,,,,,,,,,,,,,,,,,,,,,,,,,,,,,,,,,,0,0,0,0,,,,,,,,,50.495522791999974,50.495522791999974,5,17.439465207997273,,,,,,,,,,,,,,,,,,,,,,,,,,,,,,,,,,,,,,,,,,,,reldom2_s034,001,2025-03-13_15h37.42.803,Vis-A-Scan_AC,2022.2.5,None,
,,,,,,,,,,,,,,,,,,,,,,,,,,,,,,,,,,,,,,,,,,,,1,0,1,0,,,,,,,,,67.94456870900103,67.94456870900103,5,1.9881961659993976,,,,,,,,,,,,,,,,,,,,,,,,,,,,,,,,,,,,,,,,,,,,reldom2_s034,001,2025-03-13_15h37.42.803,Vis-A-Scan_AC,2022.2.5,None,
,,,,,,,,,,,,,,,,,,,,,,,,,,,,,,,,,,,,,,,,,,,,2,0,2,0,,,,,,,,,69.95236137499887,69.95236137499887,5,1.982355499996629,,,,,,,,,,,,,,,,,,,,,,,,,,,,,,,,,,,,,,,,,,,,reldom2_s034,001,2025-03-13_15h37.42.803,Vis-A-Scan_AC,2022.2.5,None,
,,,,,,,,,,,,,,,,,,,,,,,,,,,,,,,,,,,,,,,,,,,,3,0,3,0,,,,,,,,,71.94820970900037,71.94820970900037,5,1.9856433749991993,,,,,,,,,,,,,,,,,,,,,,,,,,,,,,,,,,,,,,,,,,,,reldom2_s034,001,2025-03-13_15h37.42.803,Vis-A-Scan_AC,2022.2.5,None,
0,0.0,None,fixation,stimulus/viswhat_stim/blank_white.png,stimulus/viswhat_stim/blank_white.png,stimulus/viswhere_stim/blank_white.png,stimulus/viswhere_stim/blank_white.png,stimulus/viswhat_stim/blank_white.png,stimulus/viswhat_stim/blank_white.png,stimulus/viswhat_stim/blank_white.png,stimulus/viswhat_stim/blank_white.png,0.0,0.0,0.0,0.0,0,0.0,0,0.0,0,0.0,0,0.0,0,0.0,0.0,0,0.0,0,0.0,0,0.0,0,0.0,0,0,0,0,0,0,0,0,16,,,,,0,0,0,0,,,,,,,,,74.13939108399791,74.13939108399791,74.13939108399791,74.13939108399791,74.13939108399791,74.13939108399791,74.13939108399791,74.13939108399791,74.03594187499911,74.13939108399791,74.13939108399791,74.13939108399791,74.03594187499911,74.13939108399791,74.13939108399791,74.13939108399791,74.13939108399791,74.13939108399791,74.13939108399791,74.13939108399791,74.13939108399791,74.13939108399791,74.13939108399791,74.13939108399791,74.13939108399791,74.13939108399791,74.13939108399791,74.10260854166579,74.13939108399791,74.13939108399791,74.13939108399791,74.10260854166579,74.13939108399791,74.13939108399791,74.13939108399791,74.13939108399791,74.13939108399791,79.35757929199826,79.35757929199826,90.40389562500059,None,0,,reldom2_s034,001,2025-03-13_15h37.42.803,Vis-A-Scan_AC,2022.2.5,None,
1,First_Order,1.0,viswhat,stimulus/viswhat_stim/blank_white.png,stimulus/viswhat_stim/blank_white.png,stimulus/viswhat_stim/land_animal-moose.png,stimulus/viswhat_stim/water_animal-seaturtle.png,stimulus/viswhat_stim/blank_white.png,stimulus/viswhat_stim/type_box.png,stimulus/viswhat_stim/type_yes.png,stimulus/viswhat_stim/type_no.png,None,Type,None,Type,1,0.0,0,5.125,0,5.125,0,5.125,0,0.0,0.625,0,0.0,0,0.0,1,0.5,1,2.125,0,0,0,0,0,0,0,0,0,,,,,0,1,1,1,,,,,,,,,90.40389562500059,90.40389562500059,90.40389562500059,90.40389562500059,90.40389562500059,90.40389562500059,90.40389562500059,90.40389562500059,90.30279062500122,90.40389562500059,90.40389562500059,90.40389562500059,90.30279062500122,90.40389562500059,90.40389562500059,90.40389562500059,92.49835679199896,96.46651008399931,90.40389562500059,90.40389562500059,95.56449958400117,90.85638087500047,91.9321866249993,92.49835679199896,93.57774883399907,90.40389562500059,90.40389562500059,90.35279062500122,90.40389562500059,90.40389562500059,90.40389562500059,90.35279062500122,90.40389562500059,90.40389562500059,95.56449958400117,90.40389562500059,95.56449958400117,95.61820879199877,96.46651008399931,90.40389562500059,1,1,2.6595744989972445,reldom2_s034,001,2025-03-13_15h37.42.803,Vis-A-Scan_AC,2022.2.5,None,
2,First_Order,1.0,viswhat,stimulus/viswhat_stim/blank_white.png,stimulus/viswhat_stim/blank_white.png,stimulus/viswhat_stim/water_vehicle-submarine.png,stimulus/viswhat_stim/land_vehicle-firetruck.png,stimulus/viswhat_stim/blank_white.png,stimulus/viswhat_stim/type_box.png,stimulus/viswhat_stim/type_yes.png,stimulus/viswhat_stim/type_no.png,None,Type,None,Type,1,0.0,0,5.125,0,5.125,0,5.125,0,0.0,0.625,0,0.0,0,0.0,1,0.5,1,2.125,0,0,0,0,0,0,0,0,0,,,,,0,2,2,2,,,,,,,,,96.46651008399931,96.46651008399931,96.46651008399931,96.46651008399931,96.46651008399931,96.46651008399931,96.46651008399931,96.46651008399931,96.42416166699914,96.46651008399931,96.46651008399931,96.46651008399931,96.42416166699914,96.46651008399931,96.46651008399931,96.46651008399931,98.55984824999905,102.5614937499995,96.46651008399931,96.46651008399931,101.59628075,96.94538462499986,97.95415458400021,98.55984824999905,99.57225924999875,96.46651008399931,96.46651008399931,96.45749500033247,96.46651008399931,96.46651008399931,96.46651008399931,96.45749500033247,96.46651008399931,96.46651008399931,101.59628075,96.46651008399931,101.59628075,101.67533537499912,102.31191862500054,96.46651008399931,1,1,1.7111467079994327,reldom2_s034,001,2025-03-13_15h37.42.803,Vis-A-Scan_AC,2022.2.5,None,
3,First_Order,1.0,viswhat,stimulus/viswhat_stim/blank_white.png,stimulus/viswhat_stim/blank_white.png,stimulus/viswhat_stim/water_vehicle-kayak.png,stimulus/viswhat_stim/land_vehicle-vespa.png,stimulus/viswhat_stim/blank_white.png,stimulus/viswhat_stim/location_box.png,stimulus/viswhat_stim/location_yes.png,stimulus/viswhat_stim/location_no.png,None,Location,None,Type,2,0.0,0,5.125,0,5.125,0,5.125,0,0.0,0.625,0,0.0,0,0.0,1,0.5,1,2.125,0,0,0,0,0,0,0,0,0,,,,,0,3,3,3,,,,,,,,,102.5614937499995,102.5614937499995,102.5614937499995,102.5614937499995,102.5614937499995,102.5614937499995,102.5614937499995,102.5614937499995,102.5108174590001,102.5614937499995,102.5614937499995,102.5614937499995,102.5108174590001,102.5614937499995,102.5614937499995,102.5614937499995,104.64973270900009,108.65127474999827,102.5614937499995,102.5614937499995,107.71692637500018,103.02853187499932,104.07384308399924,104.64973270900009,105.70047058400087,102.5614937499995,102.5614937499995,102.52748412566676,102.5614937499995,102.5614937499995,102.5614937499995,102.52748412566676,102.5614937499995,102.5614937499995,107.71692637500018,102.5614937499995,107.71692637500018,107.77846583399878,108.42406858399772,102.5614937499995,2,1,0.896181832998991,reldom2_s034,001,2025-03-13_15h37.42.803,Vis-A-Scan_AC,2022.2.5,None,
4,First_Order,1.0,viswhat,stimulus/viswhat_stim/blank_white.png,stimulus/viswhat_stim/blank_white.png,stimulus/viswhat_stim/water_vehicle-pirateship.png,stimulus/viswhat_stim/land_vehicle-buldozer.png,stimulus/viswhat_stim/blank_white.png,stimulus/viswhat_stim/location_box.png,stimulus/viswhat_stim/location_yes.png,stimulus/viswhat_stim/location_no.png,None,Location,None,Type,2,0.0,0,5.125,0,5.125,0,5.125,0,0.0,0.625,0,0.0,0,0.0,1,0.5,1,2.125,0,0,0,0,0,0,0,0,0,,,,,0,4,4,4,,,,,,,,,108.65127474999827,108.65127474999827,108.65127474999827,108.65127474999827,108.65127474999827,108.65127474999827,108.65127474999827,108.65127474999827,108.60174700066442,108.65127474999827,108.65127474999827,108.65127474999827,108.60174700066442,108.65127474999827,108.65127474999827,108.65127474999827,110.74633741700018,114.79015391699795,108.65127474999827,108.65127474999827,113.79256004199851,109.12355825000122,110.17347074999998,110.74633741700018,111.7983570840006,108.65127474999827,108.65127474999827,108.61841366733108,108.65127474999827,108.65127474999827,108.65127474999827,108.61841366733108,108.65127474999827,108.65127474999827,113.79256004199851,108.65127474999827,113.79256004199851,113.87719658399874,114.52883645899783,108.65127474999827,2,1,0.98393416700128,reldom2_s034,001,2025-03-13_15h37.42.803,Vis-A-Scan_AC,2022.2.5,None,
0,0.0,None,fixation,stimulus/viswhat_stim/blank_white.png,stimulus/viswhat_stim/blank_white.png,stimulus/viswhere_stim/blank_white.png,stimulus/viswhere_stim/blank_white.png,stimulus/viswhat_stim/blank_white.png,stimulus/viswhat_stim/blank_white.png,stimulus/viswhat_stim/blank_white.png,stimulus/viswhat_stim/blank_white.png,0.0,0.0,0.0,0.0,0,0.0,0,0.0,0,0.0,0,0.0,0,0.0,0.0,0,0.0,0,0.0,0,0.0,0,0.0,0,0,0,0,0,0,0,0,9,,,,,0,5,5,5,,,,,,,,,114.79015391699795,114.79015391699795,114.79015391699795,114.79015391699795,114.79015391699795,114.79015391699795,114.79015391699795,114.79015391699795,114.70198700066781,114.79015391699795,114.79015391699795,114.79015391699795,114.70198700066781,114.79015391699795,114.79015391699795,114.79015391699795,114.79015391699795,114.79015391699795,114.79015391699795,114.79015391699795,114.79015391699795,114.79015391699795,114.79015391699795,114.79015391699795,114.79015391699795,114.79015391699795,114.79015391699795,114.75198700066782,114.79015391699795,114.79015391699795,114.79015391699795,114.75198700066782,114.79015391699795,114.79015391699795,114.79015391699795,114.79015391699795,114.79015391699795,120.00774583399834,120.00774583399834,123.9607415419996,None,0,,reldom2_s034,001,2025-03-13_15h37.42.803,Vis-A-Scan_AC,2022.2.5,None,
5,Second_Order,1.0,viswhat,stimulus/viswhat_stim/water_vehicle-cruiser.png,stimulus/viswhat_stim/land_vehicle-pickuptruck.png,stimulus/viswhat_stim/land_animal-snake.png,stimulus/viswhat_stim/land_vehicle-trolley.png,stimulus/viswhat_stim/match_blank.png,stimulus/viswhat_stim/match_box.png,stimulus/viswhat_stim/match_yes.png,stimulus/viswhat_stim/match_no.png,2.0,Match,Type,Location,2,5.125,0,5.125,0,5.125,0,5.125,0,0.75,0.75,1,0.5,1,2.125,1,0.5,1,2.125,0,0,0,0,0,0,0,0,0,,,,,0,6,6,6,,,,,,,,,123.9607415419996,129.08460466699762,124.38768937499844,125.37531316699824,126.01071879200026,127.00849466699947,123.9607415419996,123.9607415419996,123.97383550033459,123.9607415419996,123.9607415419996,123.9607415419996,123.97383550033459,123.9607415419996,129.08460466699762,129.88635191700087,131.96456483400107,135.85833170899787,129.88635191700087,129.88635191700087,135.01593833399966,130.3352727499987,131.36202754199985,131.96456483400107,132.97664066699872,129.88635191700087,129.88635191700087,129.86903195899941,129.88635191700087,129.88635191700087,129.88635191700087,129.86903195899941,129.88635191700087,129.88635191700087,135.01593833399966,129.88635191700087,135.01593833399966,135.08376758400118,,129.88635191700087,2,1,0.9259715419975691,reldom2_s034,001,2025-03-13_15h37.42.803,Vis-A-Scan_AC,2022.2.5,None,
6,Second_Order,1.0,viswhat,stimulus/viswhat_stim/land_vehicle-firetruck.png,stimulus/viswhat_stim/land_animal-dog.png,stimulus/viswhat_stim/water_animal-seaturtle.png,stimulus/viswhat_stim/water_vehicle-sailboat.png,stimulus/viswhat_stim/match_blank.png,stimulus/viswhat_stim/match_box.png,stimulus/viswhat_stim/match_yes.png,stimulus/viswhat_stim/match_no.png,1.0,Match,Location,Location,1,5.125,0,5.125,0,5.125,0,5.125,0,0.625,0.625,1,0.5,1,2.125,1,0.5,1,2.125,0,0,0,0,0,0,0,0,0,,,,,0,7,7,7,,,,,,,,,135.85833170899787,140.9797229169999,136.34773116699944,137.33674229199823,137.95531291699808,138.95315870899867,135.85833170899787,135.85833170899787,135.85836462499793,135.85833170899787,135.85833170899787,135.85833170899787,135.85836462499793,135.85833170899787,140.9797229169999,141.7221215419995,143.78859787499823,,141.7221215419995,141.7221215419995,146.90218620900123,142.1367169590012,143.221532749998,143.78859787499823,144.8287109169978,141.7221215419995,141.7221215419995,141.67574475033447,141.7221215419995,141.7221215419995,141.7221215419995,141.67574475033447,141.7221215419995,141.7221215419995,146.90218620900123,141.7221215419995,146.90218620900123,146.90218620900123,147.7977407090002,141.7221215419995,1,1,0.8910274999980174,reldom2_s034,001,2025-03-13_15h37.42.803,Vis-A-Scan_AC,2022.2.5,None,
0,0.0,None,fixation,stimulus/viswhat_stim/blank_white.png,stimulus/viswhat_stim/blank_white.png,stimulus/viswhere_stim/blank_white.png,stimulus/viswhere_stim/blank_white.png,stimulus/viswhat_stim/blank_white.png,stimulus/viswhat_stim/blank_white.png,stimulus/viswhat_stim/blank_white.png,stimulus/viswhat_stim/blank_white.png,0.0,0.0,0.0,0.0,0,0.0,0,0.0,0,0.0,0,0.0,0,0.0,0.0,0,0.0,0,0.0,0,0.0,0,0.0,0,0,0,0,0,0,0,0,9,,,,,0,8,8,8,,,,,,,,,147.7977407090002,147.7977407090002,147.7977407090002,147.7977407090002,147.7977407090002,147.7977407090002,147.7977407090002,147.7977407090002,147.702815209001,147.7977407090002,147.7977407090002,147.7977407090002,147.702815209001,147.7977407090002,147.7977407090002,147.7977407090002,147.7977407090002,147.7977407090002,147.7977407090002,147.7977407090002,147.7977407090002,147.7977407090002,147.7977407090002,147.7977407090002,147.7977407090002,147.7977407090002,147.7977407090002,147.752815209001,147.7977407090002,147.7977407090002,147.7977407090002,147.752815209001,147.7977407090002,147.7977407090002,147.7977407090002,147.7977407090002,147.7977407090002,153.01292337499763,153.01292337499763,157.04856841699802,None,0,,reldom2_s034,001,2025-03-13_15h37.42.803,Vis-A-Scan_AC,2022.2.5,None,
7,First_Order,2.0,viswhat,stimulus/viswhat_stim/blank_white.png,stimulus/viswhat_stim/blank_white.png,stimulus/viswhat_stim/water_vehicle-ship.png,stimulus/viswhat_stim/water_animal-stingray.png,stimulus/viswhat_stim/blank_white.png,stimulus/viswhat_stim/type_box.png,stimulus/viswhat_stim/type_yes.png,stimulus/viswhat_stim/type_no.png,None,Type,None,Location,2,0.0,0,5.125,0,5.125,0,5.125,0,0.0,0.625,0,0.0,0,0.0,1,0.5,1,2.125,0,0,0,0,0,0,0,0,0,,,,,0,9,9,9,,,,,,,,,157.04856841699802,157.04856841699802,157.04856841699802,157.04856841699802,157.04856841699802,157.04856841699802,157.04856841699802,157.04856841699802,156.94488804200083,157.04856841699802,157.04856841699802,157.04856841699802,156.94488804200083,157.04856841699802,157.04856841699802,157.04856841699802,159.12545704199874,,157.04856841699802,157.04856841699802,162.21745366699906,157.48522191699885,158.52611862499907,159.12545704199874,160.16793645899816,157.04856841699802,157.04856841699802,156.99488804200084,157.04856841699802,157.04856841699802,157.04856841699802,156.99488804200084,157.04856841699802,157.04856841699802,162.21745366699906,157.04856841699802,162.21745366699906,162.2671440419981,163.0914180840009,157.04856841699802,2,1,1.2924432489962783,reldom2_s034,001,2025-03-13_15h37.42.803,Vis-A-Scan_AC,2022.2.5,None,
8,First_Order,2.0,viswhat,stimulus/viswhat_stim/blank_white.png,stimulus/viswhat_stim/blank_white.png,stimulus/viswhat_stim/land_vehicle-train.png,stimulus/viswhat_stim/land_animal-fox.png,stimulus/viswhat_stim/blank_white.png,stimulus/viswhat_stim/type_box.png,stimulus/viswhat_stim/type_yes.png,stimulus/viswhat_stim/type_no.png,None,Type,None,Location,2,0.0,0,5.125,0,5.125,0,5.125,0,0.0,0.625,0,0.0,0,0.0,1,0.5,1,2.125,0,0,0,0,0,0,0,0,0,,,,,0,10,10,10,,,,,,,,,163.0914180840009,163.0914180840009,163.0914180840009,163.0914180840009,163.0914180840009,163.0914180840009,163.0914180840009,163.0914180840009,163.0615304170009,163.0914180840009,163.0914180840009,163.0914180840009,163.0615304170009,163.0914180840009,163.0914180840009,163.0914180840009,165.20064600000114,169.18822887499846,163.0914180840009,163.0914180840009,168.22231362499952,163.56602137499794,164.5799888340007,165.20064600000114,166.21609466700102,163.0914180840009,163.0914180840009,163.0781970836676,163.0914180840009,163.0914180840009,163.0914180840009,163.0781970836676,163.0914180840009,163.0914180840009,168.22231362499952,163.0914180840009,168.22231362499952,168.30621658399832,168.94064516700018,163.0914180840009,2,1,2.321372957998392,reldom2_s034,001,2025-03-13_15h37.42.803,Vis-A-Scan_AC,2022.2.5,None,
9,First_Order,2.0,viswhat,stimulus/viswhat_stim/blank_white.png,stimulus/viswhat_stim/blank_white.png,stimulus/viswhat_stim/land_animal-lion.png,stimulus/viswhat_stim/land_vehicle-bus.png,stimulus/viswhat_stim/blank_white.png,stimulus/viswhat_stim/location_box.png,stimulus/viswhat_stim/location_yes.png,stimulus/viswhat_stim/location_no.png,None,Location,None,Location,1,0.0,0,5.125,0,5.125,0,5.125,0,0.0,0.625,0,0.0,0,0.0,1,0.5,1,2.125,0,0,0,0,0,0,0,0,0,,,,,0,11,11,11,,,,,,,,,169.18822887499846,169.18822887499846,169.18822887499846,169.18822887499846,169.18822887499846,169.18822887499846,169.18822887499846,169.18822887499846,169.1238252923334,169.18822887499846,169.18822887499846,169.18822887499846,169.1238252923334,169.18822887499846,169.18822887499846,169.18822887499846,171.2902533339984,,169.18822887499846,169.18822887499846,174.35156745899803,169.64461358399785,170.67915891699886,171.2902533339984,172.3262898339999,169.18822887499846,169.18822887499846,169.15715862566674,169.18822887499846,169.18822887499846,169.18822887499846,169.15715862566674,169.18822887499846,169.18822887499846,174.35156745899803,169.18822887499846,174.35156745899803,174.38479420899966,175.0361289169996,169.18822887499846,1,1,0.9885528749982768,reldom2_s034,001,2025-03-13_15h37.42.803,Vis-A-Scan_AC,2022.2.5,None,
10,First_Order,2.0,viswhat,stimulus/viswhat_stim/blank_white.png,stimulus/viswhat_stim/blank_white.png,stimulus/viswhat_stim/land_animal-elephant.png,stimulus/viswhat_stim/land_vehicle-motorcycle.png,stimulus/viswhat_stim/blank_white.png,stimulus/viswhat_stim/location_box.png,stimulus/viswhat_stim/location_yes.png,stimulus/viswhat_stim/location_no.png,None,Location,None,Location,1,0.0,0,5.125,0,5.125,0,5.125,0,0.0,0.625,0,0.0,0,0.0,1,0.5,1,2.125,0,0,0,0,0,0,0,0,0,,,,,0,12,12,12,,,,,,,,,175.3396223339987,175.3396223339987,175.3396223339987,175.3396223339987,175.3396223339987,175.3396223339987,175.3396223339987,175.3396223339987,175.2176490006658,175.3396223339987,175.3396223339987,175.3396223339987,175.2176490006658,175.3396223339987,175.3396223339987,175.3396223339987,177.4160601250005,,175.3396223339987,175.3396223339987,180.5576429169996,175.80706487499992,176.87967099999878,177.4160601250005,178.48926845899769,175.3396223339987,175.3396223339987,175.28431566733246,175.3396223339987,175.3396223339987,175.3396223339987,175.28431566733246,175.3396223339987,175.3396223339987,180.5576429169996,175.3396223339987,180.5576429169996,180.5576429169996,181.4434395419994,175.3396223339987,1,1,0.8534291239957383,reldom2_s034,001,2025-03-13_15h37.42.803,Vis-A-Scan_AC,2022.2.5,None,
0,0.0,None,fixation,stimulus/viswhat_stim/blank_white.png,stimulus/viswhat_stim/blank_white.png,stimulus/viswhere_stim/blank_white.png,stimulus/viswhere_stim/blank_white.png,stimulus/viswhat_stim/blank_white.png,stimulus/viswhat_stim/blank_white.png,stimulus/viswhat_stim/blank_white.png,stimulus/viswhat_stim/blank_white.png,0.0,0.0,0.0,0.0,0,0.0,0,0.0,0,0.0,0,0.0,0,0.0,0.0,0,0.0,0,0.0,0,0.0,0,0.0,0,0,0,0,0,0,0,0,10,,,,,0,13,13,13,,,,,,,,,181.4434395419994,181.4434395419994,181.4434395419994,181.4434395419994,181.4434395419994,181.4434395419994,181.4434395419994,181.4434395419994,181.3525827503317,181.4434395419994,181.4434395419994,181.4434395419994,181.3525827503317,181.4434395419994,181.4434395419994,181.4434395419994,181.4434395419994,181.4434395419994,181.4434395419994,181.4434395419994,181.4434395419994,181.4434395419994,181.4434395419994,181.4434395419994,181.4434395419994,181.4434395419994,181.4434395419994,181.4025827503317,181.4434395419994,181.4434395419994,181.4434395419994,181.4025827503317,181.4434395419994,181.4434395419994,181.4434395419994,181.4434395419994,181.4434395419994,186.6652136249977,186.6652136249977,191.6005125419979,None,0,,reldom2_s034,001,2025-03-13_15h37.42.803,Vis-A-Scan_AC,2022.2.5,None,
11,Second_Order,2.0,viswhat,stimulus/viswhat_stim/water_vehicle-cabincruiser.png,stimulus/viswhat_stim/land_vehicle-scooter.png,stimulus/viswhat_stim/land_animal-giraffe.png,stimulus/viswhat_stim/water_animal-squid.png,stimulus/viswhat_stim/match_blank.png,stimulus/viswhat_stim/match_box.png,stimulus/viswhat_stim/match_yes.png,stimulus/viswhat_stim/match_no.png,1.0,Match,Type,Type,1,5.125,0,5.125,0,5.125,0,5.125,0,0.75,0.75,1,0.5,1,2.125,1,0.5,1,2.125,0,0,0,0,0,0,0,0,0,,,,,0,14,14,14,,,,,,,,,191.6005125419979,196.72388712500106,192.06306416699954,193.06130433399812,193.68375699999888,194.68184733399903,191.6005125419979,191.6005125419979,191.59942895833424,191.6005125419979,191.6005125419979,191.6005125419979,191.59942895833424,191.6005125419979,196.72388712500106,197.5900392500007,199.65899795899895,203.5969936670008,197.5900392500007,197.5900392500007,202.76973295900098,198.02582370899836,199.11546370900032,199.65899795899895,200.7005683339994,197.5900392500007,197.5900392500007,197.5417311253344,197.5900392500007,197.5900392500007,197.5900392500007,197.5417311253344,197.5900392500007,197.5900392500007,202.76973295900098,197.5900392500007,202.76973295900098,202.76973295900098,,197.5900392500007,1,1,0.8258335829996213,reldom2_s034,001,2025-03-13_15h37.42.803,Vis-A-Scan_AC,2022.2.5,None,
12,Second_Order,2.0,viswhat,stimulus/viswhat_stim/land_animal-bunny.png,stimulus/viswhat_stim/land_vehicle-shortbus.png,stimulus/viswhat_stim/water_vehicle-sailboat.png,stimulus/viswhat_stim/water_animal-whale.png,stimulus/viswhat_stim/match_blank.png,stimulus/viswhat_stim/match_box.png,stimulus/viswhat_stim/match_yes.png,stimulus/viswhat_stim/match_no.png,1.0,Match,Location,Location,1,5.125,0,5.125,0,5.125,0,5.125,0,0.625,0.625,1,0.5,1,2.125,1,0.5,1,2.125,0,0,0,0,0,0,0,0,0,,,,,0,15,15,15,,,,,,,,,203.5969936670008,208.7192279589981,204.03842720899775,205.02629966699897,205.67362912499812,206.66315874999782,203.5969936670008,203.5969936670008,203.6036357500001,203.5969936670008,203.5969936670008,203.5969936670008,203.6036357500001,203.5969936670008,208.7192279589981,209.4636473749997,211.52667258400106,215.57767929200054,209.4636473749997,209.4636473749997,214.63961445899986,209.87296116699872,210.95678016699821,211.52667258400106,212.56517062499915,209.4636473749997,209.4636473749997,209.41536212533296,209.4636473749997,209.4636473749997,209.4636473749997,209.41536212533296,209.4636473749997,209.4636473749997,214.63961445899986,209.4636473749997,214.63961445899986,214.63961445899986,215.33244120900054,209.4636473749997,1,1,0.8239777079979831,reldom2_s034,001,2025-03-13_15h37.42.803,Vis-A-Scan_AC,2022.2.5,None,
0,0.0,None,fixation,stimulus/viswhat_stim/blank_white.png,stimulus/viswhat_stim/blank_white.png,stimulus/viswhere_stim/blank_white.png,stimulus/viswhere_stim/blank_white.png,stimulus/viswhat_stim/blank_white.png,stimulus/viswhat_stim/blank_white.png,stimulus/viswhat_stim/blank_white.png,stimulus/viswhat_stim/blank_white.png,0.0,0.0,0.0,0.0,0,0.0,0,0.0,0,0.0,0,0.0,0,0.0,0.0,0,0.0,0,0.0,0,0.0,0,0.0,0,0,0,0,0,0,0,0,9,,,,,0,16,16,16,,,,,,,,,215.57767929200054,215.57767929200054,215.57767929200054,215.57767929200054,215.57767929200054,215.57767929200054,215.57767929200054,215.57767929200054,215.48244120900054,215.57767929200054,215.57767929200054,215.57767929200054,215.48244120900054,215.57767929200054,215.57767929200054,215.57767929200054,215.57767929200054,215.57767929200054,215.57767929200054,215.57767929200054,215.57767929200054,215.57767929200054,215.57767929200054,215.57767929200054,215.57767929200054,215.57767929200054,215.57767929200054,215.53244120900055,215.57767929200054,215.57767929200054,215.57767929200054,215.53244120900055,215.57767929200054,215.57767929200054,215.57767929200054,215.57767929200054,215.57767929200054,220.75864916700084,220.75864916700084,224.767159250001,None,0,,reldom2_s034,001,2025-03-13_15h37.42.803,Vis-A-Scan_AC,2022.2.5,None,
13,First_Order,3.0,viswhere,stimulus/viswhere_stim/blank_white.png,stimulus/viswhere_stim/blank_white.png,stimulus/viswhere_stim/90-deg_dot-left_slateblue.png,stimulus/viswhere_stim/120-deg_dot-left_slateblue.png,stimulus/viswhere_stim/blank_white.png,stimulus/viswhere_stim/dot_box.png,stimulus/viswhere_stim/dot_yes.png,stimulus/viswhere_stim/dot_no.png,None,Dot,None,Dot,1,0.0,0,5.125,0,5.125,0,5.125,0,0.0,0.625,0,0.0,0,0.0,1,0.5,1,2.125,0,0,0,0,0,0,0,0,0,,,,,0,17,17,17,,,,,,,,,224.767159250001,224.767159250001,224.767159250001,224.767159250001,224.767159250001,224.767159250001,224.767159250001,224.767159250001,224.7486539586668,224.767159250001,224.767159250001,224.767159250001,224.7486539586668,224.767159250001,224.767159250001,224.767159250001,226.87731987499865,230.8314124589997,224.767159250001,224.767159250001,229.91213549999884,225.24295462499867,226.2524818339989,226.87731987499865,227.88835791699967,224.767159250001,224.767159250001,224.7486539586668,224.767159250001,224.767159250001,224.767159250001,224.7486539586668,224.767159250001,224.767159250001,229.91213549999884,224.767159250001,229.91213549999884,229.9856557919993,230.63062870900103,224.767159250001,1,1,1.3639644169998064,reldom2_s034,001,2025-03-13_15h37.42.803,Vis-A-Scan_AC,2022.2.5,None,
14,First_Order,3.0,viswhere,stimulus/viswhere_stim/blank_white.png,stimulus/viswhere_stim/blank_white.png,stimulus/viswhere_stim/30-deg_dot-left_royalblue.png,stimulus/viswhere_stim/30-deg_dot-right_peru.png,stimulus/viswhere_stim/blank_white.png,stimulus/viswhere_stim/dot_box.png,stimulus/viswhere_stim/dot_yes.png,stimulus/viswhere_stim/dot_no.png,None,Dot,None,Line,2,0.0,0,5.125,0,5.125,0,5.125,0,0.0,0.625,0,0.0,0,0.0,1,0.5,1,2.125,0,0,0,0,0,0,0,0,0,,,,,0,18,18,18,,,,,,,,,230.8314124589997,230.8314124589997,230.8314124589997,230.8314124589997,230.8314124589997,230.8314124589997,230.8314124589997,230.8314124589997,230.8105322503337,230.8314124589997,230.8314124589997,230.8314124589997,230.8105322503337,230.8314124589997,230.8314124589997,230.8314124589997,232.94491974999983,236.8966990000008,230.8314124589997,230.8314124589997,235.97625070899812,231.3069252919995,232.31883287500023,232.94491974999983,233.96312070899876,230.8314124589997,230.8314124589997,230.82719891700037,230.8314124589997,230.8314124589997,230.8314124589997,230.82719891700037,230.8314124589997,230.8314124589997,235.97625070899812,230.8314124589997,235.97625070899812,236.06239687500056,236.69679129200085,230.8314124589997,2,1,0.5871178739980678,reldom2_s034,001,2025-03-13_15h37.42.803,Vis-A-Scan_AC,2022.2.5,None,
15,First_Order,3.0,viswhere,stimulus/viswhere_stim/blank_white.png,stimulus/viswhere_stim/blank_white.png,stimulus/viswhere_stim/150-deg_dot-right_turquoise.png,stimulus/viswhere_stim/150-deg_dot-left_cyan.png,stimulus/viswhere_stim/blank_white.png,stimulus/viswhere_stim/line_box.png,stimulus/viswhere_stim/line_yes.png,stimulus/viswhere_stim/line_no.png,None,Line,None,Line,1,0.0,0,5.125,0,5.125,0,5.125,0,0.0,0.625,0,0.0,0,0.0,1,0.5,1,2.125,0,0,0,0,0,0,0,0,0,,,,,0,19,19,19,,,,,,,,,236.8966990000008,236.8966990000008,236.8966990000008,236.8966990000008,236.8966990000008,236.8966990000008,236.8966990000008,236.8966990000008,236.87489383333136,236.8966990000008,236.8966990000008,236.8966990000008,236.87489383333136,236.8966990000008,236.8966990000008,236.8966990000008,238.99997604199962,242.96007470900076,236.8966990000008,236.8966990000008,242.03591320899795,237.37891858399962,238.3845172500005,238.99997604199962,240.00851666699964,236.8966990000008,236.8966990000008,236.89156049999804,236.8966990000008,236.8966990000008,236.8966990000008,236.89156049999804,236.8966990000008,236.8966990000008,242.03591320899795,236.8966990000008,242.03591320899795,242.12382254199838,242.75556908399813,236.8966990000008,1,1,1.0406051249992743,reldom2_s034,001,2025-03-13_15h37.42.803,Vis-A-Scan_AC,2022.2.5,None,
16,First_Order,3.0,viswhere,stimulus/viswhere_stim/blank_white.png,stimulus/viswhere_stim/blank_white.png,stimulus/viswhere_stim/120-deg_dot-right_mediumslateblue.png,stimulus/viswhere_stim/150-deg_dot-right_royalblue.png,stimulus/viswhere_stim/blank_white.png,stimulus/viswhere_stim/line_box.png,stimulus/viswhere_stim/line_yes.png,stimulus/viswhere_stim/line_no.png,None,Line,None,Dot,2,0.0,0,5.125,0,5.125,0,5.125,0,0.0,0.625,0,0.0,0,0.0,1,0.5,1,2.125,0,0,0,0,0,0,0,0,0,,,,,0,20,20,20,,,,,,,,,242.96007470900076,242.96007470900076,242.96007470900076,242.96007470900076,242.96007470900076,242.96007470900076,242.96007470900076,242.96007470900076,242.938779583333,242.96007470900076,242.96007470900076,242.96007470900076,242.938779583333,242.96007470900076,242.96007470900076,242.96007470900076,245.067628124998,249.10522329200103,242.96007470900076,242.96007470900076,248.0876399589979,243.4380638340008,244.4556821670012,245.067628124998,246.072755666999,242.96007470900076,242.96007470900076,242.95544624999968,242.96007470900076,242.96007470900076,242.96007470900076,242.95544624999968,242.96007470900076,242.96007470900076,248.0876399589979,242.96007470900076,248.0876399589979,248.18475312499868,248.80986320900047,242.96007470900076,2,1,0.7999265420003212,reldom2_s034,001,2025-03-13_15h37.42.803,Vis-A-Scan_AC,2022.2.5,None,
0,0.0,None,fixation,stimulus/viswhat_stim/blank_white.png,stimulus/viswhat_stim/blank_white.png,stimulus/viswhere_stim/blank_white.png,stimulus/viswhere_stim/blank_white.png,stimulus/viswhat_stim/blank_white.png,stimulus/viswhat_stim/blank_white.png,stimulus/viswhat_stim/blank_white.png,stimulus/viswhat_stim/blank_white.png,0.0,0.0,0.0,0.0,0,0.0,0,0.0,0,0.0,0,0.0,0,0.0,0.0,0,0.0,0,0.0,0,0.0,0,0.0,0,0,0,0,0,0,0,0,8,,,,,0,21,21,21,,,,,,,,,249.10522329200103,249.10522329200103,249.10522329200103,249.10522329200103,249.10522329200103,249.10522329200103,249.10522329200103,249.10522329200103,249.0085806253313,249.10522329200103,249.10522329200103,249.10522329200103,249.0085806253313,249.10522329200103,249.10522329200103,249.10522329200103,249.10522329200103,249.10522329200103,249.10522329200103,249.10522329200103,249.10522329200103,249.10522329200103,249.10522329200103,249.10522329200103,249.10522329200103,249.10522329200103,249.10522329200103,249.0585806253313,249.10522329200103,249.10522329200103,249.10522329200103,249.0585806253313,249.10522329200103,249.10522329200103,249.10522329200103,249.10522329200103,249.10522329200103,254.3244805840004,254.3244805840004,257.2085459170012,None,0,,reldom2_s034,001,2025-03-13_15h37.42.803,Vis-A-Scan_AC,2022.2.5,None,
17,Second_Order,3.0,viswhere,stimulus/viswhere_stim/60-deg_dot-right_seagreen.png,stimulus/viswhere_stim/150-deg_dot-right_seagreen.png,stimulus/viswhere_stim/90-deg_dot-right_salmon.png,stimulus/viswhere_stim/90-deg_dot-left_seagreen.png,stimulus/viswhat_stim/match_blank.png,stimulus/viswhat_stim/match_box.png,stimulus/viswhat_stim/match_yes.png,stimulus/viswhat_stim/match_no.png,2.0,Match,Dot,Line,2,5.125,0,5.125,0,5.125,0,5.125,0,0.75,0.75,1,0.5,1,2.125,1,0.5,1,2.125,0,0,0,0,0,0,0,0,0,,,,,0,22,22,22,,,,,,,,,257.2085459170012,262.32582762499806,257.6809843339979,258.6797132920001,259.3143293339999,260.30347337499916,257.2085459170012,257.2085459170012,257.2071857086647,257.2085459170012,257.2085459170012,257.2085459170012,257.2071857086647,257.2085459170012,262.32582762499806,263.12027658399893,265.1938956669983,269.09146925000096,263.12027658399893,263.12027658399893,268.2545464169998,263.5632431669983,264.58092775000114,265.1938956669983,266.1983015839978,263.12027658399893,263.12027658399893,263.1095997919991,263.12027658399893,263.12027658399893,263.12027658399893,263.1095997919991,263.12027658399893,263.12027658399893,268.2545464169998,263.12027658399893,268.2545464169998,268.3116400840008,269.09146925000096,263.12027658399893,2,1,1.70097899999746,reldom2_s034,001,2025-03-13_15h37.42.803,Vis-A-Scan_AC,2022.2.5,None,
18,Second_Order,3.0,viswhere,stimulus/viswhere_stim/150-deg_dot-right_goldenrod.png,stimulus/viswhere_stim/150-deg_dot-left_cyan.png,stimulus/viswhere_stim/120-deg_dot-left_royalblue.png,stimulus/viswhere_stim/60-deg_dot-left_royalblue.png,stimulus/viswhat_stim/match_blank.png,stimulus/viswhat_stim/match_box.png,stimulus/viswhat_stim/match_yes.png,stimulus/viswhat_stim/match_no.png,2.0,Match,Line,Dot,2,5.125,0,5.125,0,5.125,0,5.125,0,0.625,0.625,1,0.5,1,2.125,1,0.5,1,2.125,0,0,0,0,0,0,0,0,0,,,,,0,23,23,23,,,,,,,,,269.09146925000096,274.2044370000003,269.5753267500004,270.57335587499983,271.1966027919989,272.19407791699996,269.09146925000096,269.09146925000096,269.10528445899837,269.09146925000096,269.09146925000096,269.09146925000096,269.10528445899837,269.09146925000096,274.2044370000003,274.87398283400034,276.9497161670006,280.9934760420001,274.87398283400034,274.87398283400034,280.0083249999989,275.3334144170003,276.3421667500006,276.9497161670006,277.9666150000012,274.87398283400034,274.87398283400034,274.8503950003328,274.87398283400034,274.87398283400034,274.87398283400034,274.8503950003328,274.87398283400034,274.87398283400034,280.0083249999989,274.87398283400034,280.0083249999989,280.07806645899836,280.71288025000104,274.87398283400034,2,1,1.0178743749966088,reldom2_s034,001,2025-03-13_15h37.42.803,Vis-A-Scan_AC,2022.2.5,None,
0,0.0,None,fixation,stimulus/viswhat_stim/blank_white.png,stimulus/viswhat_stim/blank_white.png,stimulus/viswhere_stim/blank_white.png,stimulus/viswhere_stim/blank_white.png,stimulus/viswhat_stim/blank_white.png,stimulus/viswhat_stim/blank_white.png,stimulus/viswhat_stim/blank_white.png,stimulus/viswhat_stim/blank_white.png,0.0,0.0,0.0,0.0,0,0.0,0,0.0,0,0.0,0,0.0,0,0.0,0.0,0,0.0,0,0.0,0,0.0,0,0.0,0,0,0,0,0,0,0,0,10,,,,,0,24,24,24,,,,,,,,,280.9934760420001,280.9934760420001,280.9934760420001,280.9934760420001,280.9934760420001,280.9934760420001,280.9934760420001,280.9934760420001,280.89653854233376,280.9934760420001,280.9934760420001,280.9934760420001,280.89653854233376,280.9934760420001,280.9934760420001,280.9934760420001,280.9934760420001,280.9934760420001,280.9934760420001,280.9934760420001,280.9934760420001,280.9934760420001,280.9934760420001,280.9934760420001,280.9934760420001,280.9934760420001,280.9934760420001,280.94653854233377,280.9934760420001,280.9934760420001,280.9934760420001,280.94653854233377,280.9934760420001,280.9934760420001,280.9934760420001,280.9934760420001,280.9934760420001,286.2002608340008,286.2002608340008,291.1958410420011,None,0,,reldom2_s034,001,2025-03-13_15h37.42.803,Vis-A-Scan_AC,2022.2.5,None,
19,First_Order,4.0,viswhere,stimulus/viswhere_stim/blank_white.png,stimulus/viswhere_stim/blank_white.png,stimulus/viswhere_stim/90-deg_dot-right_royalblue.png,stimulus/viswhere_stim/120-deg_dot-right_goldenrod.png,stimulus/viswhere_stim/blank_white.png,stimulus/viswhere_stim/dot_box.png,stimulus/viswhere_stim/dot_yes.png,stimulus/viswhere_stim/dot_no.png,None,Dot,None,Dot,1,0.0,0,5.125,0,5.125,0,5.125,0,0.0,0.625,0,0.0,0,0.0,1,0.5,1,2.125,0,0,0,0,0,0,0,0,0,,,,,0,25,25,25,,,,,,,,,291.1958410420011,291.1958410420011,291.1958410420011,291.1958410420011,291.1958410420011,291.1958410420011,291.1958410420011,291.1958410420011,291.17819916666724,291.1958410420011,291.1958410420011,291.1958410420011,291.17819916666724,291.1958410420011,291.1958410420011,291.1958410420011,293.2921438339981,297.2614262499992,291.1958410420011,291.1958410420011,296.3324327499977,291.671613292001,292.6835651670008,293.2921438339981,294.30749254200055,291.1958410420011,291.1958410420011,291.17819916666724,291.1958410420011,291.1958410420011,291.1958410420011,291.17819916666724,291.1958410420011,291.1958410420011,296.3324327499977,291.1958410420011,296.3324327499977,296.41575645899866,297.04735433399765,291.1958410420011,1,1,1.088027207999403,reldom2_s034,001,2025-03-13_15h37.42.803,Vis-A-Scan_AC,2022.2.5,None,
20,First_Order,4.0,viswhere,stimulus/viswhere_stim/blank_white.png,stimulus/viswhere_stim/blank_white.png,stimulus/viswhere_stim/90-deg_dot-left_peru.png,stimulus/viswhere_stim/90-deg_dot-right_royalblue.png,stimulus/viswhere_stim/blank_white.png,stimulus/viswhere_stim/dot_box.png,stimulus/viswhere_stim/dot_yes.png,stimulus/viswhere_stim/dot_no.png,None,Dot,None,Line,2,0.0,0,5.125,0,5.125,0,5.125,0,0.0,0.625,0,0.0,0,0.0,1,0.5,1,2.125,0,0,0,0,0,0,0,0,0,,,,,0,26,26,26,,,,,,,,,297.2614262499992,297.2614262499992,297.2614262499992,297.2614262499992,297.2614262499992,297.2614262499992,297.2614262499992,297.2614262499992,297.24170758333395,297.2614262499992,297.2614262499992,297.2614262499992,297.24170758333395,297.2614262499992,297.2614262499992,297.2614262499992,299.36363054200046,303.33183112500046,297.2614262499992,297.2614262499992,302.38807641699896,297.73909812499915,298.7528955839989,299.36363054200046,300.3817407919996,297.2614262499992,297.2614262499992,297.24170758333395,297.2614262499992,297.2614262499992,297.2614262499992,297.24170758333395,297.2614262499992,297.2614262499992,302.38807641699896,297.2614262499992,302.38807641699896,302.4840362089999,303.11707029199897,297.2614262499992,2,1,1.5114607489958871,reldom2_s034,001,2025-03-13_15h37.42.803,Vis-A-Scan_AC,2022.2.5,None,
21,First_Order,4.0,viswhere,stimulus/viswhere_stim/blank_white.png,stimulus/viswhere_stim/blank_white.png,stimulus/viswhere_stim/120-deg_dot-left_cyan.png,stimulus/viswhere_stim/150-deg_dot-left_seagreen.png,stimulus/viswhere_stim/blank_white.png,stimulus/viswhere_stim/line_box.png,stimulus/viswhere_stim/line_yes.png,stimulus/viswhere_stim/line_no.png,None,Line,None,Dot,2,0.0,0,5.125,0,5.125,0,5.125,0,0.0,0.625,0,0.0,0,0.0,1,0.5,1,2.125,0,0,0,0,0,0,0,0,0,,,,,0,27,27,27,,,,,,,,,303.33183112500046,303.33183112500046,303.33183112500046,303.33183112500046,303.33183112500046,303.33183112500046,303.33183112500046,303.33183112500046,303.31176987533155,303.33183112500046,303.33183112500046,303.33183112500046,303.31176987533155,303.33183112500046,303.33183112500046,303.33183112500046,305.44079404199874,309.4020656249995,303.33183112500046,303.33183112500046,308.4629211249994,303.8102233339996,304.82872337499794,305.44079404199874,306.44507745900046,303.33183112500046,303.33183112500046,303.3284365419982,303.33183112500046,303.33183112500046,303.33183112500046,303.3284365419982,303.33183112500046,303.33183112500046,308.4629211249994,303.33183112500046,308.4629211249994,308.56044525000107,309.1859712500009,303.33183112500046,2,1,1.6358461659983732,reldom2_s034,001,2025-03-13_15h37.42.803,Vis-A-Scan_AC,2022.2.5,None,
22,First_Order,4.0,viswhere,stimulus/viswhere_stim/blank_white.png,stimulus/viswhere_stim/blank_white.png,stimulus/viswhere_stim/150-deg_dot-right_seagreen.png,stimulus/viswhere_stim/150-deg_dot-left_slateblue.png,stimulus/viswhere_stim/blank_white.png,stimulus/viswhere_stim/line_box.png,stimulus/viswhere_stim/line_yes.png,stimulus/viswhere_stim/line_no.png,None,Line,None,Line,1,0.0,0,5.125,0,5.125,0,5.125,0,0.0,0.625,0,0.0,0,0.0,1,0.5,1,2.125,0,0,0,0,0,0,0,0,0,,,,,0,28,28,28,,,,,,,,,309.4020656249995,309.4020656249995,309.4020656249995,309.4020656249995,309.4020656249995,309.4020656249995,309.4020656249995,309.4020656249995,309.38158862533356,309.4020656249995,309.4020656249995,309.4020656249995,309.38158862533356,309.4020656249995,309.4020656249995,309.4020656249995,311.50271783399876,315.5422368750005,309.4020656249995,309.4020656249995,314.5409831249999,309.8835982089986,310.8873743340009,311.50271783399876,312.5140862500011,309.4020656249995,309.4020656249995,309.3982552920002,309.4020656249995,309.4020656249995,309.4020656249995,309.3982552920002,309.4020656249995,309.4020656249995,314.5409831249999,309.4020656249995,314.5409831249999,314.624475042001,315.25041270899965,309.4020656249995,1,1,0.9460602499966626,reldom2_s034,001,2025-03-13_15h37.42.803,Vis-A-Scan_AC,2022.2.5,None,
0,0.0,None,fixation,stimulus/viswhat_stim/blank_white.png,stimulus/viswhat_stim/blank_white.png,stimulus/viswhere_stim/blank_white.png,stimulus/viswhere_stim/blank_white.png,stimulus/viswhat_stim/blank_white.png,stimulus/viswhat_stim/blank_white.png,stimulus/viswhat_stim/blank_white.png,stimulus/viswhat_stim/blank_white.png,0.0,0.0,0.0,0.0,0,0.0,0,0.0,0,0.0,0,0.0,0,0.0,0.0,0,0.0,0,0.0,0,0.0,0,0.0,0,0,0,0,0,0,0,0,9,,,,,0,29,29,29,,,,,,,,,315.5422368750005,315.5422368750005,315.5422368750005,315.5422368750005,315.5422368750005,315.5422368750005,315.5422368750005,315.5422368750005,315.4453893753319,315.5422368750005,315.5422368750005,315.5422368750005,315.4453893753319,315.5422368750005,315.5422368750005,315.5422368750005,315.5422368750005,315.5422368750005,315.5422368750005,315.5422368750005,315.5422368750005,315.5422368750005,315.5422368750005,315.5422368750005,315.5422368750005,315.5422368750005,315.5422368750005,315.4953893753319,315.5422368750005,315.5422368750005,315.5422368750005,315.4953893753319,315.5422368750005,315.5422368750005,315.5422368750005,315.5422368750005,315.5422368750005,320.7686068340008,320.7686068340008,324.673831084001,None,0,,reldom2_s034,001,2025-03-13_15h37.42.803,Vis-A-Scan_AC,2022.2.5,None,
23,Second_Order,4.0,viswhere,stimulus/viswhere_stim/90-deg_dot-right_salmon.png,stimulus/viswhere_stim/150-deg_dot-right_seagreen.png,stimulus/viswhere_stim/150-deg_dot-right_mediumslateblue.png,stimulus/viswhere_stim/150-deg_dot-left_lightsseagreen.png,stimulus/viswhat_stim/match_blank.png,stimulus/viswhat_stim/match_box.png,stimulus/viswhat_stim/match_yes.png,stimulus/viswhat_stim/match_no.png,2.0,Match,Dot,Line,2,5.125,0,5.125,0,5.125,0,5.125,0,0.75,0.75,1,0.5,1,2.125,1,0.5,1,2.125,0,0,0,0,0,0,0,0,0,,,,,0,30,30,30,,,,,,,,,324.673831084001,329.7980009999992,325.1528605839994,326.1386949999978,326.77419866700075,327.7723015419979,324.673831084001,324.673831084001,324.67251266666597,324.673831084001,324.673831084001,324.673831084001,324.67251266666597,324.673831084001,329.7980009999992,330.5936452499991,332.664671833998,336.53009754199957,330.5936452499991,330.5936452499991,335.72971691699786,331.04128774999845,332.04811337499996,332.664671833998,333.67468320899934,330.5936452499991,330.5936452499991,330.56561995833226,330.5936452499991,330.5936452499991,330.5936452499991,330.56561995833226,330.5936452499991,330.5936452499991,335.72971691699786,330.5936452499991,335.72971691699786,335.79001741699904,336.56653449999794,330.5936452499991,2,1,1.0081617909963825,reldom2_s034,001,2025-03-13_15h37.42.803,Vis-A-Scan_AC,2022.2.5,None,
24,Second_Order,4.0,viswhere,stimulus/viswhere_stim/90-deg_dot-left_cyan.png,stimulus/viswhere_stim/60-deg_dot-left_slateblue.png,stimulus/viswhere_stim/120-deg_dot-right_goldenrod.png,stimulus/viswhere_stim/90-deg_dot-right_seagreen.png,stimulus/viswhat_stim/match_blank.png,stimulus/viswhat_stim/match_box.png,stimulus/viswhat_stim/match_yes.png,stimulus/viswhat_stim/match_no.png,1.0,Match,Dot,Dot,1,5.125,0,5.125,0,5.125,0,5.125,0,0.625,0.625,1,0.5,1,2.125,1,0.5,1,2.125,0,0,0,0,0,0,0,0,0,,,,,0,31,31,31,,,,,,,,,336.56653449999794,341.68802654200044,337.0472863340001,338.046180041998,338.66841937500067,339.66673866699784,336.56653449999794,336.56653449999794,336.5800975419996,336.56653449999794,336.56653449999794,336.56653449999794,336.5800975419996,336.56653449999794,341.68802654200044,342.362660458999,344.44775854199906,348.482501167,342.362660458999,342.362660458999,347.4936740839985,342.8260763750004,343.8360235420005,344.44775854199906,345.46679374999803,342.362660458999,342.362660458999,342.3393242503339,342.362660458999,342.362660458999,342.362660458999,342.3393242503339,342.362660458999,342.362660458999,347.4936740839985,342.362660458999,347.4936740839985,347.5643014169982,348.1895898750008,342.362660458999,1,1,0.8938862079994578,reldom2_s034,001,2025-03-13_15h37.42.803,Vis-A-Scan_AC,2022.2.5,None,
0,0.0,None,fixation,stimulus/viswhat_stim/blank_white.png,stimulus/viswhat_stim/blank_white.png,stimulus/viswhere_stim/blank_white.png,stimulus/viswhere_stim/blank_white.png,stimulus/viswhat_stim/blank_white.png,stimulus/viswhat_stim/blank_white.png,stimulus/viswhat_stim/blank_white.png,stimulus/viswhat_stim/blank_white.png,0.0,0.0,0.0,0.0,0,0.0,0,0.0,0,0.0,0,0.0,0,0.0,0.0,0,0.0,0,0.0,0,0.0,0,0.0,0,0,0,0,0,0,0,0,10,,,,,0,32,32,32,,,,,,,,,348.482501167,348.482501167,348.482501167,348.482501167,348.482501167,348.482501167,348.482501167,348.482501167,348.3856430003337,348.482501167,348.482501167,348.482501167,348.3856430003337,348.482501167,348.482501167,348.482501167,348.482501167,348.482501167,348.482501167,348.482501167,348.482501167,348.482501167,348.482501167,348.482501167,348.482501167,348.482501167,348.482501167,348.4356430003337,348.482501167,348.482501167,348.482501167,348.4356430003337,348.482501167,348.482501167,348.482501167,348.482501167,348.482501167,353.669885542,353.669885542,358.70076645899826,None,0,,reldom2_s034,001,2025-03-13_15h37.42.803,Vis-A-Scan_AC,2022.2.5,None,
25,First_Order,5.0,viswhat,stimulus/viswhat_stim/blank_white.png,stimulus/viswhat_stim/blank_white.png,stimulus/viswhat_stim/land_vehicle-shortbus.png,stimulus/viswhat_stim/land_animal-pig.png,stimulus/viswhat_stim/blank_white.png,stimulus/viswhat_stim/location_box.png,stimulus/viswhat_stim/location_yes.png,stimulus/viswhat_stim/location_no.png,None,Location,None,Location,1,0.0,0,5.125,0,5.125,0,5.125,0,0.0,0.625,0,0.0,0,0.0,1,0.5,1,2.125,0,0,0,0,0,0,0,0,0,,,,,0,33,33,33,,,,,,,,,358.70076645899826,358.70076645899826,358.70076645899826,358.70076645899826,358.70076645899826,358.70076645899826,358.70076645899826,358.70076645899826,358.66240175066434,358.70076645899826,358.70076645899826,358.70076645899826,358.66240175066434,358.70076645899826,358.70076645899826,358.70076645899826,360.7956881249993,,358.70076645899826,358.70076645899826,363.85426050000024,359.1670427499994,360.18794799999887,360.7956881249993,361.81566100000055,358.70076645899826,358.70076645899826,358.67906841733105,358.70076645899826,358.70076645899826,358.70076645899826,358.67906841733105,358.70076645899826,358.70076645899826,363.85426050000024,358.70076645899826,363.85426050000024,363.92422295899814,364.5579429169993,358.70076645899826,1,1,1.2070474999964063,reldom2_s034,001,2025-03-13_15h37.42.803,Vis-A-Scan_AC,2022.2.5,None,
26,First_Order,5.0,viswhat,stimulus/viswhat_stim/blank_white.png,stimulus/viswhat_stim/blank_white.png,stimulus/viswhat_stim/land_vehicle-rv.png,stimulus/viswhat_stim/land_animal-bunny.png,stimulus/viswhat_stim/blank_white.png,stimulus/viswhat_stim/type_box.png,stimulus/viswhat_stim/type_yes.png,stimulus/viswhat_stim/type_no.png,None,Type,None,Location,2,0.0,0,5.125,0,5.125,0,5.125,0,0.0,0.625,0,0.0,0,0.0,1,0.5,1,2.125,0,0,0,0,0,0,0,0,0,,,,,0,34,34,34,,,,,,,,,364.80973279200043,364.80973279200043,364.80973279200043,364.80973279200043,364.80973279200043,364.80973279200043,364.80973279200043,364.80973279200043,364.7277248750011,364.80973279200043,364.80973279200043,364.80973279200043,364.7277248750011,364.80973279200043,364.80973279200043,364.80973279200043,366.90003170899945,,364.80973279200043,364.80973279200043,369.9902960420004,365.2831839169994,366.3310653339977,366.90003170899945,367.95266224999796,364.80973279200043,364.80973279200043,364.7777248750011,364.80973279200043,364.80973279200043,364.80973279200043,364.7777248750011,364.80973279200043,364.80973279200043,369.9902960420004,364.80973279200043,369.9902960420004,370.0322987920008,370.70112287499796,364.80973279200043,2,1,0.822467248995963,reldom2_s034,001,2025-03-13_15h37.42.803,Vis-A-Scan_AC,2022.2.5,None,
27,First_Order,5.0,viswhat,stimulus/viswhat_stim/blank_white.png,stimulus/viswhat_stim/blank_white.png,stimulus/viswhat_stim/land_animal-zebra.png,stimulus/viswhat_stim/land_vehicle-oldcar.png,stimulus/viswhat_stim/blank_white.png,stimulus/viswhat_stim/location_box.png,stimulus/viswhat_stim/location_yes.png,stimulus/viswhat_stim/location_no.png,None,Location,None,Location,1,0.0,0,5.125,0,5.125,0,5.125,0,0.0,0.625,0,0.0,0,0.0,1,0.5,1,2.125,0,0,0,0,0,0,0,0,0,,,,,0,35,35,35,,,,,,,,,370.9132251250012,370.9132251250012,370.9132251250012,370.9132251250012,370.9132251250012,370.9132251250012,370.9132251250012,370.9132251250012,370.8344562083313,370.9132251250012,370.9132251250012,370.9132251250012,370.8344562083313,370.9132251250012,370.9132251250012,370.9132251250012,373.0225973339984,376.9936439999983,370.9132251250012,370.9132251250012,376.0997600419978,371.3960384589991,372.4522883339996,373.0225973339984,374.0826013750011,370.9132251250012,370.9132251250012,370.8844562083313,370.9132251250012,370.9132251250012,370.9132251250012,370.8844562083313,370.9132251250012,370.9132251250012,376.0997600419978,370.9132251250012,376.0997600419978,376.1381918340012,376.78871116699884,370.9132251250012,1,1,1.0350223749992438,reldom2_s034,001,2025-03-13_15h37.42.803,Vis-A-Scan_AC,2022.2.5,None,
28,First_Order,5.0,viswhat,stimulus/viswhat_stim/blank_white.png,stimulus/viswhat_stim/blank_white.png,stimulus/viswhat_stim/water_vehicle-canoe.png,stimulus/viswhat_stim/land_vehicle-trolley.png,stimulus/viswhat_stim/blank_white.png,stimulus/viswhat_stim/type_box.png,stimulus/viswhat_stim/type_yes.png,stimulus/viswhat_stim/type_no.png,None,Type,None,Type,1,0.0,0,5.125,0,5.125,0,5.125,0,0.0,0.625,0,0.0,0,0.0,1,0.5,1,2.125,0,0,0,0,0,0,0,0,0,,,,,0,36,36,36,,,,,,,,,376.9936439999983,376.9936439999983,376.9936439999983,376.9936439999983,376.9936439999983,376.9936439999983,376.9936439999983,376.9936439999983,376.9601395423325,376.9936439999983,376.9936439999983,376.9936439999983,376.9601395423325,376.9936439999983,376.9936439999983,376.9936439999983,379.103805333998,383.13752266699885,376.9936439999983,376.9936439999983,382.139923499999,377.48132058400006,378.5137875420005,379.103805333998,380.1364861250004,376.9936439999983,376.9936439999983,376.97680620899916,376.9936439999983,376.9936439999983,376.9936439999983,376.97680620899916,376.9936439999983,376.9936439999983,382.139923499999,376.9936439999983,382.139923499999,382.2202239590006,382.86207149999973,376.9936439999983,None,0,,reldom2_s034,001,2025-03-13_15h37.42.803,Vis-A-Scan_AC,2022.2.5,None,
0,0.0,None,fixation,stimulus/viswhat_stim/blank_white.png,stimulus/viswhat_stim/blank_white.png,stimulus/viswhere_stim/blank_white.png,stimulus/viswhere_stim/blank_white.png,stimulus/viswhat_stim/blank_white.png,stimulus/viswhat_stim/blank_white.png,stimulus/viswhat_stim/blank_white.png,stimulus/viswhat_stim/blank_white.png,0.0,0.0,0.0,0.0,0,0.0,0,0.0,0,0.0,0,0.0,0,0.0,0.0,0,0.0,0,0.0,0,0.0,0,0.0,0,0,0,0,0,0,0,0,9,,,,,0,37,37,37,,,,,,,,,383.13752266699885,383.13752266699885,383.13752266699885,383.13752266699885,383.13752266699885,383.13752266699885,383.13752266699885,383.13752266699885,383.04234375000084,383.13752266699885,383.13752266699885,383.13752266699885,383.04234375000084,383.13752266699885,383.13752266699885,383.13752266699885,383.13752266699885,383.13752266699885,383.13752266699885,383.13752266699885,383.13752266699885,383.13752266699885,383.13752266699885,383.13752266699885,383.13752266699885,383.13752266699885,383.13752266699885,383.09234375000085,383.13752266699885,383.13752266699885,383.13752266699885,383.09234375000085,383.13752266699885,383.13752266699885,383.13752266699885,383.13752266699885,383.13752266699885,388.3163652500007,388.3163652500007,392.28263587499896,None,0,,reldom2_s034,001,2025-03-13_15h37.42.803,Vis-A-Scan_AC,2022.2.5,None,
29,Second_Order,5.0,viswhat,stimulus/viswhat_stim/land_vehicle-schoolbus.png,stimulus/viswhat_stim/land_animal-snake.png,stimulus/viswhat_stim/water_vehicle-cruiser.png,stimulus/viswhat_stim/water_animal-whale.png,stimulus/viswhat_stim/match_blank.png,stimulus/viswhat_stim/match_box.png,stimulus/viswhat_stim/match_yes.png,stimulus/viswhat_stim/match_no.png,1.0,Match,Location,Location,1,5.125,0,5.125,0,5.125,0,5.125,0,0.75,0.75,1,0.5,1,2.125,1,0.5,1,2.125,0,0,0,0,0,0,0,0,0,,,,,0,38,38,38,,,,,,,,,392.28263587499896,397.40492508399984,392.75766291699983,393.7452217499995,394.38090441700115,395.3782483340001,392.28263587499896,392.28263587499896,392.29110845833395,392.28263587499896,392.28263587499896,392.28263587499896,392.29110845833395,392.28263587499896,397.40492508399984,398.29636087499966,400.3549026670007,,398.29636087499966,398.29636087499966,403.5118406670008,398.706050959001,399.80502224999873,400.3549026670007,401.4539232919997,398.29636087499966,398.29636087499966,398.23821212499894,398.29636087499966,398.29636087499966,398.29636087499966,398.23821212499894,398.29636087499966,398.29636087499966,403.5118406670008,398.29636087499966,403.5118406670008,403.44845879199784,,398.29636087499966,1,1,1.4775166249964968,reldom2_s034,001,2025-03-13_15h37.42.803,Vis-A-Scan_AC,2022.2.5,None,
30,Second_Order,5.0,viswhat,stimulus/viswhat_stim/land_vehicle-tank.png,stimulus/viswhat_stim/water_vehicle-cabincruiser.png,stimulus/viswhat_stim/land_animal-pig.png,stimulus/viswhat_stim/water_animal-stingray.png,stimulus/viswhat_stim/match_blank.png,stimulus/viswhat_stim/match_box.png,stimulus/viswhat_stim/match_yes.png,stimulus/viswhat_stim/match_no.png,1.0,Match,Type,Type,1,5.125,0,5.125,0,5.125,0,5.125,0,0.625,0.625,1,0.5,1,2.125,1,0.5,1,2.125,0,0,0,0,0,0,0,0,0,,,,,0,39,39,39,,,,,,,,,404.2323862089979,409.3467045840007,404.7046292919986,405.7021644999986,406.3259526670008,407.3228933339997,404.2323862089979,404.2323862089979,404.23229966699944,404.2323862089979,404.2323862089979,404.2323862089979,404.23229966699944,404.2323862089979,409.3467045840007,410.0152057089981,412.0847095419995,416.13374866699814,410.0152057089981,410.0152057089981,415.13931541700003,410.47151945899896,411.4948417919986,412.0847095419995,413.08947045899913,410.0152057089981,410.0152057089981,409.9877916253322,410.0152057089981,410.0152057089981,410.0152057089981,409.9877916253322,410.0152057089981,410.0152057089981,415.13931541700003,410.0152057089981,415.13931541700003,415.2046838749993,415.84472099999766,410.0152057089981,1,1,0.9034344579995377,reldom2_s034,001,2025-03-13_15h37.42.803,Vis-A-Scan_AC,2022.2.5,None,
0,0.0,None,fixation,stimulus/viswhat_stim/blank_white.png,stimulus/viswhat_stim/blank_white.png,stimulus/viswhere_stim/blank_white.png,stimulus/viswhere_stim/blank_white.png,stimulus/viswhat_stim/blank_white.png,stimulus/viswhat_stim/blank_white.png,stimulus/viswhat_stim/blank_white.png,stimulus/viswhat_stim/blank_white.png,0.0,0.0,0.0,0.0,0,0.0,0,0.0,0,0.0,0,0.0,0,0.0,0.0,0,0.0,0,0.0,0,0.0,0,0.0,0,0,0,0,0,0,0,0,10,,,,,0,40,40,40,,,,,,,,,416.13374866699814,416.13374866699814,416.13374866699814,416.13374866699814,416.13374866699814,416.13374866699814,416.13374866699814,416.13374866699814,416.0289266673329,416.13374866699814,416.13374866699814,416.13374866699814,416.0289266673329,416.13374866699814,416.13374866699814,416.13374866699814,416.13374866699814,416.13374866699814,416.13374866699814,416.13374866699814,416.13374866699814,416.13374866699814,416.13374866699814,416.13374866699814,416.13374866699814,416.13374866699814,416.13374866699814,416.09559333399955,416.13374866699814,416.13374866699814,416.13374866699814,416.09559333399955,416.13374866699814,416.13374866699814,416.13374866699814,416.13374866699814,416.13374866699814,421.36207566699886,421.36207566699886,426.3279159169979,None,0,,reldom2_s034,001,2025-03-13_15h37.42.803,Vis-A-Scan_AC,2022.2.5,None,
31,First_Order,6.0,viswhat,stimulus/viswhat_stim/blank_white.png,stimulus/viswhat_stim/blank_white.png,stimulus/viswhat_stim/land_vehicle-rv.png,stimulus/viswhat_stim/land_animal-ostrich.png,stimulus/viswhat_stim/blank_white.png,stimulus/viswhat_stim/type_box.png,stimulus/viswhat_stim/type_yes.png,stimulus/viswhat_stim/type_no.png,None,Type,None,Location,2,0.0,0,5.125,0,5.125,0,5.125,0,0.0,0.625,0,0.0,0,0.0,1,0.5,1,2.125,0,0,0,0,0,0,0,0,0,,,,,0,41,41,41,,,,,,,,,426.3279159169979,426.3279159169979,426.3279159169979,426.3279159169979,426.3279159169979,426.3279159169979,426.3279159169979,426.3279159169979,426.29851662566455,426.3279159169979,426.3279159169979,426.3279159169979,426.29851662566455,426.3279159169979,426.3279159169979,426.3279159169979,428.440546834001,432.4712954589995,426.3279159169979,426.3279159169979,431.4655383339996,426.8072644999993,427.81542970900045,428.440546834001,429.44988995899985,426.3279159169979,426.3279159169979,426.31518329233126,426.3279159169979,426.3279159169979,426.3279159169979,426.31518329233126,426.3279159169979,426.3279159169979,431.4655383339996,426.3279159169979,431.4655383339996,431.53912041700096,432.1671485839979,426.3279159169979,2,1,1.0770707500014396,reldom2_s034,001,2025-03-13_15h37.42.803,Vis-A-Scan_AC,2022.2.5,None,
32,First_Order,6.0,viswhat,stimulus/viswhat_stim/blank_white.png,stimulus/viswhat_stim/blank_white.png,stimulus/viswhat_stim/land_animal-moose.png,stimulus/viswhat_stim/water_animal-dolphin.png,stimulus/viswhat_stim/blank_white.png,stimulus/viswhat_stim/type_box.png,stimulus/viswhat_stim/type_yes.png,stimulus/viswhat_stim/type_no.png,None,Type,None,Type,1,0.0,0,5.125,0,5.125,0,5.125,0,0.0,0.625,0,0.0,0,0.0,1,0.5,1,2.125,0,0,0,0,0,0,0,0,0,,,,,0,42,42,42,,,,,,,,,432.4712954589995,432.4712954589995,432.4712954589995,432.4712954589995,432.4712954589995,432.4712954589995,432.4712954589995,432.4712954589995,432.3772978339999,432.4712954589995,432.4712954589995,432.4712954589995,432.3772978339999,432.4712954589995,432.4712954589995,432.4712954589995,434.5790894589991,,432.4712954589995,432.4712954589995,437.6790887089992,432.9380243339983,433.9958184169991,434.5790894589991,435.633079291998,432.4712954589995,432.4712954589995,432.4272978339999,432.4712954589995,432.4712954589995,432.4712954589995,432.4272978339999,432.4712954589995,432.4712954589995,437.6790887089992,432.4712954589995,437.6790887089992,437.6790887089992,438.53353266699924,432.4712954589995,1,1,1.4322834989980038,reldom2_s034,001,2025-03-13_15h37.42.803,Vis-A-Scan_AC,2022.2.5,None,
33,First_Order,6.0,viswhat,stimulus/viswhat_stim/blank_white.png,stimulus/viswhat_stim/blank_white.png,stimulus/viswhat_stim/land_vehicle-buldozer.png,stimulus/viswhat_stim/water_vehicle-canoe.png,stimulus/viswhat_stim/blank_white.png,stimulus/viswhat_stim/location_box.png,stimulus/viswhat_stim/location_yes.png,stimulus/viswhat_stim/location_no.png,None,Location,None,Type,2,0.0,0,5.125,0,5.125,0,5.125,0,0.0,0.625,0,0.0,0,0.0,1,0.5,1,2.125,0,0,0,0,0,0,0,0,0,,,,,0,43,43,43,,,,,,,,,438.53353266699924,438.53353266699924,438.53353266699924,438.53353266699924,438.53353266699924,438.53353266699924,438.53353266699924,438.53353266699924,438.4832931666666,438.53353266699924,438.53353266699924,438.53353266699924,438.4832931666666,438.53353266699924,438.53353266699924,438.53353266699924,440.6295984169992,444.6084472920011,438.53353266699924,438.53353266699924,443.7045668339997,439.0022093749976,440.0517583340006,440.6295984169992,441.6822459169998,438.53353266699924,438.53353266699924,438.4999598333333,438.53353266699924,438.53353266699924,438.53353266699924,438.4999598333333,438.53353266699924,438.53353266699924,443.7045668339997,438.53353266699924,443.7045668339997,443.73526295899865,444.3744493749982,438.53353266699924,2,1,0.9260110409995832,reldom2_s034,001,2025-03-13_15h37.42.803,Vis-A-Scan_AC,2022.2.5,None,
34,First_Order,6.0,viswhat,stimulus/viswhat_stim/blank_white.png,stimulus/viswhat_stim/blank_white.png,stimulus/viswhat_stim/land_vehicle-scooter.png,stimulus/viswhat_stim/water_vehicle-motorboatraft.png,stimulus/viswhat_stim/blank_white.png,stimulus/viswhat_stim/location_box.png,stimulus/viswhat_stim/location_yes.png,stimulus/viswhat_stim/location_no.png,None,Location,None,Type,2,0.0,0,5.125,0,5.125,0,5.125,0,0.0,0.625,0,0.0,0,0.0,1,0.5,1,2.125,0,0,0,0,0,0,0,0,0,,,,,0,44,44,44,,,,,,,,,444.6084472920011,444.6084472920011,444.6084472920011,444.6084472920011,444.6084472920011,444.6084472920011,444.6084472920011,444.6084472920011,444.5828086666678,444.6084472920011,444.6084472920011,444.6084472920011,444.5828086666678,444.6084472920011,444.6084472920011,444.6084472920011,446.7052829999993,450.75580716699915,444.6084472920011,444.6084472920011,449.74619916699885,445.0857646250006,446.1053415839997,446.7052829999993,447.72622950000004,444.6084472920011,444.6084472920011,444.59947533333445,444.6084472920011,444.6084472920011,444.6084472920011,444.59947533333445,444.6084472920011,444.6084472920011,449.74619916699885,444.6084472920011,449.74619916699885,449.84019733400055,450.4633522920012,444.6084472920011,2,1,1.4477697079964855,reldom2_s034,001,2025-03-13_15h37.42.803,Vis-A-Scan_AC,2022.2.5,None,
0,0.0,None,fixation,stimulus/viswhat_stim/blank_white.png,stimulus/viswhat_stim/blank_white.png,stimulus/viswhere_stim/blank_white.png,stimulus/viswhere_stim/blank_white.png,stimulus/viswhat_stim/blank_white.png,stimulus/viswhat_stim/blank_white.png,stimulus/viswhat_stim/blank_white.png,stimulus/viswhat_stim/blank_white.png,0.0,0.0,0.0,0.0,0,0.0,0,0.0,0,0.0,0,0.0,0,0.0,0.0,0,0.0,0,0.0,0,0.0,0,0.0,0,0,0,0,0,0,0,0,8,,,,,0,45,45,45,,,,,,,,,450.75580716699915,450.75580716699915,450.75580716699915,450.75580716699915,450.75580716699915,450.75580716699915,450.75580716699915,450.75580716699915,450.6554428333341,450.75580716699915,450.75580716699915,450.75580716699915,450.6554428333341,450.75580716699915,450.75580716699915,450.75580716699915,450.75580716699915,450.75580716699915,450.75580716699915,450.75580716699915,450.75580716699915,450.75580716699915,450.75580716699915,450.75580716699915,450.75580716699915,450.75580716699915,450.75580716699915,450.70544283333413,450.75580716699915,450.75580716699915,450.75580716699915,450.70544283333413,450.75580716699915,450.75580716699915,450.75580716699915,450.75580716699915,450.75580716699915,455.9439871249997,455.9439871249997,458.92839245899813,None,0,,reldom2_s034,001,2025-03-13_15h37.42.803,Vis-A-Scan_AC,2022.2.5,None,
35,Second_Order,6.0,viswhat,stimulus/viswhat_stim/land_vehicle-train.png,stimulus/viswhat_stim/land_animal-moose.png,stimulus/viswhat_stim/land_vehicle-schoolbus.png,stimulus/viswhat_stim/water_vehicle-sailboat.png,stimulus/viswhat_stim/match_blank.png,stimulus/viswhat_stim/match_box.png,stimulus/viswhat_stim/match_yes.png,stimulus/viswhat_stim/match_no.png,2.0,Match,Location,Type,2,5.125,0,5.125,0,5.125,0,5.125,0,0.75,0.75,1,0.5,1,2.125,1,0.5,1,2.125,0,0,0,0,0,0,0,0,0,,,,,0,46,46,46,,,,,,,,,458.92839245899813,464.04176079199897,459.3763844999994,460.365886874999,461.000971958998,461.9991576249995,458.92839245899813,458.92839245899813,458.94123720866503,458.92839245899813,458.92839245899813,458.92839245899813,458.94123720866503,458.92839245899813,464.04176079199897,464.90365920899785,466.9612895419996,,464.90365920899785,464.90365920899785,470.108883334,465.31414433399914,466.396217417001,466.9612895419996,468.0457943340007,464.90365920899785,464.90365920899785,464.85954045833324,464.90365920899785,464.90365920899785,464.90365920899785,464.85954045833324,464.90365920899785,464.90365920899785,470.108883334,464.90365920899785,470.108883334,470.0629035419988,,464.90365920899785,2,1,1.9499885409968556,reldom2_s034,001,2025-03-13_15h37.42.803,Vis-A-Scan_AC,2022.2.5,None,
36,Second_Order,6.0,viswhat,stimulus/viswhat_stim/land_animal-moose.png,stimulus/viswhat_stim/land_vehicle-schoolbus.png,stimulus/viswhat_stim/land_vehicle-pickuptruck.png,stimulus/viswhat_stim/water_vehicle-canoe(1).png,stimulus/viswhat_stim/match_blank.png,stimulus/viswhat_stim/match_box.png,stimulus/viswhat_stim/match_yes.png,stimulus/viswhat_stim/match_no.png,2.0,Match,Location,Type,2,5.125,0,5.125,0,5.125,0,5.125,0,0.625,0.625,1,0.5,1,2.125,1,0.5,1,2.125,0,0,0,0,0,0,0,0,0,,,,,0,47,47,47,,,,,,,,,470.89169050000055,476.0148031669996,471.33771887499825,472.3266464999979,472.9623507920005,473.95998812499965,470.89169050000055,470.89169050000055,470.9005415839987,470.89169050000055,470.89169050000055,470.89169050000055,470.9005415839987,470.89169050000055,476.0148031669996,476.69531541700053,478.78218262500013,482.81874912499916,476.69531541700053,476.69531541700053,481.82091941699764,477.14934037499916,478.1618739999976,478.78218262500013,479.794104042001,476.69531541700053,476.69531541700053,476.6831211249999,476.69531541700053,476.69531541700053,476.69531541700053,476.6831211249999,476.69531541700053,476.69531541700053,481.82091941699764,476.69531541700053,481.82091941699764,481.88503641699936,482.51507991700055,476.69531541700053,2,1,1.0457785830003559,reldom2_s034,001,2025-03-13_15h37.42.803,Vis-A-Scan_AC,2022.2.5,None,
0,0.0,None,fixation,stimulus/viswhat_stim/blank_white.png,stimulus/viswhat_stim/blank_white.png,stimulus/viswhere_stim/blank_white.png,stimulus/viswhere_stim/blank_white.png,stimulus/viswhat_stim/blank_white.png,stimulus/viswhat_stim/blank_white.png,stimulus/viswhat_stim/blank_white.png,stimulus/viswhat_stim/blank_white.png,0.0,0.0,0.0,0.0,0,0.0,0,0.0,0,0.0,0,0.0,0,0.0,0.0,0,0.0,0,0.0,0,0.0,0,0.0,0,0,0,0,0,0,0,0,8,,,,,0,48,48,48,,,,,,,,,482.81874912499916,482.81874912499916,482.81874912499916,482.81874912499916,482.81874912499916,482.81874912499916,482.81874912499916,482.81874912499916,482.71552962533434,482.81874912499916,482.81874912499916,482.81874912499916,482.71552962533434,482.81874912499916,482.81874912499916,482.81874912499916,482.81874912499916,482.81874912499916,482.81874912499916,482.81874912499916,482.81874912499916,482.81874912499916,482.81874912499916,482.81874912499916,482.81874912499916,482.81874912499916,482.81874912499916,482.782196292001,482.81874912499916,482.81874912499916,482.81874912499916,482.782196292001,482.81874912499916,482.81874912499916,482.81874912499916,482.81874912499916,482.81874912499916,488.01669287500044,488.01669287500044,491.0153614169976,None,0,,reldom2_s034,001,2025-03-13_15h37.42.803,Vis-A-Scan_AC,2022.2.5,None,
37,First_Order,7.0,viswhere,stimulus/viswhere_stim/blank_white.png,stimulus/viswhere_stim/blank_white.png,stimulus/viswhere_stim/120-deg_dot-right_turquoise.png,stimulus/viswhere_stim/120-deg_dot-left_slateblue.png,stimulus/viswhere_stim/blank_white.png,stimulus/viswhere_stim/line_box.png,stimulus/viswhere_stim/line_yes.png,stimulus/viswhere_stim/line_no.png,None,Line,None,Line,1,0.0,0,5.125,0,5.125,0,5.125,0,0.0,0.625,0,0.0,0,0.0,1,0.5,1,2.125,0,0,0,0,0,0,0,0,0,,,,,0,49,49,49,,,,,,,,,491.0153614169976,491.0153614169976,491.0153614169976,491.0153614169976,491.0153614169976,491.0153614169976,491.0153614169976,491.0153614169976,490.9959757916646,491.0153614169976,491.0153614169976,491.0153614169976,490.9959757916646,491.0153614169976,491.0153614169976,491.0153614169976,493.1134032089976,497.0766674999977,491.0153614169976,491.0153614169976,496.15139979200103,491.49114929200005,492.50181562500075,493.1134032089976,494.12918241700027,491.0153614169976,491.0153614169976,490.9959757916646,491.0153614169976,491.0153614169976,491.0153614169976,490.9959757916646,491.0153614169976,491.0153614169976,496.15139979200103,491.0153614169976,496.15139979200103,496.23425399999905,496.86210454200045,491.0153614169976,1,1,1.9477520419968641,reldom2_s034,001,2025-03-13_15h37.42.803,Vis-A-Scan_AC,2022.2.5,None,
38,First_Order,7.0,viswhere,stimulus/viswhere_stim/blank_white.png,stimulus/viswhere_stim/blank_white.png,stimulus/viswhere_stim/30-deg_dot-right_royalblue.png,stimulus/viswhere_stim/30-deg_dot-left_royalblue.png,stimulus/viswhere_stim/blank_white.png,stimulus/viswhere_stim/dot_box.png,stimulus/viswhere_stim/dot_yes.png,stimulus/viswhere_stim/dot_no.png,None,Dot,None,Line,2,0.0,0,5.125,0,5.125,0,5.125,0,0.0,0.625,0,0.0,0,0.0,1,0.5,1,2.125,0,0,0,0,0,0,0,0,0,,,,,0,50,50,50,,,,,,,,,497.0766674999977,497.0766674999977,497.0766674999977,497.0766674999977,497.0766674999977,497.0766674999977,497.0766674999977,497.0766674999977,497.0560495003313,497.0766674999977,497.0766674999977,497.0766674999977,497.0560495003313,497.0766674999977,497.0766674999977,497.0766674999977,499.1925404169997,503.13999825000064,497.0766674999977,497.0766674999977,502.21285050000006,497.5533839589989,498.564789,499.1925404169997,500.20770308400097,497.0766674999977,497.0766674999977,497.07271616699796,497.0766674999977,497.0766674999977,497.0766674999977,497.07271616699796,497.0766674999977,497.0766674999977,502.21285050000006,497.0766674999977,502.21285050000006,502.29577933399923,502.9262203750004,497.0766674999977,2,1,1.6985532910002803,reldom2_s034,001,2025-03-13_15h37.42.803,Vis-A-Scan_AC,2022.2.5,None,
39,First_Order,7.0,viswhere,stimulus/viswhere_stim/blank_white.png,stimulus/viswhere_stim/blank_white.png,stimulus/viswhere_stim/150-deg_dot-left_peru.png,stimulus/viswhere_stim/30-deg_dot-left_goldenrod.png,stimulus/viswhere_stim/blank_white.png,stimulus/viswhere_stim/line_box.png,stimulus/viswhere_stim/line_yes.png,stimulus/viswhere_stim/line_no.png,None,Line,None,Dot,2,0.0,0,5.125,0,5.125,0,5.125,0,0.0,0.625,0,0.0,0,0.0,1,0.5,1,2.125,0,0,0,0,0,0,0,0,0,,,,,0,51,51,51,,,,,,,,,503.13999825000064,503.13999825000064,503.13999825000064,503.13999825000064,503.13999825000064,503.13999825000064,503.13999825000064,503.13999825000064,503.1200003753341,503.13999825000064,503.13999825000064,503.13999825000064,503.1200003753341,503.13999825000064,503.13999825000064,503.13999825000064,505.2525679169994,509.20418158399843,503.13999825000064,503.13999825000064,508.2629393339994,503.62065466700005,504.6406087920004,505.2525679169994,506.25959454199983,503.13999825000064,503.13999825000064,503.13666704200074,503.13999825000064,503.13999825000064,503.13999825000064,503.13666704200074,503.13999825000064,503.13999825000064,508.2629393339994,503.13999825000064,508.2629393339994,508.36339008399955,508.9902476669995,503.13999825000064,2,1,1.2791934999986552,reldom2_s034,001,2025-03-13_15h37.42.803,Vis-A-Scan_AC,2022.2.5,None,
40,First_Order,7.0,viswhere,stimulus/viswhere_stim/blank_white.png,stimulus/viswhere_stim/blank_white.png,stimulus/viswhere_stim/120-deg_dot-left_royalblue.png,stimulus/viswhere_stim/120-deg_dot-right_slateblue.png,stimulus/viswhere_stim/blank_white.png,stimulus/viswhere_stim/dot_box.png,stimulus/viswhere_stim/dot_yes.png,stimulus/viswhere_stim/dot_no.png,None,Dot,None,Line,2,0.0,0,5.125,0,5.125,0,5.125,0,0.0,0.625,0,0.0,0,0.0,1,0.5,1,2.125,0,0,0,0,0,0,0,0,0,,,,,0,52,52,52,,,,,,,,,509.20418158399843,509.20418158399843,509.20418158399843,509.20418158399843,509.20418158399843,509.20418158399843,509.20418158399843,509.20418158399843,509.18412904233384,509.20418158399843,509.20418158399843,509.20418158399843,509.18412904233384,509.20418158399843,509.20418158399843,509.20418158399843,511.320279167001,515.3478526250001,509.20418158399843,509.20418158399843,514.3526876249998,509.68028620900077,510.6921695839992,511.320279167001,512.3376358749993,509.20418158399843,509.20418158399843,509.2007957090005,509.20418158399843,509.20418158399843,509.20418158399843,509.2007957090005,509.20418158399843,509.20418158399843,514.3526876249998,509.20418158399843,514.3526876249998,514.436028791999,515.0709755839998,509.20418158399843,2,1,0.8397131659985462,reldom2_s034,001,2025-03-13_15h37.42.803,Vis-A-Scan_AC,2022.2.5,None,
0,0.0,None,fixation,stimulus/viswhat_stim/blank_white.png,stimulus/viswhat_stim/blank_white.png,stimulus/viswhere_stim/blank_white.png,stimulus/viswhere_stim/blank_white.png,stimulus/viswhat_stim/blank_white.png,stimulus/viswhat_stim/blank_white.png,stimulus/viswhat_stim/blank_white.png,stimulus/viswhat_stim/blank_white.png,0.0,0.0,0.0,0.0,0,0.0,0,0.0,0,0.0,0,0.0,0,0.0,0.0,0,0.0,0,0.0,0,0.0,0,0.0,0,0,0,0,0,0,0,0,9,,,,,0,53,53,53,,,,,,,,,515.3478526250001,515.3478526250001,515.3478526250001,515.3478526250001,515.3478526250001,515.3478526250001,515.3478526250001,515.3478526250001,515.2514895833314,515.3478526250001,515.3478526250001,515.3478526250001,515.2514895833314,515.3478526250001,515.3478526250001,515.3478526250001,515.3478526250001,515.3478526250001,515.3478526250001,515.3478526250001,515.3478526250001,515.3478526250001,515.3478526250001,515.3478526250001,515.3478526250001,515.3478526250001,515.3478526250001,515.3014895833313,515.3478526250001,515.3478526250001,515.3478526250001,515.3014895833313,515.3478526250001,515.3478526250001,515.3478526250001,515.3478526250001,515.3478526250001,520.5350358340002,520.5350358340002,524.5017808749981,None,0,,reldom2_s034,001,2025-03-13_15h37.42.803,Vis-A-Scan_AC,2022.2.5,None,
41,Second_Order,7.0,viswhere,stimulus/viswhere_stim/90-deg_dot-right_seagreen.png,stimulus/viswhere_stim/90-deg_dot-left_salmon.png,stimulus/viswhere_stim/60-deg_dot-left_slateblue.png,stimulus/viswhere_stim/60-deg_dot-right_lightsseagreen.png,stimulus/viswhat_stim/match_blank.png,stimulus/viswhat_stim/match_box.png,stimulus/viswhat_stim/match_yes.png,stimulus/viswhat_stim/match_no.png,1.0,Match,Line,Line,1,5.125,0,5.125,0,5.125,0,5.125,0,0.75,0.75,1,0.5,1,2.125,1,0.5,1,2.125,0,0,0,0,0,0,0,0,0,,,,,0,54,54,54,,,,,,,,,524.5017808749981,529.6266048340003,524.9818105839986,525.9801545000009,526.6039473749988,527.6006633750003,524.5017808749981,524.5017808749981,524.5157241673315,524.5017808749981,524.5017808749981,524.5017808749981,524.5157241673315,524.5017808749981,529.6266048340003,530.419562791998,532.5054852499998,536.357666459,530.419562791998,530.419562791998,535.5579414589993,530.8810961669988,531.8925842089993,532.5054852499998,533.5248912919997,530.419562791998,530.419562791998,530.3936709173327,530.419562791998,530.419562791998,530.419562791998,530.3936709173327,530.419562791998,530.419562791998,535.5579414589993,530.419562791998,535.5579414589993,535.6120492919981,536.3933413749983,530.419562791998,1,1,3.2392534159989737,reldom2_s034,001,2025-03-13_15h37.42.803,Vis-A-Scan_AC,2022.2.5,None,
42,Second_Order,7.0,viswhere,stimulus/viswhere_stim/150-deg_dot-left_cyan.png,stimulus/viswhere_stim/60-deg_dot-left_royalblue.png,stimulus/viswhere_stim/30-deg_dot-right_mediumslateblue.png,stimulus/viswhere_stim/90-deg_dot-right_peru.png,stimulus/viswhat_stim/match_blank.png,stimulus/viswhat_stim/match_box.png,stimulus/viswhat_stim/match_yes.png,stimulus/viswhat_stim/match_no.png,1.0,Match,Dot,Dot,1,5.125,0,5.125,0,5.125,0,5.125,0,0.625,0.625,1,0.5,1,2.125,1,0.5,1,2.125,0,0,0,0,0,0,0,0,0,,,,,0,55,55,55,,,,,,,,,536.3933413749983,541.5163218749985,536.8759326670006,537.8744445839984,538.4973577089986,539.4949437089999,536.3933413749983,536.3933413749983,536.407666459,536.3933413749983,536.3933413749983,536.3933413749983,536.407666459,536.3933413749983,541.5163218749985,542.191808874999,544.2802836250012,548.3068889589995,542.191808874999,542.191808874999,547.3147113339983,542.6546653750011,543.6667067499984,544.2802836250012,545.2997842500008,542.191808874999,542.191808874999,542.1676190833318,542.191808874999,542.191808874999,542.191808874999,542.1676190833318,542.191808874999,542.191808874999,547.3147113339983,542.191808874999,547.3147113339983,547.3833152919979,548.027491249999,542.191808874999,1,1,1.4139452499985055,reldom2_s034,001,2025-03-13_15h37.42.803,Vis-A-Scan_AC,2022.2.5,None,
0,0.0,None,fixation,stimulus/viswhat_stim/blank_white.png,stimulus/viswhat_stim/blank_white.png,stimulus/viswhere_stim/blank_white.png,stimulus/viswhere_stim/blank_white.png,stimulus/viswhat_stim/blank_white.png,stimulus/viswhat_stim/blank_white.png,stimulus/viswhat_stim/blank_white.png,stimulus/viswhat_stim/blank_white.png,0.0,0.0,0.0,0.0,0,0.0,0,0.0,0,0.0,0,0.0,0,0.0,0.0,0,0.0,0,0.0,0,0.0,0,0.0,0,0,0,0,0,0,0,0,8,,,,,0,56,56,56,,,,,,,,,548.3068889589995,548.3068889589995,548.3068889589995,548.3068889589995,548.3068889589995,548.3068889589995,548.3068889589995,548.3068889589995,548.2076381673336,548.3068889589995,548.3068889589995,548.3068889589995,548.2076381673336,548.3068889589995,548.3068889589995,548.3068889589995,548.3068889589995,548.3068889589995,548.3068889589995,548.3068889589995,548.3068889589995,548.3068889589995,548.3068889589995,548.3068889589995,548.3068889589995,548.3068889589995,548.3068889589995,548.2576381673335,548.3068889589995,548.3068889589995,548.3068889589995,548.2576381673335,548.3068889589995,548.3068889589995,548.3068889589995,548.3068889589995,548.3068889589995,553.5037477090009,553.5037477090009,556.510828041999,None,0,,reldom2_s034,001,2025-03-13_15h37.42.803,Vis-A-Scan_AC,2022.2.5,None,
43,First_Order,8.0,viswhere,stimulus/viswhere_stim/blank_white.png,stimulus/viswhere_stim/blank_white.png,stimulus/viswhere_stim/150-deg_dot-left_lightsseagreen.png,stimulus/viswhere_stim/30-deg_dot-left_salmon.png,stimulus/viswhere_stim/blank_white.png,stimulus/viswhere_stim/dot_box.png,stimulus/viswhere_stim/dot_yes.png,stimulus/viswhere_stim/dot_no.png,None,Dot,None,Dot,1,0.0,0,5.125,0,5.125,0,5.125,0,0.0,0.625,0,0.0,0,0.0,1,0.5,1,2.125,0,0,0,0,0,0,0,0,0,,,,,0,57,57,57,,,,,,,,,556.510828041999,556.510828041999,556.510828041999,556.510828041999,556.510828041999,556.510828041999,556.510828041999,556.510828041999,556.491854708666,556.510828041999,556.510828041999,556.510828041999,556.491854708666,556.510828041999,556.510828041999,556.510828041999,558.6146023340007,562.5716830419988,556.510828041999,556.510828041999,561.645305375001,556.9877786249999,558.003275250001,558.6146023340007,559.6172777089996,556.510828041999,556.510828041999,556.491854708666,556.510828041999,556.510828041999,556.510828041999,556.491854708666,556.510828041999,556.510828041999,561.645305375001,556.510828041999,561.645305375001,561.7287242919992,562.3574334590012,556.510828041999,1,1,0.9008612499965238,reldom2_s034,001,2025-03-13_15h37.42.803,Vis-A-Scan_AC,2022.2.5,None,
44,First_Order,8.0,viswhere,stimulus/viswhere_stim/blank_white.png,stimulus/viswhere_stim/blank_white.png,stimulus/viswhere_stim/150-deg_dot-right_seagreen.png,stimulus/viswhere_stim/150-deg_dot-left_goldenrod.png,stimulus/viswhere_stim/blank_white.png,stimulus/viswhere_stim/line_box.png,stimulus/viswhere_stim/line_yes.png,stimulus/viswhere_stim/line_no.png,None,Line,None,Line,1,0.0,0,5.125,0,5.125,0,5.125,0,0.0,0.625,0,0.0,0,0.0,1,0.5,1,2.125,0,0,0,0,0,0,0,0,0,,,,,0,58,58,58,,,,,,,,,562.5716830419988,562.5716830419988,562.5716830419988,562.5716830419988,562.5716830419988,562.5716830419988,562.5716830419988,562.5716830419988,562.5510030003328,562.5716830419988,562.5716830419988,562.5716830419988,562.5510030003328,562.5716830419988,562.5716830419988,562.5716830419988,564.6716716250012,568.6397002919985,562.5716830419988,562.5716830419988,567.7093522089999,563.0546382920002,564.0572755840003,564.6716716250012,565.6791672500003,562.5716830419988,562.5716830419988,562.5676696669994,562.5716830419988,562.5716830419988,562.5716830419988,562.5676696669994,562.5716830419988,562.5716830419988,567.7093522089999,562.5716830419988,567.7093522089999,567.7925849589992,568.4246128339983,562.5716830419988,1,1,1.7664899579976918,reldom2_s034,001,2025-03-13_15h37.42.803,Vis-A-Scan_AC,2022.2.5,None,
45,First_Order,8.0,viswhere,stimulus/viswhere_stim/blank_white.png,stimulus/viswhere_stim/blank_white.png,stimulus/viswhere_stim/150-deg_dot-left_seagreen.png,stimulus/viswhere_stim/60-deg_dot-left_turquoise.png,stimulus/viswhere_stim/blank_white.png,stimulus/viswhere_stim/dot_box.png,stimulus/viswhere_stim/dot_yes.png,stimulus/viswhere_stim/dot_no.png,None,Dot,None,Dot,1,0.0,0,5.125,0,5.125,0,5.125,0,0.0,0.625,0,0.0,0,0.0,1,0.5,1,2.125,0,0,0,0,0,0,0,0,0,,,,,0,59,59,59,,,,,,,,,568.6397002919985,568.6397002919985,568.6397002919985,568.6397002919985,568.6397002919985,568.6397002919985,568.6397002919985,568.6397002919985,568.6187829583336,568.6397002919985,568.6397002919985,568.6397002919985,568.6187829583336,568.6397002919985,568.6397002919985,568.6397002919985,570.7537588339983,574.6979999590003,568.6397002919985,568.6397002919985,573.7697178749986,569.1236249169997,570.142488999998,570.7537588339983,571.7726462499995,568.6397002919985,568.6397002919985,568.6354496250002,568.6397002919985,568.6397002919985,568.6397002919985,568.6354496250002,568.6397002919985,568.6397002919985,573.7697178749986,568.6397002919985,573.7697178749986,573.8673176669981,574.4957864999997,568.6397002919985,1,1,1.1176776669963147,reldom2_s034,001,2025-03-13_15h37.42.803,Vis-A-Scan_AC,2022.2.5,None,
46,First_Order,8.0,viswhere,stimulus/viswhere_stim/blank_white.png,stimulus/viswhere_stim/blank_white.png,stimulus/viswhere_stim/150-deg_dot-left_lightsseagreen.png,stimulus/viswhere_stim/60-deg_dot-left_royalblue.png,stimulus/viswhere_stim/blank_white.png,stimulus/viswhere_stim/line_box.png,stimulus/viswhere_stim/line_yes.png,stimulus/viswhere_stim/line_no.png,None,Line,None,Dot,2,0.0,0,5.125,0,5.125,0,5.125,0,0.0,0.625,0,0.0,0,0.0,1,0.5,1,2.125,0,0,0,0,0,0,0,0,0,,,,,0,60,60,60,,,,,,,,,574.6979999590003,574.6979999590003,574.6979999590003,574.6979999590003,574.6979999590003,574.6979999590003,574.6979999590003,574.6979999590003,574.6779204173339,574.6979999590003,574.6979999590003,574.6979999590003,574.6779204173339,574.6979999590003,574.6979999590003,574.6979999590003,576.796603625,580.8431737499996,574.6979999590003,574.6979999590003,579.8538942919986,575.1794650419979,576.1826029170006,576.796603625,577.8012762090002,574.6979999590003,574.6979999590003,574.6945870840005,574.6979999590003,574.6979999590003,574.6979999590003,574.6945870840005,574.6979999590003,574.6979999590003,579.8538942919986,574.6979999590003,579.8538942919986,579.923121459,580.5523316250001,574.6979999590003,2,1,0.6934709579982155,reldom2_s034,001,2025-03-13_15h37.42.803,Vis-A-Scan_AC,2022.2.5,None,
0,0.0,None,fixation,stimulus/viswhat_stim/blank_white.png,stimulus/viswhat_stim/blank_white.png,stimulus/viswhere_stim/blank_white.png,stimulus/viswhere_stim/blank_white.png,stimulus/viswhat_stim/blank_white.png,stimulus/viswhat_stim/blank_white.png,stimulus/viswhat_stim/blank_white.png,stimulus/viswhat_stim/blank_white.png,0.0,0.0,0.0,0.0,0,0.0,0,0.0,0,0.0,0,0.0,0,0.0,0.0,0,0.0,0,0.0,0,0.0,0,0.0,0,0,0,0,0,0,0,0,9,,,,,0,61,61,61,,,,,,,,,580.8431737499996,580.8431737499996,580.8431737499996,580.8431737499996,580.8431737499996,580.8431737499996,580.8431737499996,580.8431737499996,580.7462607503343,580.8431737499996,580.8431737499996,580.8431737499996,580.7462607503343,580.8431737499996,580.8431737499996,580.8431737499996,580.8431737499996,580.8431737499996,580.8431737499996,580.8431737499996,580.8431737499996,580.8431737499996,580.8431737499996,580.8431737499996,580.8431737499996,580.8431737499996,580.8431737499996,580.7962607503342,580.8431737499996,580.8431737499996,580.8431737499996,580.7962607503342,580.8431737499996,580.8431737499996,580.8431737499996,580.8431737499996,580.8431737499996,586.0451788339997,586.0451788339997,589.9690980419982,None,0,,reldom2_s034,001,2025-03-13_15h37.42.803,Vis-A-Scan_AC,2022.2.5,None,
47,Second_Order,8.0,viswhere,stimulus/viswhere_stim/120-deg_dot-left_goldenrod.png,stimulus/viswhere_stim/120-deg_dot-right_seagreen.png,stimulus/viswhere_stim/90-deg_dot-left_peru.png,stimulus/viswhere_stim/90-deg_dot-right_turquoise.png,stimulus/viswhat_stim/match_blank.png,stimulus/viswhat_stim/match_box.png,stimulus/viswhat_stim/match_yes.png,stimulus/viswhat_stim/match_no.png,1.0,Match,Line,Line,1,5.125,0,5.125,0,5.125,0,5.125,0,0.75,0.75,1,0.5,1,2.125,1,0.5,1,2.125,0,0,0,0,0,0,0,0,0,,,,,0,62,62,62,,,,,,,,,589.9690980419982,595.0899989589998,590.4498879999992,591.4482859999989,592.070920416998,593.068546874998,589.9690980419982,589.9690980419982,589.981705458331,589.9690980419982,589.9690980419982,589.9690980419982,589.981705458331,589.9690980419982,595.0899989589998,595.8841068340007,597.9666632500011,601.8550059589979,595.8841068340007,595.8841068340007,601.0125992089997,596.3342669999984,597.3508763339996,597.9666632500011,598.9742023340004,595.8841068340007,595.8841068340007,595.8585931253333,595.8841068340007,595.8841068340007,595.8841068340007,595.8585931253333,595.8841068340007,595.8841068340007,601.0125992089997,595.8841068340007,601.0125992089997,601.086262083998,,595.8841068340007,1,1,0.9153270829992834,reldom2_s034,001,2025-03-13_15h37.42.803,Vis-A-Scan_AC,2022.2.5,None,
48,Second_Order,8.0,viswhere,stimulus/viswhere_stim/150-deg_dot-right_salmon.png,stimulus/viswhere_stim/90-deg_dot-right_cyan.png,stimulus/viswhere_stim/60-deg_dot-left_mediumslateblue.png,stimulus/viswhere_stim/30-deg_dot-left_turquoise.png,stimulus/viswhat_stim/match_blank.png,stimulus/viswhat_stim/match_box.png,stimulus/viswhat_stim/match_yes.png,stimulus/viswhat_stim/match_no.png,1.0,Match,Dot,Dot,1,5.125,0,5.125,0,5.125,0,5.125,0,0.625,0.625,1,0.5,1,2.125,1,0.5,1,2.125,0,0,0,0,0,0,0,0,0,,,,,0,63,63,63,,,,,,,,,601.8550059589979,606.9723738339999,602.3397770419979,603.3289555839983,603.9602250839998,604.9496727090009,601.8550059589979,601.8550059589979,601.8684972919989,601.8550059589979,601.8550059589979,601.8550059589979,601.8684972919989,601.8550059589979,606.9723738339999,607.6431871669993,609.7304888750004,613.7607454169993,607.6431871669993,607.6431871669993,612.7801507500008,608.0883681249979,609.1004189589985,609.7304888750004,610.7503390839993,607.6431871669993,607.6431871669993,607.6187717923317,607.6431871669993,607.6431871669993,607.6431871669993,607.6187717923317,607.6431871669993,607.6431871669993,612.7801507500008,607.6431871669993,612.7801507500008,612.8341795839988,613.467381874998,607.6431871669993,1,1,1.6919886659961776,reldom2_s034,001,2025-03-13_15h37.42.803,Vis-A-Scan_AC,2022.2.5,None,
0,0.0,None,fixation,stimulus/viswhat_stim/blank_white.png,stimulus/viswhat_stim/blank_white.png,stimulus/viswhere_stim/blank_white.png,stimulus/viswhere_stim/blank_white.png,stimulus/viswhat_stim/blank_white.png,stimulus/viswhat_stim/blank_white.png,stimulus/viswhat_stim/blank_white.png,stimulus/viswhat_stim/blank_white.png,0.0,0.0,0.0,0.0,0,0.0,0,0.0,0,0.0,0,0.0,0,0.0,0.0,0,0.0,0,0.0,0,0.0,0,0.0,0,0,0,0,0,0,0,0,16,,,,,0,64,64,64,,,,,,,,,613.7607454169993,613.7607454169993,613.7607454169993,613.7607454169993,613.7607454169993,613.7607454169993,613.7607454169993,613.7607454169993,613.6616191673323,613.7607454169993,613.7607454169993,613.7607454169993,613.6616191673323,613.7607454169993,613.7607454169993,613.7607454169993,613.7607454169993,613.7607454169993,613.7607454169993,613.7607454169993,613.7607454169993,613.7607454169993,613.7607454169993,613.7607454169993,613.7607454169993,613.7607454169993,613.7607454169993,613.7116191673323,613.7607454169993,613.7607454169993,613.7607454169993,613.7116191673323,613.7607454169993,613.7607454169993,613.7607454169993,613.7607454169993,613.7607454169993,618.968647458998,618.968647458998,629.905879916998,None,0,,reldom2_s034,001,2025-03-13_15h37.42.803,Vis-A-Scan_AC,2022.2.5,None,
