Trial,Order,Block,Type,Stimuli_File1,Stimuli_File2,Stimuli_File3,Stimuli_File4,Cue_File1,Cue_File2,Response_File_Yes,Response_File_No,Match,Cue_Dimension,Pair1_Dimension,Pair2_Dimension,Key,Cue1_Duration,Cue1_Onset,Cue2_Duration,Cue2_Onset,ResponseYes_Duration,ResponseYes_Onset,ResponseNo_Duration,ResponseNo_Onset,ITI_Within,ITI_Between,Image1_Duration,Image1_Onset,Image2_Duration,Image2_Onset,Image3_Duration,Image3_Onset,Image4_Duration,Image4_Onset,Sound1_Duration,Sound1_Onset,Sound2_Duration,Sound2_Onset,Sound3_Duration,Sound3_Onset,Sound4_Duration,Sound4_Onset,Fixation_Duration,trials_2.thisRepN,trials_2.thisTrialN,trials_2.thisN,trials_2.thisIndex,trials.thisRepN,trials.thisTrialN,trials.thisN,trials.thisIndex,text_start.started,key_resp_start.started,key_resp_start.keys,key_resp_start.rt,text2.started,key_resp_2.started,key_resp_2.keys,key_resp_2.rt,cue_file1.started,cue_file1.stopped,image_1.started,image_1.stopped,image_2.started,image_2.stopped,sound_icon1.started,sound_icon1.stopped,sound_1.started,sound_1.stopped,sound_icon2.started,sound_icon2.stopped,sound_2.started,sound_2.stopped,image_blank_1.started,image_blank_1.stopped,key_press.started,key_press.stopped,fixation_text.started,cue_file2.started,cue_file2.stopped,image_3.started,image_3.stopped,image_4.started,image_4.stopped,sound_icon3.started,sound_icon3.stopped,sound_3.started,sound_3.stopped,sound_icon4.started,sound_icon4.stopped,sound_4.started,sound_4.stopped,response_yes.started,response_yes.stopped,response_no.started,response_no.stopped,iti_blank.started,iti_blank.stopped,fixation_text.stopped,key_press.keys,key_press.corr,key_press.rt,participant,session,date,expName,psychopyVersion,frameRate,
,,,,,,,,,,,,,,,,,,,,,,,,,,,,,,,,,,,,,,,,,,,,,,,,,,,,8.055875999998534,8.055875999998534,2,1.1817769580011372,,,,,,,,,,,,,,,,,,,,,,,,,,,,,,,,,,,,,,,,,,,,,,,,reldom2_s034,001,2025-03-13_15h49.11.606,What-A-Scan_AC,2022.2.5,None,
,,,,,,,,,,,,,,,,,,,,,,,,,,,,,,,,,,,,,,,,,,,,0,0,0,0,,,,,,,,,9.277952124997682,9.277952124997682,5,18.578736500003288,,,,,,,,,,,,,,,,,,,,,,,,,,,,,,,,,,,,,,,,,,,,reldom2_s034,001,2025-03-13_15h49.11.606,What-A-Scan_AC,2022.2.5,None,
,,,,,,,,,,,,,,,,,,,,,,,,,,,,,,,,,,,,,,,,,,,,1,0,1,0,,,,,,,,,27.87032979200012,27.87032979200012,5,1.986530208003387,,,,,,,,,,,,,,,,,,,,,,,,,,,,,,,,,,,,,,,,,,,,reldom2_s034,001,2025-03-13_15h49.11.606,What-A-Scan_AC,2022.2.5,None,
,,,,,,,,,,,,,,,,,,,,,,,,,,,,,,,,,,,,,,,,,,,,2,0,2,0,,,,,,,,,29.882867749998695,29.882867749998695,5,1.9734985830000369,,,,,,,,,,,,,,,,,,,,,,,,,,,,,,,,,,,,,,,,,,,,reldom2_s034,001,2025-03-13_15h49.11.606,What-A-Scan_AC,2022.2.5,None,
,,,,,,,,,,,,,,,,,,,,,,,,,,,,,,,,,,,,,,,,,,,,3,0,3,0,,,,,,,,,31.870170291997056,31.870170291997056,5,1.9873657910029578,,,,,,,,,,,,,,,,,,,,,,,,,,,,,,,,,,,,,,,,,,,,reldom2_s034,001,2025-03-13_15h49.11.606,What-A-Scan_AC,2022.2.5,None,
0,0.0,None,fixation,stimulus/audwhat_stim/blank_white.png,stimulus/audwhat_stim/blank_white.png,stimulus/viswhat_stim/blank_white.png,stimulus/viswhat_stim/blank_white.png,stimulus/audwhat_stim/blank_white.png,stimulus/audwhat_stim/blank_white.png,stimulus/audwhat_stim/blank_white.png,stimulus/audwhat_stim/blank_white.png,0.0,0.0,0.0,0.0,0,0.0,0,0.0,0,0.0,0,0.0,0,0.0,0.0,0,0.0,0,0.0,0,0.0,0,0.0,0,0.0,0,0.0,0,0.0,0,0.0,16,,,,,0,0,0,0,,,,,,,,,34.07609941699775,34.07609941699775,34.07609941699775,34.07609941699775,34.07609941699775,34.07609941699775,34.07609941699775,34.07609941699775,33.97471287566611,34.07609941699775,34.07609941699775,34.07609941699775,33.97471287566611,34.07609941699775,34.07609941699775,34.07609941699775,34.07609941699775,34.07609941699775,34.07609941699775,34.07609941699775,34.07609941699775,34.07609941699775,34.07609941699775,34.07609941699775,34.07609941699775,34.07609941699775,34.07609941699775,34.024712875666104,34.07609941699775,34.07609941699775,34.07609941699775,34.024712875666104,34.07609941699775,34.07609941699775,34.07609941699775,34.07609941699775,34.07609941699775,39.24994874999902,39.24994874999902,50.30862724999679,None,0,,reldom2_s034,001,2025-03-13_15h49.11.606,What-A-Scan_AC,2022.2.5,None,
1,First_Order,1.0,audwhat,stimulus/audwhat_stim/dummy.wav,stimulus/audwhat_stim/dummy.wav,stimulus/audwhat_stim/percussion mallet_low-pitch_Dtri_loud.wav,stimulus/audwhat_stim/percussion xylophone_high-pitch_F_loud.wav,stimulus/audwhat_stim/blank_white.png,stimulus/audwhat_stim/pitch_box.png,stimulus/audwhat_stim/pitch_yes.png,stimulus/audwhat_stim/pitch_no.png,None,Pitch,None,Category,2,0.0,0,5.125,0,5.125,0,5.125,0,0.0,0.625,0,0.0,0,0.0,0,0.0,0,0.0,0,0.0,0,0.0,1,0.5,1,2.125,0,,,,,0,1,1,1,,,,,,,,,50.30862724999679,50.30862724999679,50.30862724999679,50.30862724999679,50.30862724999679,50.30862724999679,50.30862724999679,50.30862724999679,50.23833270899777,50.30862724999679,50.30862724999679,50.30862724999679,50.23833270899777,50.30862724999679,50.30862724999679,50.30862724999679,52.422811791999266,,50.30862724999679,50.30862724999679,55.492746459000045,50.30862724999679,50.30862724999679,50.30862724999679,50.30862724999679,50.75850924999759,51.79171866699835,50.73021066666503,,52.422811791999266,53.46093816699795,52.39413683366389,53.46093816699795,50.30862724999679,55.492746459000045,50.30862724999679,55.492746459000045,55.5325995839994,56.20829366699763,50.30862724999679,2,1,1.2903150000020105,reldom2_s034,001,2025-03-13_15h49.11.606,What-A-Scan_AC,2022.2.5,None,
2,First_Order,1.0,audwhat,stimulus/audwhat_stim/dummy.wav,stimulus/audwhat_stim/dummy.wav,stimulus/audwhat_stim/percussion xylophone_high-pitch_Dtri_loud.wav,stimulus/audwhat_stim/percussion mallet_low-pitch_D_loud.wav,stimulus/audwhat_stim/blank_white.png,stimulus/audwhat_stim/pitch_box.png,stimulus/audwhat_stim/pitch_yes.png,stimulus/audwhat_stim/pitch_no.png,None,Pitch,None,Category,2,0.0,0,5.125,0,5.125,0,5.125,0,0.0,0.625,0,0.0,0,0.0,0,0.0,0,0.0,0,0.0,0,0.0,1,0.5,1,2.125,0,,,,,0,2,2,2,,,,,,,,,56.416197958998964,56.416197958998964,56.416197958998964,56.416197958998964,56.416197958998964,56.416197958998964,56.416197958998964,56.416197958998964,56.341627000330966,56.416197958998964,56.416197958998964,56.416197958998964,56.341627000330966,56.416197958998964,56.416197958998964,56.416197958998964,58.53137458399942,62.53762566699879,56.416197958998964,56.416197958998964,61.60859829199762,56.416197958998964,56.416197958998964,56.416197958998964,56.416197958998964,56.90528929199718,57.944892999999865,56.876658708665005,57.944892999999865,58.53137458399942,59.571160833998874,58.502484625664025,,56.416197958998964,61.60859829199762,56.416197958998964,61.60859829199762,61.60859829199762,62.287481874998775,56.416197958998964,2,1,1.11752616600279,reldom2_s034,001,2025-03-13_15h49.11.606,What-A-Scan_AC,2022.2.5,None,
3,First_Order,1.0,audwhat,stimulus/audwhat_stim/dummy.wav,stimulus/audwhat_stim/dummy.wav,stimulus/audwhat_stim/percussion mallet_low-pitch_F_loud.wav,stimulus/audwhat_stim/percussion xylophone_high-pitch_Ftri_loud.wav,stimulus/audwhat_stim/blank_white.png,stimulus/audwhat_stim/category_box.png,stimulus/audwhat_stim/category_yes.png,stimulus/audwhat_stim/category_no.png,None,Category,None,Category,1,0.0,0,5.125,0,5.125,0,5.125,0,0.0,0.625,0,0.0,0,0.0,0,0.0,0,0.0,0,0.0,0,0.0,1,0.5,1,2.125,0,,,,,0,3,3,3,,,,,,,,,62.53762566699879,62.53762566699879,62.53762566699879,62.53762566699879,62.53762566699879,62.53762566699879,62.53762566699879,62.53762566699879,62.460786042333105,62.53762566699879,62.53762566699879,62.53762566699879,62.460786042333105,62.53762566699879,62.53762566699879,62.53762566699879,64.64119779199973,,62.53762566699879,62.53762566699879,67.70678691699868,62.53762566699879,62.53762566699879,62.53762566699879,62.53762566699879,62.99381899999935,64.04627937499754,62.96512283366634,,64.64119779199973,65.69437908399777,64.61269275066685,65.64864274999854,62.53762566699879,67.70678691699868,62.53762566699879,67.70678691699868,67.74714674999996,68.43070604199966,62.53762566699879,1,1,1.7645856250019278,reldom2_s034,001,2025-03-13_15h49.11.606,What-A-Scan_AC,2022.2.5,None,
4,First_Order,1.0,audwhat,stimulus/audwhat_stim/dummy.wav,stimulus/audwhat_stim/dummy.wav,stimulus/audwhat_stim/percussion mallet_low-pitch_Dtri_loud.wav,stimulus/audwhat_stim/percussion mallet_high-pitch_F_loud.wav,stimulus/audwhat_stim/blank_white.png,stimulus/audwhat_stim/category_box.png,stimulus/audwhat_stim/category_yes.png,stimulus/audwhat_stim/category_no.png,None,Category,None,Category,1,0.0,0,5.125,0,5.125,0,5.125,0,0.0,0.625,0,0.0,0,0.0,0,0.0,0,0.0,0,0.0,0,0.0,1,0.5,1,2.125,0,,,,,0,4,4,4,,,,,,,,,68.64310529199793,68.64310529199793,68.64310529199793,68.64310529199793,68.64310529199793,68.64310529199793,68.64310529199793,68.64310529199793,68.56403937533298,68.64310529199793,68.64310529199793,68.64310529199793,68.56403937533298,68.64310529199793,68.64310529199793,68.64310529199793,70.75256641699889,74.78522412500024,68.64310529199793,68.64310529199793,73.82635854199907,68.64310529199793,68.64310529199793,68.64310529199793,68.64310529199793,69.10215179199804,70.15735024999958,69.07326558366573,,70.75256641699889,71.81173758399746,70.7228882506645,,68.64310529199793,73.82635854199907,68.64310529199793,73.82635854199907,73.86803074999989,74.55555325000023,68.64310529199793,1,1,0.9434377920006227,reldom2_s034,001,2025-03-13_15h49.11.606,What-A-Scan_AC,2022.2.5,None,
0,0.0,None,fixation,stimulus/audwhat_stim/blank_white.png,stimulus/audwhat_stim/blank_white.png,stimulus/viswhat_stim/blank_white.png,stimulus/viswhat_stim/blank_white.png,stimulus/audwhat_stim/blank_white.png,stimulus/audwhat_stim/blank_white.png,stimulus/audwhat_stim/blank_white.png,stimulus/audwhat_stim/blank_white.png,0.0,0.0,0.0,0.0,0,0.0,0,0.0,0,0.0,0,0.0,0,0.0,0.0,0,0.0,0,0.0,0,0.0,0,0.0,0,0.0,0,0.0,0,0.0,0,0.0,10,,,,,0,5,5,5,,,,,,,,,74.78522412500024,74.78522412500024,74.78522412500024,74.78522412500024,74.78522412500024,74.78522412500024,74.78522412500024,74.78522412500024,74.68888658333356,74.78522412500024,74.78522412500024,74.78522412500024,74.68888658333356,74.78522412500024,74.78522412500024,74.78522412500024,74.78522412500024,74.78522412500024,74.78522412500024,74.78522412500024,74.78522412500024,74.78522412500024,74.78522412500024,74.78522412500024,74.78522412500024,74.78522412500024,74.78522412500024,74.73888658333357,74.78522412500024,74.78522412500024,74.78522412500024,74.73888658333357,74.78522412500024,74.78522412500024,74.78522412500024,74.78522412500024,74.78522412500024,80.00183408399971,80.00183408399971,84.93969520899918,None,0,,reldom2_s034,001,2025-03-13_15h49.11.606,What-A-Scan_AC,2022.2.5,None,
5,Second_Order,1.0,audwhat,stimulus/audwhat_stim/string cello_low-pitch_D_loud.wav,stimulus/audwhat_stim/string viola_high-pitch_Dtri_loud.wav,stimulus/audwhat_stim/percussion mallet_low-pitch_D_loud.wav,stimulus/audwhat_stim/string viola_low-pitch_D_loud.wav,stimulus/audwhat_stim/match_blank.png,stimulus/audwhat_stim/match_box.png,stimulus/audwhat_stim/match_yes.png,stimulus/audwhat_stim/match_no.png,2.0,Match,Category,Pitch,2,5.125,0,5.125,0,5.125,0,5.125,0,0.75,0.75,0,0.0,0,0.0,0,0.0,0,0.0,1,0.5,1,2.125,1,0.5,1,2.125,0,,,,,0,6,6,6,,,,,,,,,84.93969520899918,90.05927887500002,84.93969520899918,84.93969520899918,84.93969520899918,84.93969520899918,85.39773770899774,86.39635016699685,85.41050895866671,,87.01834866699937,88.01675808399887,87.03092958366348,,90.05927887500002,90.9087136249982,92.952306166997,96.89703345899761,90.9087136249982,90.9087136249982,96.09983695899791,90.9087136249982,90.9087136249982,90.9087136249982,90.9087136249982,91.36004633399716,92.40701108400026,91.33145129166611,,92.952306166997,94.00180249999903,92.9233341256661,,90.9087136249982,96.09983695899791,90.9087136249982,96.09983695899791,96.09983695899791,,90.9087136249982,2,1,1.4950727080031356,reldom2_s034,001,2025-03-13_15h49.11.606,What-A-Scan_AC,2022.2.5,None,
6,Second_Order,1.0,audwhat,stimulus/audwhat_stim/string cello_high-pitch_Dtri_loud.wav,stimulus/audwhat_stim/percussion mallet_high-pitch_Dtri_loud.wav,stimulus/audwhat_stim/percussion mallet_low-pitch_Ftri_loud.wav,stimulus/audwhat_stim/string cello_low-pitch_Ftri_loud.wav,stimulus/audwhat_stim/match_blank.png,stimulus/audwhat_stim/match_box.png,stimulus/audwhat_stim/match_yes.png,stimulus/audwhat_stim/match_no.png,1.0,Match,Pitch,Pitch,1,5.125,0,5.125,0,5.125,0,5.125,0,0.625,0.625,0,0.0,0,0.0,0,0.0,0,0.0,1,0.5,1,2.125,1,0.5,1,2.125,0,,,,,0,7,7,7,,,,,,,,,96.89703345899761,102.02084091699726,96.89703345899761,96.89703345899761,96.89703345899761,96.89703345899761,97.35479420899719,98.34340895899732,97.3584505416659,,98.98050066699943,99.97728170899791,98.99183966666557,,102.02084091699726,102.75000866699702,104.82694229199842,108.86095570899852,102.75000866699702,102.75000866699702,107.91359083399948,102.75000866699702,102.75000866699702,102.75000866699702,102.75000866699702,103.19996108399937,104.23983237499851,103.17087029166602,,104.82694229199842,105.87299679199714,104.79819779166452,,102.75000866699702,107.91359083399948,102.75000866699702,107.91359083399948,107.91359083399948,108.59255891700013,102.75000866699702,1,1,1.7232904990014504,reldom2_s034,001,2025-03-13_15h49.11.606,What-A-Scan_AC,2022.2.5,None,
0,0.0,None,fixation,stimulus/audwhat_stim/blank_white.png,stimulus/audwhat_stim/blank_white.png,stimulus/viswhat_stim/blank_white.png,stimulus/viswhat_stim/blank_white.png,stimulus/audwhat_stim/blank_white.png,stimulus/audwhat_stim/blank_white.png,stimulus/audwhat_stim/blank_white.png,stimulus/audwhat_stim/blank_white.png,0.0,0.0,0.0,0.0,0,0.0,0,0.0,0,0.0,0,0.0,0,0.0,0.0,0,0.0,0,0.0,0,0.0,0,0.0,0,0.0,0,0.0,0,0.0,0,0.0,9,,,,,0,8,8,8,,,,,,,,,108.86095570899852,108.86095570899852,108.86095570899852,108.86095570899852,108.86095570899852,108.86095570899852,108.86095570899852,108.86095570899852,108.76551254233175,108.86095570899852,108.86095570899852,108.86095570899852,108.76551254233175,108.86095570899852,108.86095570899852,108.86095570899852,108.86095570899852,108.86095570899852,108.86095570899852,108.86095570899852,108.86095570899852,108.86095570899852,108.86095570899852,108.86095570899852,108.86095570899852,108.86095570899852,108.86095570899852,108.81551254233176,108.86095570899852,108.86095570899852,108.86095570899852,108.81551254233176,108.86095570899852,108.86095570899852,108.86095570899852,108.86095570899852,108.86095570899852,114.08706908399836,114.08706908399836,118.10239716700016,None,0,,reldom2_s034,001,2025-03-13_15h49.11.606,What-A-Scan_AC,2022.2.5,None,
7,First_Order,2.0,audwhat,stimulus/audwhat_stim/dummy.wav,stimulus/audwhat_stim/dummy.wav,stimulus/audwhat_stim/string cello_low-pitch_F_loud.wav,stimulus/audwhat_stim/percussion mallet_low-pitch_F_loud.wav,stimulus/audwhat_stim/blank_white.png,stimulus/audwhat_stim/pitch_box.png,stimulus/audwhat_stim/pitch_yes.png,stimulus/audwhat_stim/pitch_no.png,None,Pitch,None,Pitch,1,0.0,0,5.125,0,5.125,0,5.125,0,0.0,0.625,0,0.0,0,0.0,0,0.0,0,0.0,0,0.0,0,0.0,1,0.5,1,2.125,0,,,,,0,9,9,9,,,,,,,,,118.10239716700016,118.10239716700016,118.10239716700016,118.10239716700016,118.10239716700016,118.10239716700016,118.10239716700016,118.10239716700016,118.03205433366627,118.10239716700016,118.10239716700016,118.10239716700016,118.03205433366627,118.10239716700016,118.10239716700016,118.10239716700016,120.20705341699795,124.217559875,118.10239716700016,118.10239716700016,123.27681299999676,118.10239716700016,118.10239716700016,118.10239716700016,118.10239716700016,118.56107212499774,119.6121278339997,118.53153191666594,,120.20705341699795,121.260173208997,120.17734958366442,,118.10239716700016,123.27681299999676,118.10239716700016,123.27681299999676,123.31719595899995,123.96542054199745,118.10239716700016,1,1,1.5569385000017064,reldom2_s034,001,2025-03-13_15h49.11.606,What-A-Scan_AC,2022.2.5,None,
8,First_Order,2.0,audwhat,stimulus/audwhat_stim/dummy.wav,stimulus/audwhat_stim/dummy.wav,stimulus/audwhat_stim/string cello_low-pitch_Dtri_loud.wav,stimulus/audwhat_stim/percussion mallet_low-pitch_Dtri_loud.wav,stimulus/audwhat_stim/blank_white.png,stimulus/audwhat_stim/category_box.png,stimulus/audwhat_stim/category_yes.png,stimulus/audwhat_stim/category_no.png,None,Category,None,Pitch,2,0.0,0,5.125,0,5.125,0,5.125,0,0.0,0.625,0,0.0,0,0.0,0,0.0,0,0.0,0,0.0,0,0.0,1,0.5,1,2.125,0,,,,,0,10,10,10,,,,,,,,,124.217559875,124.217559875,124.217559875,124.217559875,124.217559875,124.217559875,124.217559875,124.217559875,124.13881612533271,124.217559875,124.217559875,124.217559875,124.13881612533271,124.217559875,124.217559875,124.217559875,126.29401295899879,130.3319620839975,124.217559875,124.217559875,129.38610249999692,124.217559875,124.217559875,124.217559875,124.217559875,124.68064404199686,125.74010183399878,124.65116275066636,,126.29401295899879,127.35827391699786,126.26440233366544,,124.217559875,129.38610249999692,124.217559875,129.38610249999692,129.42716562499845,130.079166583997,124.217559875,2,1,2.296103666001727,reldom2_s034,001,2025-03-13_15h49.11.606,What-A-Scan_AC,2022.2.5,None,
9,First_Order,2.0,audwhat,stimulus/audwhat_stim/dummy.wav,stimulus/audwhat_stim/dummy.wav,stimulus/audwhat_stim/string cello_high-pitch_F_loud.wav,stimulus/audwhat_stim/percussion mallet_high-pitch_F_loud.wav,stimulus/audwhat_stim/blank_white.png,stimulus/audwhat_stim/pitch_box.png,stimulus/audwhat_stim/pitch_yes.png,stimulus/audwhat_stim/pitch_no.png,None,Pitch,None,Pitch,1,0.0,0,5.125,0,5.125,0,5.125,0,0.0,0.625,0,0.0,0,0.0,0,0.0,0,0.0,0,0.0,0,0.0,1,0.5,1,2.125,0,,,,,0,11,11,11,,,,,,,,,130.3319620839975,130.3319620839975,130.3319620839975,130.3319620839975,130.3319620839975,130.3319620839975,130.3319620839975,130.3319620839975,130.2533815833323,130.3319620839975,130.3319620839975,130.3319620839975,130.2533815833323,130.3319620839975,130.3319620839975,130.3319620839975,132.40519895899706,,130.3319620839975,130.3319620839975,135.4915469589978,130.3319620839975,130.3319620839975,130.3319620839975,130.3319620839975,130.79255962499883,131.8507320839999,130.76292908366693,,132.40519895899706,133.46924987499733,132.3759310416647,,130.3319620839975,135.4915469589978,130.3319620839975,135.4915469589978,135.53292837499976,136.18299750000006,130.3319620839975,1,1,0.8236152910030796,reldom2_s034,001,2025-03-13_15h49.11.606,What-A-Scan_AC,2022.2.5,None,
10,First_Order,2.0,audwhat,stimulus/audwhat_stim/dummy.wav,stimulus/audwhat_stim/dummy.wav,stimulus/audwhat_stim/percussion xylophone_high-pitch_D_loud.wav,stimulus/audwhat_stim/string cello_high-pitch_D_loud.wav,stimulus/audwhat_stim/blank_white.png,stimulus/audwhat_stim/category_box.png,stimulus/audwhat_stim/category_yes.png,stimulus/audwhat_stim/category_no.png,None,Category,None,Pitch,2,0.0,0,5.125,0,5.125,0,5.125,0,0.0,0.625,0,0.0,0,0.0,0,0.0,0,0.0,0,0.0,0,0.0,1,0.5,1,2.125,0,,,,,0,12,12,12,,,,,,,,,136.43522824999673,136.43522824999673,136.43522824999673,136.43522824999673,136.43522824999673,136.43522824999673,136.43522824999673,136.43522824999673,136.356874583331,136.43522824999673,136.43522824999673,136.43522824999673,136.356874583331,136.43522824999673,136.43522824999673,136.43522824999673,138.5214519589972,,136.43522824999673,136.43522824999673,141.58340474999932,136.43522824999673,136.43522824999673,136.43522824999673,136.43522824999673,136.89939770899946,137.96452987500015,136.86903150066453,137.9178871669974,138.5214519589972,139.59339524999814,138.49157504166604,,136.43522824999673,141.58340474999932,136.43522824999673,141.58340474999932,141.6648789589999,142.31882187500014,136.43522824999673,2,1,1.9297662080025475,reldom2_s034,001,2025-03-13_15h49.11.606,What-A-Scan_AC,2022.2.5,None,
0,0.0,None,fixation,stimulus/audwhat_stim/blank_white.png,stimulus/audwhat_stim/blank_white.png,stimulus/viswhat_stim/blank_white.png,stimulus/viswhat_stim/blank_white.png,stimulus/audwhat_stim/blank_white.png,stimulus/audwhat_stim/blank_white.png,stimulus/audwhat_stim/blank_white.png,stimulus/audwhat_stim/blank_white.png,0.0,0.0,0.0,0.0,0,0.0,0,0.0,0,0.0,0,0.0,0,0.0,0.0,0,0.0,0,0.0,0,0.0,0,0.0,0,0.0,0,0.0,0,0.0,0,0.0,10,,,,,0,13,13,13,,,,,,,,,142.55118508399755,142.55118508399755,142.55118508399755,142.55118508399755,142.55118508399755,142.55118508399755,142.55118508399755,142.55118508399755,142.4521552083335,142.55118508399755,142.55118508399755,142.55118508399755,142.4521552083335,142.55118508399755,142.55118508399755,142.55118508399755,142.55118508399755,142.55118508399755,142.55118508399755,142.55118508399755,142.55118508399755,142.55118508399755,142.55118508399755,142.55118508399755,142.55118508399755,142.55118508399755,142.55118508399755,142.50215520833348,142.55118508399755,142.55118508399755,142.55118508399755,142.50215520833348,142.55118508399755,142.55118508399755,142.55118508399755,142.55118508399755,142.55118508399755,147.76553224999952,147.76553224999952,152.69916795899917,None,0,,reldom2_s034,001,2025-03-13_15h49.11.606,What-A-Scan_AC,2022.2.5,None,
11,Second_Order,2.0,audwhat,stimulus/audwhat_stim/string viola_high-pitch_D_loud.wav,stimulus/audwhat_stim/percussion xylophone_high-pitch_D_loud.wav,stimulus/audwhat_stim/percussion mallet_low-pitch_F_loud.wav,stimulus/audwhat_stim/string viola_low-pitch_F_loud.wav,stimulus/audwhat_stim/match_blank.png,stimulus/audwhat_stim/match_box.png,stimulus/audwhat_stim/match_yes.png,stimulus/audwhat_stim/match_no.png,1.0,Match,Pitch,Pitch,1,5.125,0,5.125,0,5.125,0,5.125,0,0.75,0.75,0,0.0,0,0.0,0,0.0,0,0.0,1,0.5,1,2.125,1,0.5,1,2.125,0,,,,,0,14,14,14,,,,,,,,,152.69916795899917,157.81585837499733,152.69916795899917,152.69916795899917,152.69916795899917,152.69916795899917,153.154560125,154.15249949999998,153.1673802916669,,154.77516458399987,155.772758916999,154.7875509586668,155.77679270899898,157.81585837499733,158.66405487500015,160.7210652089998,,158.66405487500015,158.66405487500015,163.84542483399855,158.66405487500015,158.66405487500015,158.66405487500015,158.66405487500015,159.11843637499987,160.171183749997,159.08915337566603,,160.7210652089998,161.77597866699944,160.6918568336662,,158.66405487500015,163.84542483399855,158.66405487500015,163.84542483399855,163.84542483399855,,158.66405487500015,1,1,1.1719467490038369,reldom2_s034,001,2025-03-13_15h49.11.606,What-A-Scan_AC,2022.2.5,None,
12,Second_Order,2.0,audwhat,stimulus/audwhat_stim/percussion mallet_high-pitch_Dtri_loud.wav,stimulus/audwhat_stim/string viola_high-pitch_Dtri_loud.wav,stimulus/audwhat_stim/string viola_low-pitch_Dtri_loud.wav,stimulus/audwhat_stim/percussion mallet_low-pitch_Dtri_loud.wav,stimulus/audwhat_stim/match_blank.png,stimulus/audwhat_stim/match_box.png,stimulus/audwhat_stim/match_yes.png,stimulus/audwhat_stim/match_no.png,1.0,Match,Pitch,Pitch,1,5.125,0,5.125,0,5.125,0,5.125,0,0.625,0.625,0,0.0,0,0.0,0,0.0,0,0.0,1,0.5,1,2.125,1,0.5,1,2.125,0,,,,,0,15,15,15,,,,,,,,,164.64673145899724,169.76034070899914,164.64673145899724,164.64673145899724,164.64673145899724,164.64673145899724,165.0981628749978,166.09691904200008,165.11127845866602,,166.73174620899954,167.7209444589971,166.7348858336666,,169.76034070899914,170.49390458400012,172.53819283399935,176.59752108399698,170.49390458400012,170.49390458400012,175.6848612499998,170.49390458400012,170.49390458400012,170.49390458400012,170.49390458400012,170.94437420899703,171.9933392089988,170.915870250665,,172.53819283399935,173.5864922499968,172.50906804166542,,170.49390458400012,175.6848612499998,170.49390458400012,175.6848612499998,175.6848612499998,176.36766520899982,170.49390458400012,1,1,2.93559075000303,reldom2_s034,001,2025-03-13_15h49.11.606,What-A-Scan_AC,2022.2.5,None,
0,0.0,None,fixation,stimulus/audwhat_stim/blank_white.png,stimulus/audwhat_stim/blank_white.png,stimulus/viswhat_stim/blank_white.png,stimulus/viswhat_stim/blank_white.png,stimulus/audwhat_stim/blank_white.png,stimulus/audwhat_stim/blank_white.png,stimulus/audwhat_stim/blank_white.png,stimulus/audwhat_stim/blank_white.png,0.0,0.0,0.0,0.0,0,0.0,0,0.0,0,0.0,0,0.0,0,0.0,0.0,0,0.0,0,0.0,0,0.0,0,0.0,0,0.0,0,0.0,0,0.0,0,0.0,8,,,,,0,16,16,16,,,,,,,,,176.59752108399698,176.59752108399698,176.59752108399698,176.59752108399698,176.59752108399698,176.59752108399698,176.59752108399698,176.59752108399698,176.50099854233318,176.59752108399698,176.59752108399698,176.59752108399698,176.50099854233318,176.59752108399698,176.59752108399698,176.59752108399698,176.59752108399698,176.59752108399698,176.59752108399698,176.59752108399698,176.59752108399698,176.59752108399698,176.59752108399698,176.59752108399698,176.59752108399698,176.59752108399698,176.59752108399698,176.55099854233316,176.59752108399698,176.59752108399698,176.59752108399698,176.55099854233316,176.59752108399698,176.59752108399698,176.59752108399698,176.59752108399698,176.59752108399698,181.80514862499695,181.80514862499695,184.95421083399924,None,0,,reldom2_s034,001,2025-03-13_15h49.11.606,What-A-Scan_AC,2022.2.5,None,
13,First_Order,3.0,viswhat,stimulus/viswhat_stim/blank_white.png,stimulus/viswhat_stim/blank_white.png,stimulus/viswhat_stim/water_vehicle-cruiseship.png,stimulus/viswhat_stim/land_vehicle-pickuptruck.png,stimulus/viswhat_stim/blank_white.png,stimulus/viswhat_stim/type_box.png,stimulus/viswhat_stim/type_yes.png,stimulus/viswhat_stim/type_no.png,None,Type,None,Type,1,0.0,0,5.125,0,5.125,0,5.125,0,0.0,0.625,0,0.0,0,0.0,1,0.5,1,2.125,0,0.0,0,0.0,0,0.0,0,0.0,0,,,,,0,17,17,17,,,,,,,,,184.95421083399924,184.95421083399924,184.95421083399924,184.95421083399924,184.95421083399924,184.95421083399924,184.95421083399924,184.95421083399924,184.76415295866417,184.95421083399924,184.95421083399924,184.95421083399924,184.76415295866417,184.95421083399924,184.95421083399924,184.95421083399924,186.97847320899746,,184.95421083399924,184.95421083399924,190.15428112500013,185.3399383750002,186.49717091699858,186.97847320899746,188.13593958399724,184.95421083399924,184.95421083399924,184.86415295866416,184.95421083399924,184.95421083399924,184.95421083399924,184.86415295866416,184.95421083399924,184.95421083399924,190.15428112500013,184.95421083399924,190.15428112500013,190.15428112500013,,184.95421083399924,1,1,2.939838417005376,reldom2_s034,001,2025-03-13_15h49.11.606,What-A-Scan_AC,2022.2.5,None,
14,First_Order,3.0,viswhat,stimulus/viswhat_stim/blank_white.png,stimulus/viswhat_stim/blank_white.png,stimulus/viswhat_stim/water_animal-lobster.png,stimulus/viswhat_stim/water_vehicle-cruiseship.png,stimulus/viswhat_stim/blank_white.png,stimulus/viswhat_stim/location_box.png,stimulus/viswhat_stim/location_yes.png,stimulus/viswhat_stim/location_no.png,None,Location,None,Location,1,0.0,0,5.125,0,5.125,0,5.125,0,0.0,0.625,0,0.0,0,0.0,1,0.5,1,2.125,0,0.0,0,0.0,0,0.0,0,0.0,0,,,,,0,18,18,18,,,,,,,,,191.3713846669998,191.3713846669998,191.3713846669998,191.3713846669998,191.3713846669998,191.3713846669998,191.3713846669998,191.3713846669998,190.9322641253309,191.3713846669998,191.3713846669998,191.3713846669998,190.9322641253309,191.3713846669998,191.3713846669998,191.3713846669998,193.3552462919979,,191.3713846669998,191.3713846669998,196.8819661669986,191.81205979199876,193.13520158399842,193.3552462919979,194.68204783399779,191.3713846669998,191.3713846669998,191.14893079199757,191.3713846669998,191.3713846669998,191.3713846669998,191.14893079199757,191.3713846669998,191.3713846669998,196.8819661669986,191.3713846669998,196.8819661669986,196.445981208999,,191.3713846669998,1,1,1.168161917001271,reldom2_s034,001,2025-03-13_15h49.11.606,What-A-Scan_AC,2022.2.5,None,
15,First_Order,3.0,viswhat,stimulus/viswhat_stim/blank_white.png,stimulus/viswhat_stim/blank_white.png,stimulus/viswhat_stim/water_vehicle-cruiseship.png,stimulus/viswhat_stim/land_vehicle-bus.png,stimulus/viswhat_stim/blank_white.png,stimulus/viswhat_stim/location_box.png,stimulus/viswhat_stim/location_yes.png,stimulus/viswhat_stim/location_no.png,None,Location,None,Type,2,0.0,0,5.125,0,5.125,0,5.125,0,0.0,0.625,0,0.0,0,0.0,1,0.5,1,2.125,0,0.0,0,0.0,0,0.0,0,0.0,0,,,,,0,19,19,19,,,,,,,,,197.55767416699746,197.55767416699746,197.55767416699746,197.55767416699746,197.55767416699746,197.55767416699746,197.55767416699746,197.55767416699746,197.36529950033196,197.55767416699746,197.55767416699746,197.55767416699746,197.36529950033196,197.55767416699746,197.55767416699746,197.55767416699746,199.57560804199966,,197.55767416699746,197.55767416699746,202.7970132499977,197.96202308399734,199.07162929199694,199.57560804199966,200.68673187499735,197.55767416699746,197.55767416699746,197.46529950033195,197.55767416699746,197.55767416699746,197.55767416699746,197.46529950033195,197.55767416699746,197.55767416699746,202.7970132499977,197.55767416699746,202.7970132499977,202.70208124999772,,197.55767416699746,2,1,0.7902368330032914,reldom2_s034,001,2025-03-13_15h49.11.606,What-A-Scan_AC,2022.2.5,None,
16,First_Order,3.0,viswhat,stimulus/viswhat_stim/blank_white.png,stimulus/viswhat_stim/blank_white.png,stimulus/viswhat_stim/land_vehicle-oldcar.png,stimulus/viswhat_stim/water_vehicle-pirateship.png,stimulus/viswhat_stim/blank_white.png,stimulus/viswhat_stim/type_box.png,stimulus/viswhat_stim/type_yes.png,stimulus/viswhat_stim/type_no.png,None,Type,None,Type,1,0.0,0,5.125,0,5.125,0,5.125,0,0.0,0.625,0,0.0,0,0.0,1,0.5,1,2.125,0,0.0,0,0.0,0,0.0,0,0.0,0,,,,,0,20,20,20,,,,,,,,,203.58975783399728,203.58975783399728,203.58975783399728,203.58975783399728,203.58975783399728,203.58975783399728,203.58975783399728,203.58975783399728,203.52318741699855,203.58975783399728,203.58975783399728,203.58975783399728,203.52318741699855,203.58975783399728,203.58975783399728,203.58975783399728,205.68645774999823,209.7411299589985,203.58975783399728,203.58975783399728,208.76816150000013,204.0615334590002,205.08944345899727,205.68645774999823,206.71825524999804,203.58975783399728,203.58975783399728,203.5565207503319,203.58975783399728,203.58975783399728,203.58975783399728,203.5565207503319,203.58975783399728,203.58975783399728,208.76816150000013,203.58975783399728,208.76816150000013,208.80549370899826,209.47473224999703,203.58975783399728,1,1,0.8492697080037033,reldom2_s034,001,2025-03-13_15h49.11.606,What-A-Scan_AC,2022.2.5,None,
0,0.0,None,fixation,stimulus/audwhat_stim/blank_white.png,stimulus/audwhat_stim/blank_white.png,stimulus/viswhat_stim/blank_white.png,stimulus/viswhat_stim/blank_white.png,stimulus/audwhat_stim/blank_white.png,stimulus/audwhat_stim/blank_white.png,stimulus/audwhat_stim/blank_white.png,stimulus/audwhat_stim/blank_white.png,0.0,0.0,0.0,0.0,0,0.0,0,0.0,0,0.0,0,0.0,0,0.0,0.0,0,0.0,0,0.0,0,0.0,0,0.0,0,0.0,0,0.0,0,0.0,0,0.0,9,,,,,0,21,21,21,,,,,,,,,209.7411299589985,209.7411299589985,209.7411299589985,209.7411299589985,209.7411299589985,209.7411299589985,209.7411299589985,209.7411299589985,209.64529587533085,209.7411299589985,209.7411299589985,209.7411299589985,209.64529587533085,209.7411299589985,209.7411299589985,209.7411299589985,209.7411299589985,209.7411299589985,209.7411299589985,209.7411299589985,209.7411299589985,209.7411299589985,209.7411299589985,209.7411299589985,209.7411299589985,209.7411299589985,209.7411299589985,209.69529587533083,209.7411299589985,209.7411299589985,209.7411299589985,209.69529587533083,209.7411299589985,209.7411299589985,209.7411299589985,209.7411299589985,209.7411299589985,214.9551909169968,214.9551909169968,218.87037399999826,None,0,,reldom2_s034,001,2025-03-13_15h49.11.606,What-A-Scan_AC,2022.2.5,None,
17,Second_Order,3.0,viswhat,stimulus/viswhat_stim/water_animal-shark.png,stimulus/viswhat_stim/water_vehicle-pirateship.png,stimulus/viswhat_stim/water_animal-squid.png,stimulus/viswhat_stim/land_animal-elephant.png,stimulus/audwhat_stim/match_blank.png,stimulus/audwhat_stim/match_box.png,stimulus/audwhat_stim/match_yes.png,stimulus/audwhat_stim/match_no.png,2.0,Match,Location,Type,2,5.125,0,5.125,0,5.125,0,5.125,0,0.75,0.75,1,0.5,1,2.125,1,0.5,1,2.125,0,0.0,0,0.0,0,0.0,0,0.0,0,,,,,0,22,22,22,,,,,,,,,218.87037399999826,223.9856396670002,219.32403562499894,220.32245158399746,220.9567154999968,221.94603895899854,218.87037399999826,218.87037399999826,218.88191012499956,218.87037399999826,218.87037399999826,218.87037399999826,218.88191012499956,218.87037399999826,223.9856396670002,224.87779008399957,226.9354997499977,,224.87779008399957,224.87779008399957,230.0603603339987,225.2756599589993,226.33698745899892,226.9354997499977,228.0040134999981,224.87779008399957,224.87779008399957,224.818861166999,224.87779008399957,224.87779008399957,224.87779008399957,224.818861166999,224.87779008399957,224.87779008399957,230.0603603339987,224.87779008399957,230.0603603339987,230.0603603339987,,224.87779008399957,2,1,1.0381425830055377,reldom2_s034,001,2025-03-13_15h49.11.606,What-A-Scan_AC,2022.2.5,None,
18,Second_Order,3.0,viswhat,stimulus/viswhat_stim/land_vehicle-pickuptruck.png,stimulus/viswhat_stim/water_vehicle-pirateship.png,stimulus/viswhat_stim/water_animal-jellyfish.png,stimulus/viswhat_stim/land_animal-snake.png,stimulus/audwhat_stim/match_blank.png,stimulus/audwhat_stim/match_box.png,stimulus/audwhat_stim/match_yes.png,stimulus/audwhat_stim/match_no.png,1.0,Match,Type,Type,1,5.125,0,5.125,0,5.125,0,5.125,0,0.625,0.625,1,0.5,1,2.125,1,0.5,1,2.125,0,0.0,0,0.0,0,0.0,0,0.0,0,,,,,0,23,23,23,,,,,,,,,230.807223374999,235.92942404199857,231.28488049999942,232.28330929199728,232.9055348749971,233.90371087499807,230.807223374999,230.807223374999,230.81986683399955,230.807223374999,230.807223374999,230.807223374999,230.81986683399955,230.807223374999,235.92942404199857,236.6227254999976,238.7025847499972,242.7406719999999,236.6227254999976,236.6227254999976,241.77753374999884,237.05963949999932,238.07386704199962,238.7025847499972,239.717710334,236.6227254999976,236.6227254999976,236.59306545899818,236.6227254999976,236.6227254999976,236.6227254999976,236.59306545899818,236.6227254999976,236.6227254999976,241.77753374999884,236.6227254999976,241.77753374999884,241.79956420899907,242.43490258399834,236.6227254999976,1,1,1.4898760420037434,reldom2_s034,001,2025-03-13_15h49.11.606,What-A-Scan_AC,2022.2.5,None,
0,0.0,None,fixation,stimulus/audwhat_stim/blank_white.png,stimulus/audwhat_stim/blank_white.png,stimulus/viswhat_stim/blank_white.png,stimulus/viswhat_stim/blank_white.png,stimulus/audwhat_stim/blank_white.png,stimulus/audwhat_stim/blank_white.png,stimulus/audwhat_stim/blank_white.png,stimulus/audwhat_stim/blank_white.png,0.0,0.0,0.0,0.0,0,0.0,0,0.0,0,0.0,0,0.0,0,0.0,0.0,0,0.0,0,0.0,0,0.0,0,0.0,0,0.0,0,0.0,0,0.0,0,0.0,8,,,,,0,24,24,24,,,,,,,,,242.7406719999999,242.7406719999999,242.7406719999999,242.7406719999999,242.7406719999999,242.7406719999999,242.7406719999999,242.7406719999999,242.64369774999943,242.7406719999999,242.7406719999999,242.7406719999999,242.64369774999943,242.7406719999999,242.7406719999999,242.7406719999999,242.7406719999999,242.7406719999999,242.7406719999999,242.7406719999999,242.7406719999999,242.7406719999999,242.7406719999999,242.7406719999999,242.7406719999999,242.7406719999999,242.7406719999999,242.69369774999942,242.7406719999999,242.7406719999999,242.7406719999999,242.69369774999942,242.7406719999999,242.7406719999999,242.7406719999999,242.7406719999999,242.7406719999999,247.96411299999818,247.96411299999818,250.9694567089973,None,0,,reldom2_s034,001,2025-03-13_15h49.11.606,What-A-Scan_AC,2022.2.5,None,
19,First_Order,4.0,viswhat,stimulus/viswhat_stim/blank_white.png,stimulus/viswhat_stim/blank_white.png,stimulus/viswhat_stim/land_animal-wolf.png,stimulus/viswhat_stim/water_animal-squid.png,stimulus/viswhat_stim/blank_white.png,stimulus/viswhat_stim/location_box.png,stimulus/viswhat_stim/location_yes.png,stimulus/viswhat_stim/location_no.png,None,Location,None,Type,2,0.0,0,5.125,0,5.125,0,5.125,0,0.0,0.625,0,0.0,0,0.0,1,0.5,1,2.125,0,0.0,0,0.0,0,0.0,0,0.0,0,,,,,0,25,25,25,,,,,,,,,250.9694567089973,250.9694567089973,250.9694567089973,250.9694567089973,250.9694567089973,250.9694567089973,250.9694567089973,250.9694567089973,250.9272430416665,250.9694567089973,250.9694567089973,250.9694567089973,250.9272430416665,250.9694567089973,250.9694567089973,250.9694567089973,253.06032083399987,,250.9694567089973,250.9694567089973,256.1291585839972,251.4536159169984,252.48582445899956,253.06032083399987,254.09658804199717,250.9694567089973,250.9694567089973,250.94390970833314,250.9694567089973,250.9694567089973,250.9694567089973,250.94390970833314,250.9694567089973,250.9694567089973,256.1291585839972,250.9694567089973,256.1291585839972,256.17935208400013,256.8208749999976,250.9694567089973,2,1,1.6807140410019201,reldom2_s034,001,2025-03-13_15h49.11.606,What-A-Scan_AC,2022.2.5,None,
20,First_Order,4.0,viswhat,stimulus/viswhat_stim/blank_white.png,stimulus/viswhat_stim/blank_white.png,stimulus/viswhat_stim/water_animal-jellyfish.png,stimulus/viswhat_stim/water_vehicle-motorboatraft.png,stimulus/viswhat_stim/blank_white.png,stimulus/viswhat_stim/location_box.png,stimulus/viswhat_stim/location_yes.png,stimulus/viswhat_stim/location_no.png,None,Location,None,Location,1,0.0,0,5.125,0,5.125,0,5.125,0,0.0,0.625,0,0.0,0,0.0,1,0.5,1,2.125,0,0.0,0,0.0,0,0.0,0,0.0,0,,,,,0,26,26,26,,,,,,,,,257.0375747500002,257.0375747500002,257.0375747500002,257.0375747500002,257.0375747500002,257.0375747500002,257.0375747500002,257.0375747500002,256.99482312499964,257.0375747500002,257.0375747500002,257.0375747500002,256.99482312499964,257.0375747500002,257.0375747500002,257.0375747500002,259.13161166699865,263.2034323339976,257.0375747500002,257.0375747500002,262.18741116699675,257.52734633399814,258.562450292,259.13161166699865,260.14384037499985,257.0375747500002,257.0375747500002,257.01148979166635,257.0375747500002,257.0375747500002,257.0375747500002,257.01148979166635,257.0375747500002,257.0375747500002,262.18741116699675,257.0375747500002,262.18741116699675,262.25250649999725,262.896742334,257.0375747500002,1,1,0.7178975830029231,reldom2_s034,001,2025-03-13_15h49.11.606,What-A-Scan_AC,2022.2.5,None,
21,First_Order,4.0,viswhat,stimulus/viswhat_stim/blank_white.png,stimulus/viswhat_stim/blank_white.png,stimulus/viswhat_stim/land_animal-elephant.png,stimulus/viswhat_stim/land_vehicle-buldozer.png,stimulus/viswhat_stim/blank_white.png,stimulus/viswhat_stim/type_box.png,stimulus/viswhat_stim/type_yes.png,stimulus/viswhat_stim/type_no.png,None,Type,None,Location,2,0.0,0,5.125,0,5.125,0,5.125,0,0.0,0.625,0,0.0,0,0.0,1,0.5,1,2.125,0,0.0,0,0.0,0,0.0,0,0.0,0,,,,,0,27,27,27,,,,,,,,,263.2034323339976,263.2034323339976,263.2034323339976,263.2034323339976,263.2034323339976,263.2034323339976,263.2034323339976,263.2034323339976,263.0824519169997,263.2034323339976,263.2034323339976,263.2034323339976,263.0824519169997,263.2034323339976,263.2034323339976,263.2034323339976,265.28980554199734,269.32294679199913,263.2034323339976,263.2034323339976,268.41970154199953,263.69017104199884,264.80394816699845,265.28980554199734,266.4075879999982,263.2034323339976,263.2034323339976,263.14911858366634,263.2034323339976,263.2034323339976,263.2034323339976,263.14911858366634,263.2034323339976,263.2034323339976,268.41970154199953,263.2034323339976,268.41970154199953,268.41970154199953,269.32294679199913,263.2034323339976,1,0,0.8020785000007891,reldom2_s034,001,2025-03-13_15h49.11.606,What-A-Scan_AC,2022.2.5,None,
22,First_Order,4.0,viswhat,stimulus/viswhat_stim/blank_white.png,stimulus/viswhat_stim/blank_white.png,stimulus/viswhat_stim/water_animal-shark.png,stimulus/viswhat_stim/water_vehicle-cabincruiser.png,stimulus/viswhat_stim/blank_white.png,stimulus/viswhat_stim/type_box.png,stimulus/viswhat_stim/type_yes.png,stimulus/viswhat_stim/type_no.png,None,Type,None,Location,2,0.0,0,5.125,0,5.125,0,5.125,0,0.0,0.625,0,0.0,0,0.0,1,0.5,1,2.125,0,0.0,0,0.0,0,0.0,0,0.0,0,,,,,0,28,28,28,,,,,,,,,269.32294679199913,269.32294679199913,269.32294679199913,269.32294679199913,269.32294679199913,269.32294679199913,269.32294679199913,269.32294679199913,269.2418362083326,269.32294679199913,269.32294679199913,269.32294679199913,269.2418362083326,269.32294679199913,269.32294679199913,269.32294679199913,271.4214714169975,275.4692228749991,269.32294679199913,269.32294679199913,274.5169886249969,269.79958404199715,270.85138766699674,271.4214714169975,272.47085983399666,269.32294679199913,269.32294679199913,269.2751695416659,269.32294679199913,269.32294679199913,269.32294679199913,269.2751695416659,269.32294679199913,269.32294679199913,274.5169886249969,269.32294679199913,274.5169886249969,274.5169886249969,275.18990824999855,269.32294679199913,2,1,2.1672230000003765,reldom2_s034,001,2025-03-13_15h49.11.606,What-A-Scan_AC,2022.2.5,None,
0,0.0,None,fixation,stimulus/audwhat_stim/blank_white.png,stimulus/audwhat_stim/blank_white.png,stimulus/viswhat_stim/blank_white.png,stimulus/viswhat_stim/blank_white.png,stimulus/audwhat_stim/blank_white.png,stimulus/audwhat_stim/blank_white.png,stimulus/audwhat_stim/blank_white.png,stimulus/audwhat_stim/blank_white.png,0.0,0.0,0.0,0.0,0,0.0,0,0.0,0,0.0,0,0.0,0,0.0,0.0,0,0.0,0,0.0,0,0.0,0,0.0,0,0.0,0,0.0,0,0.0,0,0.0,9,,,,,0,29,29,29,,,,,,,,,275.4692228749991,275.4692228749991,275.4692228749991,275.4692228749991,275.4692228749991,275.4692228749991,275.4692228749991,275.4692228749991,275.36501804233023,275.4692228749991,275.4692228749991,275.4692228749991,275.36501804233023,275.4692228749991,275.4692228749991,275.4692228749991,275.4692228749991,275.4692228749991,275.4692228749991,275.4692228749991,275.4692228749991,275.4692228749991,275.4692228749991,275.4692228749991,275.4692228749991,275.4692228749991,275.4692228749991,275.4316847089969,275.4692228749991,275.4692228749991,275.4692228749991,275.4316847089969,275.4692228749991,275.4692228749991,275.4692228749991,275.4692228749991,275.4692228749991,280.6965960419984,280.6965960419984,284.62002595899685,None,0,,reldom2_s034,001,2025-03-13_15h49.11.606,What-A-Scan_AC,2022.2.5,None,
23,Second_Order,4.0,viswhat,stimulus/viswhat_stim/water_vehicle-canoe(1).png,stimulus/viswhat_stim/land_vehicle-vespa.png,stimulus/viswhat_stim/land_animal-dog.png,stimulus/viswhat_stim/water_animal-jellyfish.png,stimulus/audwhat_stim/match_blank.png,stimulus/audwhat_stim/match_box.png,stimulus/audwhat_stim/match_yes.png,stimulus/audwhat_stim/match_no.png,1.0,Match,Type,Type,1,5.125,0,5.125,0,5.125,0,5.125,0,0.75,0.75,1,0.5,1,2.125,1,0.5,1,2.125,0,0.0,0,0.0,0,0.0,0,0.0,0,,,,,0,30,30,30,,,,,,,,,284.62002595899685,289.73697524999807,285.08840079199945,286.0778860419996,286.71420774999933,287.71122045899756,284.62002595899685,284.62002595899685,284.6206046253302,284.62002595899685,284.62002595899685,284.62002595899685,284.6206046253302,284.62002595899685,289.73697524999807,290.5527770419976,292.62733041699903,296.5122419170002,290.5527770419976,290.5527770419976,295.7024119589987,291.00834970899814,292.03145508399757,292.62733041699903,293.65472362499713,290.5527770419976,290.5527770419976,290.5210969589978,290.5527770419976,290.5527770419976,290.5527770419976,290.5210969589978,290.5527770419976,290.5527770419976,295.7024119589987,290.5527770419976,295.7024119589987,295.7477069999986,,290.5527770419976,1,1,0.8854511250028736,reldom2_s034,001,2025-03-13_15h49.11.606,What-A-Scan_AC,2022.2.5,None,
24,Second_Order,4.0,viswhat,stimulus/viswhat_stim/land_vehicle-tank.png,stimulus/viswhat_stim/water_vehicle-canoe(1).png,stimulus/viswhat_stim/water_animal-orka.png,stimulus/viswhat_stim/water_vehicle-cabincruiser.png,stimulus/audwhat_stim/match_blank.png,stimulus/audwhat_stim/match_box.png,stimulus/audwhat_stim/match_yes.png,stimulus/audwhat_stim/match_no.png,2.0,Match,Type,Location,2,5.125,0,5.125,0,5.125,0,5.125,0,0.625,0.625,1,0.5,1,2.125,1,0.5,1,2.125,0,0.0,0,0.0,0,0.0,0,0.0,0,,,,,0,31,31,31,,,,,,,,,296.5122419170002,301.63151270899834,296.9999409589982,297.98839037499783,298.6198230839982,299.6087495840002,296.5122419170002,296.5122419170002,296.5229279166643,296.5122419170002,296.5122419170002,296.5122419170002,296.5229279166643,296.5122419170002,301.63151270899834,302.4251281249999,304.4995976249993,,302.4251281249999,302.4251281249999,307.65117883399944,302.807592541998,303.88362795899957,304.4995976249993,305.5767359169986,302.4251281249999,302.4251281249999,302.36168391666604,302.4251281249999,302.4251281249999,302.4251281249999,302.36168391666604,302.4251281249999,302.4251281249999,307.65117883399944,302.4251281249999,307.65117883399944,307.5800658749977,308.520363833999,302.4251281249999,2,1,0.7345946240020567,reldom2_s034,001,2025-03-13_15h49.11.606,What-A-Scan_AC,2022.2.5,None,
0,0.0,None,fixation,stimulus/audwhat_stim/blank_white.png,stimulus/audwhat_stim/blank_white.png,stimulus/viswhat_stim/blank_white.png,stimulus/viswhat_stim/blank_white.png,stimulus/audwhat_stim/blank_white.png,stimulus/audwhat_stim/blank_white.png,stimulus/audwhat_stim/blank_white.png,stimulus/audwhat_stim/blank_white.png,0.0,0.0,0.0,0.0,0,0.0,0,0.0,0,0.0,0,0.0,0,0.0,0.0,0,0.0,0,0.0,0,0.0,0,0.0,0,0.0,0,0.0,0,0.0,0,0.0,9,,,,,0,32,32,32,,,,,,,,,308.520363833999,308.520363833999,308.520363833999,308.520363833999,308.520363833999,308.520363833999,308.520363833999,308.520363833999,308.42235104199716,308.520363833999,308.520363833999,308.520363833999,308.42235104199716,308.520363833999,308.520363833999,308.520363833999,308.520363833999,308.520363833999,308.520363833999,308.520363833999,308.520363833999,308.520363833999,308.520363833999,308.520363833999,308.520363833999,308.520363833999,308.520363833999,308.4723510419972,308.520363833999,308.520363833999,308.520363833999,308.4723510419972,308.520363833999,308.520363833999,308.520363833999,308.520363833999,308.520363833999,313.740297999997,313.740297999997,317.78524804199697,None,0,,reldom2_s034,001,2025-03-13_15h49.11.606,What-A-Scan_AC,2022.2.5,None,
25,First_Order,5.0,audwhat,stimulus/audwhat_stim/dummy.wav,stimulus/audwhat_stim/dummy.wav,stimulus/audwhat_stim/string cello_low-pitch_Dtri_loud.wav,stimulus/audwhat_stim/percussion mallet_low-pitch_Dtri_loud.wav,stimulus/audwhat_stim/blank_white.png,stimulus/audwhat_stim/pitch_box.png,stimulus/audwhat_stim/pitch_yes.png,stimulus/audwhat_stim/pitch_no.png,None,Pitch,None,Pitch,1,0.0,0,5.125,0,5.125,0,5.125,0,0.0,0.625,0,0.0,0,0.0,0,0.0,0,0.0,0,0.0,0,0.0,1,0.5,1,2.125,0,,,,,0,33,33,33,,,,,,,,,317.78524804199697,317.78524804199697,317.78524804199697,317.78524804199697,317.78524804199697,317.78524804199697,317.78524804199697,317.78524804199697,317.71285550066625,317.78524804199697,317.78524804199697,317.78524804199697,317.71285550066625,317.78524804199697,317.78524804199697,317.78524804199697,319.8660196669989,323.89868054199906,317.78524804199697,317.78524804199697,322.95620829199834,317.78524804199697,317.78524804199697,317.78524804199697,317.78524804199697,318.24851395899896,319.3107110839992,318.2184845006634,,319.8660196669989,320.92696766699737,319.83574645866634,,317.78524804199697,322.95620829199834,317.78524804199697,322.95620829199834,322.9974462499995,323.64555216699955,317.78524804199697,1,1,1.7868727920031233,reldom2_s034,001,2025-03-13_15h49.11.606,What-A-Scan_AC,2022.2.5,None,
26,First_Order,5.0,audwhat,stimulus/audwhat_stim/dummy.wav,stimulus/audwhat_stim/dummy.wav,stimulus/audwhat_stim/string cello_low-pitch_F_loud.wav,stimulus/audwhat_stim/percussion mallet_low-pitch_F_loud.wav,stimulus/audwhat_stim/blank_white.png,stimulus/audwhat_stim/pitch_box.png,stimulus/audwhat_stim/pitch_yes.png,stimulus/audwhat_stim/pitch_no.png,None,Pitch,None,Pitch,1,0.0,0,5.125,0,5.125,0,5.125,0,0.0,0.625,0,0.0,0,0.0,0,0.0,0,0.0,0,0.0,0,0.0,1,0.5,1,2.125,0,,,,,0,34,34,34,,,,,,,,,323.89868054199906,323.89868054199906,323.89868054199906,323.89868054199906,323.89868054199906,323.89868054199906,323.89868054199906,323.89868054199906,323.8188010003306,323.89868054199906,323.89868054199906,323.89868054199906,323.8188010003306,323.89868054199906,323.89868054199906,323.89868054199906,325.9762413749995,330.0188935419974,323.89868054199906,323.89868054199906,329.0739582499991,323.89868054199906,323.89868054199906,323.89868054199906,323.89868054199906,324.358527417,325.42140154200024,324.3289030006638,,325.9762413749995,327.0412054169974,325.94650570866384,,323.89868054199906,329.0739582499991,323.89868054199906,329.0739582499991,329.11496279199855,329.7638055419993,323.89868054199906,1,1,1.4012562500029162,reldom2_s034,001,2025-03-13_15h49.11.606,What-A-Scan_AC,2022.2.5,None,
27,First_Order,5.0,audwhat,stimulus/audwhat_stim/dummy.wav,stimulus/audwhat_stim/dummy.wav,stimulus/audwhat_stim/string cello_high-pitch_D_loud.wav,stimulus/audwhat_stim/percussion mallet_high-pitch_D_loud.wav,stimulus/audwhat_stim/blank_white.png,stimulus/audwhat_stim/category_box.png,stimulus/audwhat_stim/category_yes.png,stimulus/audwhat_stim/category_no.png,None,Category,None,Pitch,2,0.0,0,5.125,0,5.125,0,5.125,0,0.0,0.625,0,0.0,0,0.0,0,0.0,0,0.0,0,0.0,0,0.0,1,0.5,1,2.125,0,,,,,0,35,35,35,,,,,,,,,330.0188935419974,330.0188935419974,330.0188935419974,330.0188935419974,330.0188935419974,330.0188935419974,330.0188935419974,330.0188935419974,329.9379197083309,330.0188935419974,330.0188935419974,330.0188935419974,329.9379197083309,330.0188935419974,330.0188935419974,330.0188935419974,332.10824324999703,,330.0188935419974,330.0188935419974,335.1699203749995,330.0188935419974,330.0188935419974,330.0188935419974,330.0188935419974,330.4816721669995,331.55061699999715,330.45166683366574,,332.10824324999703,333.1774807089969,332.07847583366333,,330.0188935419974,335.1699203749995,330.0188935419974,335.1699203749995,335.2104118749994,335.86456920899946,330.0188935419974,2,1,0.9035856660048012,reldom2_s034,001,2025-03-13_15h49.11.606,What-A-Scan_AC,2022.2.5,None,
28,First_Order,5.0,audwhat,stimulus/audwhat_stim/dummy.wav,stimulus/audwhat_stim/dummy.wav,stimulus/audwhat_stim/percussion mallet_low-pitch_Ftri_loud.wav,stimulus/audwhat_stim/percussion mallet_high-pitch_F_loud.wav,stimulus/audwhat_stim/blank_white.png,stimulus/audwhat_stim/category_box.png,stimulus/audwhat_stim/category_yes.png,stimulus/audwhat_stim/category_no.png,None,Category,None,Category,1,0.0,0,5.125,0,5.125,0,5.125,0,0.0,0.625,0,0.0,0,0.0,0,0.0,0,0.0,0,0.0,0,0.0,1,0.5,1,2.125,0,,,,,0,36,36,36,,,,,,,,,336.1177136249971,336.1177136249971,336.1177136249971,336.1177136249971,336.1177136249971,336.1177136249971,336.1177136249971,336.1177136249971,336.03853562533016,336.1177136249971,336.1177136249971,336.1177136249971,336.03853562533016,336.1177136249971,336.1177136249971,336.1177136249971,338.20582037499844,,336.1177136249971,336.1177136249971,341.2701171669978,336.1177136249971,336.1177136249971,336.1177136249971,336.1177136249971,336.58190908399774,337.64717470899996,336.5519225416649,,338.20582037499844,339.27459991700016,338.1756748756636,,336.1177136249971,341.2701171669978,336.1177136249971,341.2701171669978,341.3114362919987,341.9668894999995,336.1177136249971,1,1,1.797044791004737,reldom2_s034,001,2025-03-13_15h49.11.606,What-A-Scan_AC,2022.2.5,None,
0,0.0,None,fixation,stimulus/audwhat_stim/blank_white.png,stimulus/audwhat_stim/blank_white.png,stimulus/viswhat_stim/blank_white.png,stimulus/viswhat_stim/blank_white.png,stimulus/audwhat_stim/blank_white.png,stimulus/audwhat_stim/blank_white.png,stimulus/audwhat_stim/blank_white.png,stimulus/audwhat_stim/blank_white.png,0.0,0.0,0.0,0.0,0,0.0,0,0.0,0,0.0,0,0.0,0,0.0,0.0,0,0.0,0,0.0,0,0.0,0,0.0,0,0.0,0,0.0,0,0.0,0,0.0,8,,,,,0,37,37,37,,,,,,,,,342.2411157919996,342.2411157919996,342.2411157919996,342.2411157919996,342.2411157919996,342.2411157919996,342.2411157919996,342.2411157919996,342.1410467083316,342.2411157919996,342.2411157919996,342.2411157919996,342.1410467083316,342.2411157919996,342.2411157919996,342.2411157919996,342.2411157919996,342.2411157919996,342.2411157919996,342.2411157919996,342.2411157919996,342.2411157919996,342.2411157919996,342.2411157919996,342.2411157919996,342.2411157919996,342.2411157919996,342.1910467083316,342.2411157919996,342.2411157919996,342.2411157919996,342.1910467083316,342.2411157919996,342.2411157919996,342.2411157919996,342.2411157919996,342.2411157919996,347.4251958749992,347.4251958749992,350.3982070839993,None,0,,reldom2_s034,001,2025-03-13_15h49.11.606,What-A-Scan_AC,2022.2.5,None,
29,Second_Order,5.0,audwhat,stimulus/audwhat_stim/percussion xylophone_high-pitch_Dtri_loud.wav,stimulus/audwhat_stim/percussion mallet_low-pitch_Ftri_loud.wav,stimulus/audwhat_stim/string viola_high-pitch_Ftri_loud.wav,stimulus/audwhat_stim/string viola_low-pitch_Dtri_loud.wav,stimulus/audwhat_stim/match_blank.png,stimulus/audwhat_stim/match_box.png,stimulus/audwhat_stim/match_yes.png,stimulus/audwhat_stim/match_no.png,1.0,Match,Category,Category,1,5.125,0,5.125,0,5.125,0,5.125,0,0.75,0.75,0,0.0,0,0.0,0,0.0,0,0.0,1,0.5,1,2.125,1,0.5,1,2.125,0,,,,,0,38,38,38,,,,,,,,,350.3982070839993,355.5223972499989,350.3982070839993,350.3982070839993,350.3982070839993,350.3982070839993,350.8567808339976,351.8460614589967,350.8592249166652,351.8460614589967,352.48172404199795,353.47982054199747,352.49403787566575,,355.5223972499989,356.3739502089993,358.4377108339977,362.3730652919985,356.3739502089993,356.3739502089993,361.52199595899947,356.3739502089993,356.3739502089993,356.3739502089993,356.3739502089993,356.8314411249994,357.88490399999864,356.8021043336669,,358.4377108339977,359.4951617919978,358.4080368336656,,356.3739502089993,361.52199595899947,356.3739502089993,361.52199595899947,361.56266254199727,,356.3739502089993,1,1,1.5762135410041083,reldom2_s034,001,2025-03-13_15h49.11.606,What-A-Scan_AC,2022.2.5,None,
30,Second_Order,5.0,audwhat,stimulus/audwhat_stim/percussion mallet_low-pitch_F_loud.wav,stimulus/audwhat_stim/percussion mallet_high-pitch_Ftri_loud.wav,stimulus/audwhat_stim/string viola_low-pitch_F_loud.wav,stimulus/audwhat_stim/string viola_high-pitch_Ftri_loud.wav,stimulus/audwhat_stim/match_blank.png,stimulus/audwhat_stim/match_box.png,stimulus/audwhat_stim/match_yes.png,stimulus/audwhat_stim/match_no.png,1.0,Match,Category,Category,1,5.125,0,5.125,0,5.125,0,5.125,0,0.625,0.625,0,0.0,0,0.0,0,0.0,0,0.0,1,0.5,1,2.125,1,0.5,1,2.125,0,,,,,0,39,39,39,,,,,,,,,362.3730652919985,367.49556516699886,362.3730652919985,362.3730652919985,362.3730652919985,362.3730652919985,362.8207615419997,363.8074368339985,362.8342357506665,,364.4552754999968,365.4448154589991,364.45947054166413,,367.49556516699886,368.231140459,370.28373233399907,,368.231140459,368.231140459,373.39981862499917,368.231140459,368.231140459,368.231140459,368.231140459,368.6848336249968,369.7348954589979,368.65609291666647,,370.28373233399907,371.3372860419986,370.25475150066654,,368.231140459,373.39981862499917,368.231140459,373.39981862499917,373.39981862499917,374.0868888749974,368.231140459,2,0,3.7335059580036614,reldom2_s034,001,2025-03-13_15h49.11.606,What-A-Scan_AC,2022.2.5,None,
0,0.0,None,fixation,stimulus/audwhat_stim/blank_white.png,stimulus/audwhat_stim/blank_white.png,stimulus/viswhat_stim/blank_white.png,stimulus/viswhat_stim/blank_white.png,stimulus/audwhat_stim/blank_white.png,stimulus/audwhat_stim/blank_white.png,stimulus/audwhat_stim/blank_white.png,stimulus/audwhat_stim/blank_white.png,0.0,0.0,0.0,0.0,0,0.0,0,0.0,0,0.0,0,0.0,0,0.0,0.0,0,0.0,0,0.0,0,0.0,0,0.0,0,0.0,0,0.0,0,0.0,0,0.0,9,,,,,0,40,40,40,,,,,,,,,374.3182589169992,374.3182589169992,374.3182589169992,374.3182589169992,374.3182589169992,374.3182589169992,374.3182589169992,374.3182589169992,374.2202222083307,374.3182589169992,374.3182589169992,374.3182589169992,374.2202222083307,374.3182589169992,374.3182589169992,374.3182589169992,374.3182589169992,374.3182589169992,374.3182589169992,374.3182589169992,374.3182589169992,374.3182589169992,374.3182589169992,374.3182589169992,374.3182589169992,374.3182589169992,374.3182589169992,374.2702222083307,374.3182589169992,374.3182589169992,374.3182589169992,374.2702222083307,374.3182589169992,374.3182589169992,374.3182589169992,374.3182589169992,374.3182589169992,379.5405968749983,379.5405968749983,383.58526766700015,None,0,,reldom2_s034,001,2025-03-13_15h49.11.606,What-A-Scan_AC,2022.2.5,None,
31,First_Order,6.0,audwhat,stimulus/audwhat_stim/dummy.wav,stimulus/audwhat_stim/dummy.wav,stimulus/audwhat_stim/string viola_high-pitch_F_loud.wav,stimulus/audwhat_stim/percussion xylophone_high-pitch_F_loud.wav,stimulus/audwhat_stim/blank_white.png,stimulus/audwhat_stim/category_box.png,stimulus/audwhat_stim/category_yes.png,stimulus/audwhat_stim/category_no.png,None,Category,None,Pitch,2,0.0,0,5.125,0,5.125,0,5.125,0,0.0,0.625,0,0.0,0,0.0,0,0.0,0,0.0,0,0.0,0,0.0,1,0.5,1,2.125,0,,,,,0,41,41,41,,,,,,,,,383.58526766700015,383.58526766700015,383.58526766700015,383.58526766700015,383.58526766700015,383.58526766700015,383.58526766700015,383.58526766700015,383.5157617506653,383.58526766700015,383.58526766700015,383.58526766700015,383.5157617506653,383.58526766700015,383.58526766700015,383.58526766700015,385.6746517920001,,383.58526766700015,383.58526766700015,388.73371891699935,383.58526766700015,383.58526766700015,383.58526766700015,383.58526766700015,384.05227629199726,385.1198433339996,384.02259475066626,,385.6746517920001,386.7397630839987,385.6448975416645,386.6933315839997,383.58526766700015,388.73371891699935,383.58526766700015,388.73371891699935,388.81537508399924,389.4682754589994,383.58526766700015,2,1,1.0866505830053939,reldom2_s034,001,2025-03-13_15h49.11.606,What-A-Scan_AC,2022.2.5,None,
32,First_Order,6.0,audwhat,stimulus/audwhat_stim/dummy.wav,stimulus/audwhat_stim/dummy.wav,stimulus/audwhat_stim/percussion mallet_high-pitch_F_loud.wav,stimulus/audwhat_stim/percussion mallet_low-pitch_D_loud.wav,stimulus/audwhat_stim/blank_white.png,stimulus/audwhat_stim/pitch_box.png,stimulus/audwhat_stim/pitch_yes.png,stimulus/audwhat_stim/pitch_no.png,None,Pitch,None,Category,2,0.0,0,5.125,0,5.125,0,5.125,0,0.0,0.625,0,0.0,0,0.0,0,0.0,0,0.0,0,0.0,0,0.0,1,0.5,1,2.125,0,,,,,0,42,42,42,,,,,,,,,389.6804786249995,389.6804786249995,389.6804786249995,389.6804786249995,389.6804786249995,389.6804786249995,389.6804786249995,389.6804786249995,389.60160879233274,389.6804786249995,389.6804786249995,389.6804786249995,389.60160879233274,389.6804786249995,389.6804786249995,389.6804786249995,391.7604904999971,395.8016818750002,389.6804786249995,389.6804786249995,394.8604915839969,389.6804786249995,389.6804786249995,389.6804786249995,389.6804786249995,390.14457174999916,391.2071122919988,390.1148076256652,,391.7604904999971,392.8270960419977,391.73100566666494,,389.6804786249995,394.8604915839969,389.6804786249995,394.8604915839969,394.9015810839992,395.5896492920001,389.6804786249995,2,1,1.3176051240043307,reldom2_s034,001,2025-03-13_15h49.11.606,What-A-Scan_AC,2022.2.5,None,
33,First_Order,6.0,audwhat,stimulus/audwhat_stim/dummy.wav,stimulus/audwhat_stim/dummy.wav,stimulus/audwhat_stim/string cello_high-pitch_D_loud.wav,stimulus/audwhat_stim/string cello_low-pitch_Dtri_loud.wav,stimulus/audwhat_stim/blank_white.png,stimulus/audwhat_stim/category_box.png,stimulus/audwhat_stim/category_yes.png,stimulus/audwhat_stim/category_no.png,None,Category,None,Category,1,0.0,0,5.125,0,5.125,0,5.125,0,0.0,0.625,0,0.0,0,0.0,0,0.0,0,0.0,0,0.0,0,0.0,1,0.5,1,2.125,0,,,,,0,43,43,43,,,,,,,,,395.8016818750002,395.8016818750002,395.8016818750002,395.8016818750002,395.8016818750002,395.8016818750002,395.8016818750002,395.8016818750002,395.72298262533343,395.8016818750002,395.8016818750002,395.8016818750002,395.72298262533343,395.8016818750002,395.8016818750002,395.8016818750002,397.8922539999985,,395.8016818750002,395.8016818750002,400.994705416997,395.8016818750002,395.8016818750002,395.8016818750002,395.8016818750002,396.2679874589994,397.3350636670002,396.23832675066683,,397.8922539999985,398.9584235000002,397.8611052916642,,395.8016818750002,400.994705416997,395.8016818750002,400.994705416997,400.994705416997,401.6456384999983,395.8016818750002,1,1,1.7164124580012867,reldom2_s034,001,2025-03-13_15h49.11.606,What-A-Scan_AC,2022.2.5,None,
34,First_Order,6.0,audwhat,stimulus/audwhat_stim/dummy.wav,stimulus/audwhat_stim/dummy.wav,stimulus/audwhat_stim/string cello_high-pitch_F_loud.wav,stimulus/audwhat_stim/string viola_low-pitch_Ftri_loud.wav,stimulus/audwhat_stim/blank_white.png,stimulus/audwhat_stim/pitch_box.png,stimulus/audwhat_stim/pitch_yes.png,stimulus/audwhat_stim/pitch_no.png,None,Pitch,None,Category,2,0.0,0,5.125,0,5.125,0,5.125,0,0.0,0.625,0,0.0,0,0.0,0,0.0,0,0.0,0,0.0,0,0.0,1,0.5,1,2.125,0,,,,,0,44,44,44,,,,,,,,,401.89994079199823,401.89994079199823,401.89994079199823,401.89994079199823,401.89994079199823,401.89994079199823,401.89994079199823,401.89994079199823,401.81958841733115,401.89994079199823,401.89994079199823,401.89994079199823,401.81958841733115,401.89994079199823,401.89994079199823,401.89994079199823,403.98510208399966,,401.89994079199823,401.89994079199823,407.0851040839989,401.89994079199823,401.89994079199823,401.89994079199823,401.89994079199823,402.3647532499999,403.4297523749992,402.33288166666557,,403.98510208399966,405.0509082089993,403.955677291666,,401.89994079199823,407.0851040839989,401.89994079199823,407.0851040839989,407.12594083399745,407.7798561669988,401.89994079199823,2,1,2.0637133330019424,reldom2_s034,001,2025-03-13_15h49.11.606,What-A-Scan_AC,2022.2.5,None,
0,0.0,None,fixation,stimulus/audwhat_stim/blank_white.png,stimulus/audwhat_stim/blank_white.png,stimulus/viswhat_stim/blank_white.png,stimulus/viswhat_stim/blank_white.png,stimulus/audwhat_stim/blank_white.png,stimulus/audwhat_stim/blank_white.png,stimulus/audwhat_stim/blank_white.png,stimulus/audwhat_stim/blank_white.png,0.0,0.0,0.0,0.0,0,0.0,0,0.0,0,0.0,0,0.0,0,0.0,0.0,0,0.0,0,0.0,0,0.0,0,0.0,0,0.0,0,0.0,0,0.0,0,0.0,10,,,,,0,45,45,45,,,,,,,,,408.01343212499705,408.01343212499705,408.01343212499705,408.01343212499705,408.01343212499705,408.01343212499705,408.01343212499705,408.01343212499705,407.9131895003321,408.01343212499705,408.01343212499705,408.01343212499705,407.9131895003321,408.01343212499705,408.01343212499705,408.01343212499705,408.01343212499705,408.01343212499705,408.01343212499705,408.01343212499705,408.01343212499705,408.01343212499705,408.01343212499705,408.01343212499705,408.01343212499705,408.01343212499705,408.01343212499705,407.96318950033213,408.01343212499705,408.01343212499705,408.01343212499705,407.96318950033213,408.01343212499705,408.01343212499705,408.01343212499705,408.01343212499705,408.01343212499705,413.2336079589986,413.2336079589986,418.1722771249988,None,0,,reldom2_s034,001,2025-03-13_15h49.11.606,What-A-Scan_AC,2022.2.5,None,
35,Second_Order,6.0,audwhat,stimulus/audwhat_stim/percussion xylophone_high-pitch_D_loud.wav,stimulus/audwhat_stim/string viola_high-pitch_D_loud.wav,stimulus/audwhat_stim/percussion mallet_high-pitch_Dtri_loud.wav,stimulus/audwhat_stim/percussion mallet_low-pitch_D_loud.wav,stimulus/audwhat_stim/match_blank.png,stimulus/audwhat_stim/match_box.png,stimulus/audwhat_stim/match_yes.png,stimulus/audwhat_stim/match_no.png,2.0,Match,Pitch,Category,2,5.125,0,5.125,0,5.125,0,5.125,0,0.75,0.75,0,0.0,0,0.0,0,0.0,0,0.0,1,0.5,1,2.125,1,0.5,1,2.125,0,,,,,0,46,46,46,,,,,,,,,418.1722771249988,423.2955077089973,418.1722771249988,418.1722771249988,418.1722771249988,418.1722771249988,418.63019237499975,419.61942320899834,418.6335911256649,419.61942320899834,420.25527095899815,421.2535504999978,420.2672353336641,,423.2955077089973,424.14664179199826,426.2174112089997,,424.14664179199826,424.14664179199826,429.3055577499981,424.14664179199826,424.14664179199826,424.14664179199826,424.14664179199826,424.55944066699885,425.6177005419995,424.5301865416661,,426.2174112089997,427.2768478339967,426.1875894586667,,424.14664179199826,429.3055577499981,424.14664179199826,429.3055577499981,429.3055577499981,,424.14664179199826,2,1,1.046900708002795,reldom2_s034,001,2025-03-13_15h49.11.606,What-A-Scan_AC,2022.2.5,None,
36,Second_Order,6.0,audwhat,stimulus/audwhat_stim/percussion mallet_high-pitch_Dtri_loud.wav,stimulus/audwhat_stim/string viola_high-pitch_Dtri_loud.wav,stimulus/audwhat_stim/string cello_high-pitch_Dtri_loud.wav,stimulus/audwhat_stim/string viola_low-pitch_F_loud.wav,stimulus/audwhat_stim/match_blank.png,stimulus/audwhat_stim/match_box.png,stimulus/audwhat_stim/match_yes.png,stimulus/audwhat_stim/match_no.png,2.0,Match,Pitch,Category,2,5.125,0,5.125,0,5.125,0,5.125,0,0.625,0.625,0,0.0,0,0.0,0,0.0,0,0.0,1,0.5,1,2.125,1,0.5,1,2.125,0,,,,,0,47,47,47,,,,,,,,,430.1118977499973,435.2354673339978,430.1118977499973,430.1118977499973,430.1118977499973,430.1118977499973,430.5620609589969,431.5603020419985,430.5750010006634,,432.19523379199745,433.18425466699773,432.1985327506666,,435.2354673339978,435.969978541998,438.0256024169976,,435.969978541998,435.969978541998,441.1440115419973,435.969978541998,435.969978541998,435.969978541998,435.969978541998,436.4246763339979,437.47530124999685,436.3956002916641,,438.0256024169976,439.08147587499843,437.9964243336656,,435.969978541998,441.1440115419973,435.969978541998,441.1440115419973,441.1440115419973,441.82821362499817,435.969978541998,2,1,1.8722517080022953,reldom2_s034,001,2025-03-13_15h49.11.606,What-A-Scan_AC,2022.2.5,None,
0,0.0,None,fixation,stimulus/audwhat_stim/blank_white.png,stimulus/audwhat_stim/blank_white.png,stimulus/viswhat_stim/blank_white.png,stimulus/viswhat_stim/blank_white.png,stimulus/audwhat_stim/blank_white.png,stimulus/audwhat_stim/blank_white.png,stimulus/audwhat_stim/blank_white.png,stimulus/audwhat_stim/blank_white.png,0.0,0.0,0.0,0.0,0,0.0,0,0.0,0,0.0,0,0.0,0,0.0,0.0,0,0.0,0,0.0,0,0.0,0,0.0,0,0.0,0,0.0,0,0.0,0,0.0,8,,,,,0,48,48,48,,,,,,,,,442.06074454199916,442.06074454199916,442.06074454199916,442.06074454199916,442.06074454199916,442.06074454199916,442.06074454199916,442.06074454199916,441.9615469583315,442.06074454199916,442.06074454199916,442.06074454199916,441.9615469583315,442.06074454199916,442.06074454199916,442.06074454199916,442.06074454199916,442.06074454199916,442.06074454199916,442.06074454199916,442.06074454199916,442.06074454199916,442.06074454199916,442.06074454199916,442.06074454199916,442.06074454199916,442.06074454199916,442.0115469583315,442.06074454199916,442.06074454199916,442.06074454199916,442.0115469583315,442.06074454199916,442.06074454199916,442.06074454199916,442.06074454199916,442.06074454199916,447.28258116699726,447.28258116699726,450.3008225839985,None,0,,reldom2_s034,001,2025-03-13_15h49.11.606,What-A-Scan_AC,2022.2.5,None,
37,First_Order,7.0,viswhat,stimulus/viswhat_stim/blank_white.png,stimulus/viswhat_stim/blank_white.png,stimulus/viswhat_stim/land_animal-zebra.png,stimulus/viswhat_stim/water_animal-squid.png,stimulus/viswhat_stim/blank_white.png,stimulus/viswhat_stim/type_box.png,stimulus/viswhat_stim/type_yes.png,stimulus/viswhat_stim/type_no.png,None,Type,None,Type,1,0.0,0,5.125,0,5.125,0,5.125,0,0.0,0.625,0,0.0,0,0.0,1,0.5,1,2.125,0,0.0,0,0.0,0,0.0,0,0.0,0,,,,,0,49,49,49,,,,,,,,,450.3008225839985,450.3008225839985,450.3008225839985,450.3008225839985,450.3008225839985,450.3008225839985,450.3008225839985,450.3008225839985,450.25637237566355,450.3008225839985,450.3008225839985,450.3008225839985,450.25637237566355,450.3008225839985,450.3008225839985,450.3008225839985,452.4144579169988,456.62302762499894,450.3008225839985,450.3008225839985,455.4343001249981,450.78131733400005,451.80502058399725,452.4144579169988,453.445285709,450.3008225839985,450.3008225839985,450.27303904233025,450.3008225839985,450.3008225839985,450.3008225839985,450.27303904233025,450.3008225839985,450.3008225839985,455.4343001249981,450.3008225839985,455.4343001249981,455.5133585839976,456.14939941699777,450.3008225839985,1,1,1.4267974160029553,reldom2_s034,001,2025-03-13_15h49.11.606,What-A-Scan_AC,2022.2.5,None,
38,First_Order,7.0,viswhat,stimulus/viswhat_stim/blank_white.png,stimulus/viswhat_stim/blank_white.png,stimulus/viswhat_stim/water_vehicle-submarine.png,stimulus/viswhat_stim/water_animal-lobster.png,stimulus/viswhat_stim/blank_white.png,stimulus/viswhat_stim/location_box.png,stimulus/viswhat_stim/location_yes.png,stimulus/viswhat_stim/location_no.png,None,Location,None,Location,1,0.0,0,5.125,0,5.125,0,5.125,0,0.0,0.625,0,0.0,0,0.0,1,0.5,1,2.125,0,0.0,0,0.0,0,0.0,0,0.0,0,,,,,0,50,50,50,,,,,,,,,456.62302762499894,456.62302762499894,456.62302762499894,456.62302762499894,456.62302762499894,456.62302762499894,456.62302762499894,456.62302762499894,456.3449171666633,456.62302762499894,456.62302762499894,456.62302762499894,456.3449171666633,456.62302762499894,456.62302762499894,456.62302762499894,458.7292977090001,462.7340670839985,456.62302762499894,456.62302762499894,461.8835736669971,457.07505270899856,458.2782894589982,458.7292977090001,459.9331323749975,456.62302762499894,456.62302762499894,456.47825049999665,456.62302762499894,456.62302762499894,456.62302762499894,456.47825049999665,456.62302762499894,456.62302762499894,461.8835736669971,456.62302762499894,461.8835736669971,461.7377293749996,,456.62302762499894,1,1,1.269714666002983,reldom2_s034,001,2025-03-13_15h49.11.606,What-A-Scan_AC,2022.2.5,None,
39,First_Order,7.0,viswhat,stimulus/viswhat_stim/blank_white.png,stimulus/viswhat_stim/blank_white.png,stimulus/viswhat_stim/land_vehicle-vespa.png,stimulus/viswhat_stim/water_vehicle-yacht.png,stimulus/viswhat_stim/blank_white.png,stimulus/viswhat_stim/location_box.png,stimulus/viswhat_stim/location_yes.png,stimulus/viswhat_stim/location_no.png,None,Location,None,Type,2,0.0,0,5.125,0,5.125,0,5.125,0,0.0,0.625,0,0.0,0,0.0,1,0.5,1,2.125,0,0.0,0,0.0,0,0.0,0,0.0,0,,,,,0,51,51,51,,,,,,,,,462.7340670839985,462.7340670839985,462.7340670839985,462.7340670839985,462.7340670839985,462.7340670839985,462.7340670839985,462.7340670839985,462.66812724999687,462.7340670839985,462.7340670839985,462.7340670839985,462.66812724999687,462.7340670839985,462.7340670839985,462.7340670839985,464.8298327499979,468.8281309589984,462.7340670839985,462.7340670839985,467.89691270899857,463.194516708998,464.2434652499978,464.8298327499979,465.8799773749997,462.7340670839985,462.7340670839985,462.70146058333023,462.7340670839985,462.7340670839985,462.7340670839985,462.70146058333023,462.7340670839985,462.7340670839985,467.89691270899857,462.7340670839985,467.89691270899857,467.9335769169993,468.5842142499969,462.7340670839985,2,1,2.2768473330033885,reldom2_s034,001,2025-03-13_15h49.11.606,What-A-Scan_AC,2022.2.5,None,
40,First_Order,7.0,viswhat,stimulus/viswhat_stim/blank_white.png,stimulus/viswhat_stim/blank_white.png,stimulus/viswhat_stim/water_vehicle-canoe.png,stimulus/viswhat_stim/water_animal-whale (1).png,stimulus/viswhat_stim/blank_white.png,stimulus/viswhat_stim/location_box.png,stimulus/viswhat_stim/location_yes.png,stimulus/viswhat_stim/location_no.png,None,Location,None,Location,1,0.0,0,5.125,0,5.125,0,5.125,0,0.0,0.625,0,0.0,0,0.0,1,0.5,1,2.125,0,0.0,0,0.0,0,0.0,0,0.0,0,,,,,0,52,52,52,,,,,,,,,468.8281309589984,468.8281309589984,468.8281309589984,468.8281309589984,468.8281309589984,468.8281309589984,468.8281309589984,468.8281309589984,468.7897375003323,468.8281309589984,468.8281309589984,468.8281309589984,468.7897375003323,468.8281309589984,468.8281309589984,468.8281309589984,470.9315251249973,,468.8281309589984,468.8281309589984,473.98125091699694,469.2953368749986,470.31950716699794,470.9315251249973,471.96471024999846,468.8281309589984,468.8281309589984,468.80640416699896,468.8281309589984,468.8281309589984,468.8281309589984,468.80640416699896,468.8281309589984,468.8281309589984,473.98125091699694,468.8281309589984,473.98125091699694,474.0521977919998,474.6873042089974,468.8281309589984,1,1,0.8374842920020455,reldom2_s034,001,2025-03-13_15h49.11.606,What-A-Scan_AC,2022.2.5,None,
0,0.0,None,fixation,stimulus/audwhat_stim/blank_white.png,stimulus/audwhat_stim/blank_white.png,stimulus/viswhat_stim/blank_white.png,stimulus/viswhat_stim/blank_white.png,stimulus/audwhat_stim/blank_white.png,stimulus/audwhat_stim/blank_white.png,stimulus/audwhat_stim/blank_white.png,stimulus/audwhat_stim/blank_white.png,0.0,0.0,0.0,0.0,0,0.0,0,0.0,0,0.0,0,0.0,0,0.0,0.0,0,0.0,0,0.0,0,0.0,0,0.0,0,0.0,0,0.0,0,0.0,0,0.0,10,,,,,0,53,53,53,,,,,,,,,474.9580208749976,474.9580208749976,474.9580208749976,474.9580208749976,474.9580208749976,474.9580208749976,474.9580208749976,474.9580208749976,474.8579455839986,474.9580208749976,474.9580208749976,474.9580208749976,474.8579455839986,474.9580208749976,474.9580208749976,474.9580208749976,474.9580208749976,474.9580208749976,474.9580208749976,474.9580208749976,474.9580208749976,474.9580208749976,474.9580208749976,474.9580208749976,474.9580208749976,474.9580208749976,474.9580208749976,474.90794558399864,474.9580208749976,474.9580208749976,474.9580208749976,474.90794558399864,474.9580208749976,474.9580208749976,474.9580208749976,474.9580208749976,474.9580208749976,480.1912575419992,480.1912575419992,485.11756541700015,None,0,,reldom2_s034,001,2025-03-13_15h49.11.606,What-A-Scan_AC,2022.2.5,None,
41,Second_Order,7.0,viswhat,stimulus/viswhat_stim/water_vehicle-cruiser.png,stimulus/viswhat_stim/land_vehicle-bus.png,stimulus/viswhat_stim/land_animal-fox.png,stimulus/viswhat_stim/water_animal-dolphin.png,stimulus/audwhat_stim/match_blank.png,stimulus/audwhat_stim/match_box.png,stimulus/audwhat_stim/match_yes.png,stimulus/audwhat_stim/match_no.png,1.0,Match,Type,Type,1,5.125,0,5.125,0,5.125,0,5.125,0,0.75,0.75,1,0.5,1,2.125,1,0.5,1,2.125,0,0.0,0,0.0,0,0.0,0,0.0,0,,,,,0,54,54,54,,,,,,,,,485.11756541700015,490.2332773749986,485.5516616249988,486.5407764169977,487.1760857499976,488.17442862499956,485.11756541700015,485.11756541700015,485.1307212083329,485.11756541700015,485.11756541700015,485.11756541700015,485.1307212083329,485.11756541700015,490.2332773749986,491.0429559999975,493.1050592089996,,491.0429559999975,491.0429559999975,496.19211291699685,491.4881389999973,492.5062227089984,493.1050592089996,494.1295956670001,491.0429559999975,491.0429559999975,491.01726995899736,491.0429559999975,491.0429559999975,491.0429559999975,491.01726995899736,491.0429559999975,491.0429559999975,496.19211291699685,491.0429559999975,496.19211291699685,496.23358387499684,,491.0429559999975,1,1,1.2229845420042693,reldom2_s034,001,2025-03-13_15h49.11.606,What-A-Scan_AC,2022.2.5,None,
42,Second_Order,7.0,viswhat,stimulus/viswhat_stim/water_animal-whale.png,stimulus/viswhat_stim/water_vehicle-ferryboat.png,stimulus/viswhat_stim/land_vehicle-tank.png,stimulus/viswhat_stim/land_animal-wolf.png,stimulus/audwhat_stim/match_blank.png,stimulus/audwhat_stim/match_box.png,stimulus/audwhat_stim/match_yes.png,stimulus/audwhat_stim/match_no.png,1.0,Match,Location,Location,1,5.125,0,5.125,0,5.125,0,5.125,0,0.625,0.625,1,0.5,1,2.125,1,0.5,1,2.125,0,0.0,0,0.0,0,0.0,0,0.0,0,,,,,0,55,55,55,,,,,,,,,497.0175909169993,502.1400533749984,497.4833097499977,498.4817549170002,499.1043443339986,500.10179549999884,497.0175909169993,497.0175909169993,497.01609033366645,497.0175909169993,497.0175909169993,497.0175909169993,497.01609033366645,497.0175909169993,502.1400533749984,502.81992779199936,504.9015166249992,508.94372520899924,502.81992779199936,502.81992779199936,507.9639299169976,503.28243154199663,504.29245437499776,504.9015166249992,505.91710749999766,502.81992779199936,502.81992779199936,502.7918744583335,502.81992779199936,502.81992779199936,502.81992779199936,502.7918744583335,502.81992779199936,502.81992779199936,507.9639299169976,502.81992779199936,507.9639299169976,508.0099706669971,508.6399165419971,502.81992779199936,1,1,2.230825917002221,reldom2_s034,001,2025-03-13_15h49.11.606,What-A-Scan_AC,2022.2.5,None,
0,0.0,None,fixation,stimulus/audwhat_stim/blank_white.png,stimulus/audwhat_stim/blank_white.png,stimulus/viswhat_stim/blank_white.png,stimulus/viswhat_stim/blank_white.png,stimulus/audwhat_stim/blank_white.png,stimulus/audwhat_stim/blank_white.png,stimulus/audwhat_stim/blank_white.png,stimulus/audwhat_stim/blank_white.png,0.0,0.0,0.0,0.0,0,0.0,0,0.0,0,0.0,0,0.0,0,0.0,0.0,0,0.0,0,0.0,0,0.0,0,0.0,0,0.0,0,0.0,0,0.0,0,0.0,9,,,,,0,56,56,56,,,,,,,,,508.94372520899924,508.94372520899924,508.94372520899924,508.94372520899924,508.94372520899924,508.94372520899924,508.94372520899924,508.94372520899924,508.8407995003302,508.94372520899924,508.94372520899924,508.94372520899924,508.8407995003302,508.94372520899924,508.94372520899924,508.94372520899924,508.94372520899924,508.94372520899924,508.94372520899924,508.94372520899924,508.94372520899924,508.94372520899924,508.94372520899924,508.94372520899924,508.94372520899924,508.94372520899924,508.94372520899924,508.90746616699687,508.94372520899924,508.94372520899924,508.94372520899924,508.90746616699687,508.94372520899924,508.94372520899924,508.94372520899924,508.94372520899924,508.94372520899924,514.1416711249985,514.1416711249985,518.1841629589981,None,0,,reldom2_s034,001,2025-03-13_15h49.11.606,What-A-Scan_AC,2022.2.5,None,
43,First_Order,8.0,viswhat,stimulus/viswhat_stim/blank_white.png,stimulus/viswhat_stim/blank_white.png,stimulus/viswhat_stim/water_vehicle-canoe.png,stimulus/viswhat_stim/water_animal-octopus.png,stimulus/viswhat_stim/blank_white.png,stimulus/viswhat_stim/type_box.png,stimulus/viswhat_stim/type_yes.png,stimulus/viswhat_stim/type_no.png,None,Type,None,Location,2,0.0,0,5.125,0,5.125,0,5.125,0,0.0,0.625,0,0.0,0,0.0,1,0.5,1,2.125,0,0.0,0,0.0,0,0.0,0,0.0,0,,,,,0,57,57,57,,,,,,,,,518.1841629589981,518.1841629589981,518.1841629589981,518.1841629589981,518.1841629589981,518.1841629589981,518.1841629589981,518.1841629589981,518.1367163756646,518.1841629589981,518.1841629589981,518.1841629589981,518.1367163756646,518.1841629589981,518.1841629589981,518.1841629589981,520.2953267089979,,518.1841629589981,518.1841629589981,523.3289129169971,518.6603736249999,519.6838280419979,520.2953267089979,521.3190356249979,518.1841629589981,518.1841629589981,518.1533830423313,518.1841629589981,518.1841629589981,518.1841629589981,518.1533830423313,518.1841629589981,518.1841629589981,523.3289129169971,518.1841629589981,523.3289129169971,523.3854699589974,524.0424060839978,518.1841629589981,2,1,1.0962032080024073,reldom2_s034,001,2025-03-13_15h49.11.606,What-A-Scan_AC,2022.2.5,None,
44,First_Order,8.0,viswhat,stimulus/viswhat_stim/blank_white.png,stimulus/viswhat_stim/blank_white.png,stimulus/viswhat_stim/water_animal-octopus.png,stimulus/viswhat_stim/land_animal-snake.png,stimulus/viswhat_stim/blank_white.png,stimulus/viswhat_stim/type_box.png,stimulus/viswhat_stim/type_yes.png,stimulus/viswhat_stim/type_no.png,None,Type,None,Type,1,0.0,0,5.125,0,5.125,0,5.125,0,0.0,0.625,0,0.0,0,0.0,1,0.5,1,2.125,0,0.0,0,0.0,0,0.0,0,0.0,0,,,,,0,58,58,58,,,,,,,,,524.256585166997,524.256585166997,524.256585166997,524.256585166997,524.256585166997,524.256585166997,524.256585166997,524.256585166997,524.2158925416642,524.256585166997,524.256585166997,524.256585166997,524.2158925416642,524.256585166997,524.256585166997,524.256585166997,526.3687457089982,530.3427192089985,524.256585166997,524.256585166997,529.4128533749972,524.722365374997,525.7470709169975,526.3687457089982,527.3984510419978,524.256585166997,524.256585166997,524.2325592083308,524.256585166997,524.256585166997,524.256585166997,524.2325592083308,524.256585166997,524.256585166997,529.4128533749972,524.256585166997,529.4128533749972,529.4641020419986,530.0988734169987,524.256585166997,1,1,0.8440419580037997,reldom2_s034,001,2025-03-13_15h49.11.606,What-A-Scan_AC,2022.2.5,None,
45,First_Order,8.0,viswhat,stimulus/viswhat_stim/blank_white.png,stimulus/viswhat_stim/blank_white.png,stimulus/viswhat_stim/land_vehicle-schoolbus.png,stimulus/viswhat_stim/land_animal-pig.png,stimulus/viswhat_stim/blank_white.png,stimulus/viswhat_stim/type_box.png,stimulus/viswhat_stim/type_yes.png,stimulus/viswhat_stim/type_no.png,None,Type,None,Location,2,0.0,0,5.125,0,5.125,0,5.125,0,0.0,0.625,0,0.0,0,0.0,1,0.5,1,2.125,0,0.0,0,0.0,0,0.0,0,0.0,0,,,,,0,59,59,59,,,,,,,,,530.3427192089985,530.3427192089985,530.3427192089985,530.3427192089985,530.3427192089985,530.3427192089985,530.3427192089985,530.3427192089985,530.3005228339986,530.3427192089985,530.3427192089985,530.3427192089985,530.3005228339986,530.3427192089985,530.3427192089985,530.3427192089985,532.4517375839969,536.4599367499977,530.3427192089985,530.3427192089985,535.4882227499984,530.8181780419982,531.8456582499966,532.4517375839969,533.4844432499995,530.3427192089985,530.3427192089985,530.3171895006652,530.3427192089985,530.3427192089985,530.3427192089985,530.3171895006652,530.3427192089985,530.3427192089985,535.4882227499984,530.3427192089985,535.4882227499984,535.5716246669981,536.2140757499983,530.3427192089985,2,1,1.680578666000656,reldom2_s034,001,2025-03-13_15h49.11.606,What-A-Scan_AC,2022.2.5,None,
46,First_Order,8.0,viswhat,stimulus/viswhat_stim/blank_white.png,stimulus/viswhat_stim/blank_white.png,stimulus/viswhat_stim/land_vehicle-oldcar.png,stimulus/viswhat_stim/water_vehicle-powercruiser.png,stimulus/viswhat_stim/blank_white.png,stimulus/viswhat_stim/location_box.png,stimulus/viswhat_stim/location_yes.png,stimulus/viswhat_stim/location_no.png,None,Location,None,Type,2,0.0,0,5.125,0,5.125,0,5.125,0,0.0,0.625,0,0.0,0,0.0,1,0.5,1,2.125,0,0.0,0,0.0,0,0.0,0,0.0,0,,,,,0,60,60,60,,,,,,,,,536.4599367499977,536.4599367499977,536.4599367499977,536.4599367499977,536.4599367499977,536.4599367499977,536.4599367499977,536.4599367499977,536.3961685839982,536.4599367499977,536.4599367499977,536.4599367499977,536.3961685839982,536.4599367499977,536.4599367499977,536.4599367499977,538.5594666249999,542.6098867499968,536.4599367499977,536.4599367499977,541.6037160839987,536.9114919999993,537.9429356250002,538.5594666249999,539.5909041669984,536.4599367499977,536.4599367499977,536.4295019173315,536.4599367499977,536.4599367499977,536.4599367499977,536.4295019173315,536.4599367499977,536.4599367499977,541.6037160839987,536.4599367499977,541.6037160839987,541.674697167,542.3499277089977,536.4599367499977,2,1,1.132765249003569,reldom2_s034,001,2025-03-13_15h49.11.606,What-A-Scan_AC,2022.2.5,None,
0,0.0,None,fixation,stimulus/audwhat_stim/blank_white.png,stimulus/audwhat_stim/blank_white.png,stimulus/viswhat_stim/blank_white.png,stimulus/viswhat_stim/blank_white.png,stimulus/audwhat_stim/blank_white.png,stimulus/audwhat_stim/blank_white.png,stimulus/audwhat_stim/blank_white.png,stimulus/audwhat_stim/blank_white.png,0.0,0.0,0.0,0.0,0,0.0,0,0.0,0,0.0,0,0.0,0,0.0,0.0,0,0.0,0,0.0,0,0.0,0,0.0,0,0.0,0,0.0,0,0.0,0,0.0,9,,,,,0,61,61,61,,,,,,,,,542.6098867499968,542.6098867499968,542.6098867499968,542.6098867499968,542.6098867499968,542.6098867499968,542.6098867499968,542.6098867499968,542.5186853333308,542.6098867499968,542.6098867499968,542.6098867499968,542.5186853333308,542.6098867499968,542.6098867499968,542.6098867499968,542.6098867499968,542.6098867499968,542.6098867499968,542.6098867499968,542.6098867499968,542.6098867499968,542.6098867499968,542.6098867499968,542.6098867499968,542.6098867499968,542.6098867499968,542.5686853333308,542.6098867499968,542.6098867499968,542.6098867499968,542.5686853333308,542.6098867499968,542.6098867499968,542.6098867499968,542.6098867499968,542.6098867499968,547.801181584,547.801181584,551.7994814589983,None,0,,reldom2_s034,001,2025-03-13_15h49.11.606,What-A-Scan_AC,2022.2.5,None,
47,Second_Order,8.0,viswhat,stimulus/viswhat_stim/water_animal-dolphin.png,stimulus/viswhat_stim/water_vehicle-cruiseship.png,stimulus/viswhat_stim/land_vehicle-oldcar.png,stimulus/viswhat_stim/land_animal-giraffe.png,stimulus/audwhat_stim/match_blank.png,stimulus/audwhat_stim/match_box.png,stimulus/audwhat_stim/match_yes.png,stimulus/audwhat_stim/match_no.png,1.0,Match,Location,Location,1,5.125,0,5.125,0,5.125,0,5.125,0,0.75,0.75,1,0.5,1,2.125,1,0.5,1,2.125,0,0.0,0,0.0,0,0.0,0,0.0,0,,,,,0,62,62,62,,,,,,,,,551.7994814589983,556.9208740419999,552.1908376669999,553.1787855000002,553.8258554589993,554.8152205839979,551.7994814589983,551.7994814589983,551.7986737089988,551.7994814589983,551.7994814589983,551.7994814589983,551.7986737089988,551.7994814589983,556.9208740419999,557.8097075419973,559.8624224999985,563.7966368749985,557.8097075419973,557.8097075419973,563.0393587090002,558.2077248749993,559.2670238749997,559.8624224999985,560.9237919169973,557.8097075419973,557.8097075419973,557.7548948339987,557.8097075419973,557.8097075419973,557.8097075419973,557.7548948339987,557.8097075419973,557.8097075419973,563.0393587090002,557.8097075419973,563.0393587090002,562.9784882919994,,557.8097075419973,1,1,1.0287245830004395,reldom2_s034,001,2025-03-13_15h49.11.606,What-A-Scan_AC,2022.2.5,None,
48,Second_Order,8.0,viswhat,stimulus/viswhat_stim/land_animal-ostrich.png,stimulus/viswhat_stim/water_animal-shark.png,stimulus/viswhat_stim/water_animal-whale.png,stimulus/viswhat_stim/water_vehicle-cargoboat.png,stimulus/audwhat_stim/match_blank.png,stimulus/audwhat_stim/match_box.png,stimulus/audwhat_stim/match_yes.png,stimulus/audwhat_stim/match_no.png,2.0,Match,Type,Location,2,5.125,0,5.125,0,5.125,0,5.125,0,0.625,0.625,1,0.5,1,2.125,1,0.5,1,2.125,0,0.0,0,0.0,0,0.0,0,0.0,0,,,,,0,63,63,63,,,,,,,,,563.7966368749985,568.9152077090002,564.2526795839985,565.2394376249977,565.8875705419996,566.8765800000001,563.7966368749985,563.7966368749985,563.7954337089999,563.7966368749985,563.7966368749985,563.7966368749985,563.7954337089999,563.7966368749985,568.9152077090002,569.6069842090001,571.6774294169991,,569.6069842090001,569.6069842090001,574.7398545420001,570.0585979169991,571.068919166999,571.6774294169991,572.6958913749986,569.6069842090001,569.6069842090001,569.5790287499992,569.6069842090001,569.6069842090001,569.6069842090001,569.5790287499992,569.6069842090001,569.6069842090001,574.7398545420001,569.6069842090001,574.7398545420001,574.8028133339976,575.4496117089984,569.6069842090001,2,1,0.711234542002785,reldom2_s034,001,2025-03-13_15h49.11.606,What-A-Scan_AC,2022.2.5,None,
0,0.0,None,fixation,stimulus/audwhat_stim/blank_white.png,stimulus/audwhat_stim/blank_white.png,stimulus/viswhat_stim/blank_white.png,stimulus/viswhat_stim/blank_white.png,stimulus/audwhat_stim/blank_white.png,stimulus/audwhat_stim/blank_white.png,stimulus/audwhat_stim/blank_white.png,stimulus/audwhat_stim/blank_white.png,0.0,0.0,0.0,0.0,0,0.0,0,0.0,0,0.0,0,0.0,0,0.0,0.0,0,0.0,0,0.0,0,0.0,0,0.0,0,0.0,0,0.0,0,0.0,0,0.0,16,,,,,0,64,64,64,,,,,,,,,575.7116719999976,575.7116719999976,575.7116719999976,575.7116719999976,575.7116719999976,575.7116719999976,575.7116719999976,575.7116719999976,575.6121854999998,575.7116719999976,575.7116719999976,575.7116719999976,575.6121854999998,575.7116719999976,575.7116719999976,575.7116719999976,575.7116719999976,575.7116719999976,575.7116719999976,575.7116719999976,575.7116719999976,575.7116719999976,575.7116719999976,575.7116719999976,575.7116719999976,575.7116719999976,575.7116719999976,575.6621854999997,575.7116719999976,575.7116719999976,575.7116719999976,575.6621854999997,575.7116719999976,575.7116719999976,575.7116719999976,575.7116719999976,575.7116719999976,580.9152484589977,580.9152484589977,591.8622751249968,None,0,,reldom2_s034,001,2025-03-13_15h49.11.606,What-A-Scan_AC,2022.2.5,None,
