Trial,Order,Block,Type,Stimuli_File1,Stimuli_File2,Stimuli_File3,Stimuli_File4,Cue_File1,Cue_File2,Response_File_Yes,Response_File_No,Match,Cue_Dimension,Pair1_Dimension,Pair2_Dimension,Key,Cue1_Duration,Cue1_Onset,Cue2_Duration,Cue2_Onset,ResponseYes_Duration,ResponseYes_Onset,ResponseNo_Duration,ResponseNo_Onset,ITI_Within,ITI_Between,Image1_Duration,Image1_Onset,Image2_Duration,Image2_Onset,Image3_Duration,Image3_Onset,Image4_Duration,Image4_Onset,Sound1_Duration,Sound1_Onset,Sound2_Duration,Sound2_Onset,Sound3_Duration,Sound3_Onset,Sound4_Duration,Sound4_Onset,Fixation_Duration,trials_2.thisRepN,trials_2.thisTrialN,trials_2.thisN,trials_2.thisIndex,trials.thisRepN,trials.thisTrialN,trials.thisN,trials.thisIndex,text_start.started,key_resp_start.started,key_resp_start.keys,key_resp_start.rt,text2.started,key_resp_2.started,key_resp_2.keys,key_resp_2.rt,cue_file1.started,cue_file1.stopped,image_1.started,image_1.stopped,image_2.started,image_2.stopped,sound_icon1.started,sound_icon1.stopped,sound_1.started,sound_1.stopped,sound_icon2.started,sound_icon2.stopped,sound_2.started,sound_2.stopped,image_blank_1.started,image_blank_1.stopped,key_press.started,key_press.stopped,fixation_text.started,cue_file2.started,cue_file2.stopped,image_3.started,image_3.stopped,image_4.started,image_4.stopped,sound_icon3.started,sound_icon3.stopped,sound_3.started,sound_3.stopped,sound_icon4.started,sound_icon4.stopped,sound_4.started,sound_4.stopped,response_yes.started,response_yes.stopped,response_no.started,response_no.stopped,iti_blank.started,iti_blank.stopped,fixation_text.stopped,key_press.keys,key_press.corr,key_press.rt,participant,session,date,expName,psychopyVersion,frameRate,
,,,,,,,,,,,,,,,,,,,,,,,,,,,,,,,,,,,,,,,,,,,,,,,,,,,,10.36776133299918,10.36776133299918,2,1.635014333000072,,,,,,,,,,,,,,,,,,,,,,,,,,,,,,,,,,,,,,,,,,,,,,,,reldom2_s009,001,2025-01-30_12h22.24.285,What-B-Scan_AC,2022.2.5,None,
,,,,,,,,,,,,,,,,,,,,,,,,,,,,,,,,,,,,,,,,,,,,0,0,0,0,,,,,,,,,12.032808582999678,12.032808582999678,5,17.96389870800067,,,,,,,,,,,,,,,,,,,,,,,,,,,,,,,,,,,,,,,,,,,,reldom2_s009,001,2025-01-30_12h22.24.285,What-B-Scan_AC,2022.2.5,None,
,,,,,,,,,,,,,,,,,,,,,,,,,,,,,,,,,,,,,,,,,,,,1,0,1,0,,,,,,,,,30.011299666999548,30.011299666999548,5,1.9872657920004713,,,,,,,,,,,,,,,,,,,,,,,,,,,,,,,,,,,,,,,,,,,,reldom2_s009,001,2025-01-30_12h22.24.285,What-B-Scan_AC,2022.2.5,None,
,,,,,,,,,,,,,,,,,,,,,,,,,,,,,,,,,,,,,,,,,,,,2,0,2,0,,,,,,,,,32.01546841699928,32.01546841699928,5,1.9829689990001498,,,,,,,,,,,,,,,,,,,,,,,,,,,,,,,,,,,,,,,,,,,,reldom2_s009,001,2025-01-30_12h22.24.285,What-B-Scan_AC,2022.2.5,None,
,,,,,,,,,,,,,,,,,,,,,,,,,,,,,,,,,,,,,,,,,,,,3,0,3,0,,,,,,,,,34.00809662499978,34.00809662499978,5,1.989169958000275,,,,,,,,,,,,,,,,,,,,,,,,,,,,,,,,,,,,,,,,,,,,reldom2_s009,001,2025-01-30_12h22.24.285,What-B-Scan_AC,2022.2.5,None,
0,0.0,None,fixation,stimulus/viswhat_stim/blank_white.png,stimulus/viswhat_stim/blank_white.png,stimulus/audwhat_stim/blank_white.png,stimulus/audwhat_stim/blank_white.png,stimulus/viswhat_stim/blank_white.png,stimulus/viswhat_stim/blank_white.png,stimulus/viswhat_stim/blank_white.png,stimulus/viswhat_stim/blank_white.png,0.0,0.0,0.0,0.0,0,0.0,0,0.0,0,0.0,0,0.0,0,0.0,0.0,0,0.0,0,0.0,0,0.0,0,0.0,0,0.0,0,0.0,0,0.0,0,0.0,16,,,,,0,0,0,0,,,,,,,,,36.212476707999485,36.212476707999485,36.212476707999485,36.212476707999485,36.212476707999485,36.212476707999485,36.212476707999485,36.212476707999485,36.10596112499989,36.212476707999485,36.212476707999485,36.212476707999485,36.10596112499989,36.212476707999485,36.212476707999485,36.212476707999485,36.212476707999485,36.212476707999485,36.212476707999485,36.212476707999485,36.212476707999485,36.212476707999485,36.212476707999485,36.212476707999485,36.212476707999485,36.212476707999485,36.212476707999485,36.155961124999884,36.212476707999485,36.212476707999485,36.212476707999485,36.155961124999884,36.212476707999485,36.212476707999485,36.212476707999485,36.212476707999485,36.212476707999485,41.39296254199962,41.39296254199962,52.6846855419999,None,0,,reldom2_s009,001,2025-01-30_12h22.24.285,What-B-Scan_AC,2022.2.5,None,
1,First_Order,1.0,viswhat,stimulus/viswhat_stim/blank_white.png,stimulus/viswhat_stim/blank_white.png,stimulus/viswhat_stim/water_vehicle-pirateship.png,stimulus/viswhat_stim/water_animal-lobster.png,stimulus/viswhat_stim/blank_white.png,stimulus/viswhat_stim/location_box.png,stimulus/viswhat_stim/location_yes.png,stimulus/viswhat_stim/location_no.png,None,Location,None,Location,1,0.0,0,5.125,0,5.125,0,5.125,0,0.0,0.625,0,0.0,0,0.0,1,0.5,1,2.125,0,0.0,0,0.0,0,0.0,0,0.0,0,,,,,0,1,1,1,,,,,,,,,52.6846855419999,52.6846855419999,52.6846855419999,52.6846855419999,52.6846855419999,52.6846855419999,52.6846855419999,52.6846855419999,52.38044891699919,52.6846855419999,52.6846855419999,52.6846855419999,52.38044891699919,52.6846855419999,52.6846855419999,52.6846855419999,54.769229042000006,,52.6846855419999,52.6846855419999,58.05606958299995,53.13014308299989,54.324041957999725,54.769229042000006,55.96254966699962,52.6846855419999,52.6846855419999,52.54711558366586,52.6846855419999,52.6846855419999,52.6846855419999,52.54711558366586,52.6846855419999,52.6846855419999,58.05606958299995,52.6846855419999,58.05606958299995,57.76041158299995,,52.6846855419999,1,1,1.0986291670005812,reldom2_s009,001,2025-01-30_12h22.24.285,What-B-Scan_AC,2022.2.5,None,
2,First_Order,1.0,viswhat,stimulus/viswhat_stim/blank_white.png,stimulus/viswhat_stim/blank_white.png,stimulus/viswhat_stim/land_vehicle-firetruck.png,stimulus/viswhat_stim/water_vehicle-jetski.png,stimulus/viswhat_stim/blank_white.png,stimulus/viswhat_stim/location_box.png,stimulus/viswhat_stim/location_yes.png,stimulus/viswhat_stim/location_no.png,None,Location,None,Type,2,0.0,0,5.125,0,5.125,0,5.125,0,0.0,0.625,0,0.0,0,0.0,1,0.5,1,2.125,0,0.0,0,0.0,0,0.0,0,0.0,0,,,,,0,2,2,2,,,,,,,,,58.727410666999276,58.727410666999276,58.727410666999276,58.727410666999276,58.727410666999276,58.727410666999276,58.727410666999276,58.727410666999276,58.69463437499926,58.727410666999276,58.727410666999276,58.727410666999276,58.69463437499926,58.727410666999276,58.727410666999276,58.727410666999276,60.8220953329992,64.869643,58.727410666999276,58.727410666999276,63.87499774999924,59.20047712499945,60.22560254199925,60.8220953329992,61.849286207999285,58.727410666999276,58.727410666999276,58.71130104166593,58.727410666999276,58.727410666999276,58.727410666999276,58.71130104166593,58.727410666999276,58.727410666999276,63.87499774999924,58.727410666999276,63.87499774999924,63.95225458299956,64.58764262499972,58.727410666999276,2,1,1.460023125000589,reldom2_s009,001,2025-01-30_12h22.24.285,What-B-Scan_AC,2022.2.5,None,
3,First_Order,1.0,viswhat,stimulus/viswhat_stim/blank_white.png,stimulus/viswhat_stim/blank_white.png,stimulus/viswhat_stim/land_animal-moose.png,stimulus/viswhat_stim/water_animal-jellyfish.png,stimulus/viswhat_stim/blank_white.png,stimulus/viswhat_stim/type_box.png,stimulus/viswhat_stim/type_yes.png,stimulus/viswhat_stim/type_no.png,None,Type,None,Type,1,0.0,0,5.125,0,5.125,0,5.125,0,0.0,0.625,0,0.0,0,0.0,1,0.5,1,2.125,0,0.0,0,0.0,0,0.0,0,0.0,0,,,,,0,3,3,3,,,,,,,,,64.869643,64.869643,64.869643,64.869643,64.869643,64.869643,64.869643,64.869643,64.76454291699937,64.869643,64.869643,64.869643,64.76454291699937,64.869643,64.869643,64.869643,66.93493891699927,70.97556470799918,64.869643,64.869643,70.09047641699999,65.2949887499999,66.38977587499994,66.93493891699927,68.03188608299934,64.869643,64.869643,64.81454291699939,64.869643,64.869643,64.869643,64.81454291699939,64.869643,64.869643,70.09047641699999,64.869643,70.09047641699999,70.09047641699999,70.75265708299958,64.869643,1,1,0.8923242500004562,reldom2_s009,001,2025-01-30_12h22.24.285,What-B-Scan_AC,2022.2.5,None,
4,First_Order,1.0,viswhat,stimulus/viswhat_stim/blank_white.png,stimulus/viswhat_stim/blank_white.png,stimulus/viswhat_stim/land_animal-tiger.png,stimulus/viswhat_stim/land_vehicle-rv.png,stimulus/viswhat_stim/blank_white.png,stimulus/viswhat_stim/type_box.png,stimulus/viswhat_stim/type_yes.png,stimulus/viswhat_stim/type_no.png,None,Type,None,Location,2,0.0,0,5.125,0,5.125,0,5.125,0,0.0,0.625,0,0.0,0,0.0,1,0.5,1,2.125,0,0.0,0,0.0,0,0.0,0,0.0,0,,,,,0,4,4,4,,,,,,,,,70.97556470799918,70.97556470799918,70.97556470799918,70.97556470799918,70.97556470799918,70.97556470799918,70.97556470799918,70.97556470799918,70.91932374966625,70.97556470799918,70.97556470799918,70.97556470799918,70.91932374966625,70.97556470799918,70.97556470799918,70.97556470799918,73.08712929199919,77.13200679199963,70.97556470799918,70.97556470799918,76.11305979199915,71.43134470799941,72.45430949999991,73.08712929199919,74.11021270799938,70.97556470799918,70.97556470799918,70.95265708299958,70.97556470799918,70.97556470799918,70.97556470799918,70.95265708299958,70.97556470799918,70.97556470799918,76.11305979199915,70.97556470799918,76.11305979199915,76.20199516699995,76.85094320799999,70.97556470799918,2,1,1.346334917000604,reldom2_s009,001,2025-01-30_12h22.24.285,What-B-Scan_AC,2022.2.5,None,
0,0.0,None,fixation,stimulus/viswhat_stim/blank_white.png,stimulus/viswhat_stim/blank_white.png,stimulus/audwhat_stim/blank_white.png,stimulus/audwhat_stim/blank_white.png,stimulus/viswhat_stim/blank_white.png,stimulus/viswhat_stim/blank_white.png,stimulus/viswhat_stim/blank_white.png,stimulus/viswhat_stim/blank_white.png,0.0,0.0,0.0,0.0,0,0.0,0,0.0,0,0.0,0,0.0,0,0.0,0.0,0,0.0,0,0.0,0,0.0,0,0.0,0,0.0,0,0.0,0,0.0,0,0.0,9,,,,,0,5,5,5,,,,,,,,,77.13200679199963,77.13200679199963,77.13200679199963,77.13200679199963,77.13200679199963,77.13200679199963,77.13200679199963,77.13200679199963,77.0263566246666,77.13200679199963,77.13200679199963,77.13200679199963,77.0263566246666,77.13200679199963,77.13200679199963,77.13200679199963,77.13200679199963,77.13200679199963,77.13200679199963,77.13200679199963,77.13200679199963,77.13200679199963,77.13200679199963,77.13200679199963,77.13200679199963,77.13200679199963,77.13200679199963,77.07635662466662,77.13200679199963,77.13200679199963,77.13200679199963,77.07635662466662,77.13200679199963,77.13200679199963,77.13200679199963,77.13200679199963,77.13200679199963,82.35725033299968,82.35725033299968,86.28627266699914,None,0,,reldom2_s009,001,2025-01-30_12h22.24.285,What-B-Scan_AC,2022.2.5,None,
5,Second_Order,1.0,viswhat,stimulus/viswhat_stim/land_animal-bunny.png,stimulus/viswhat_stim/land_vehicle-motorcycle.png,stimulus/viswhat_stim/water_animal-octopus.png,stimulus/viswhat_stim/land_animal-fox.png,stimulus/viswhat_stim/match_blank.png,stimulus/viswhat_stim/match_box.png,stimulus/viswhat_stim/match_yes.png,stimulus/viswhat_stim/match_no.png,2.0,Match,Location,Type,2,5.125,0,5.125,0,5.125,0,5.125,0,0.75,0.75,1,0.5,1,2.125,1,0.5,1,2.125,0,0.0,0,0.0,0,0.0,0,0.0,0,,,,,0,6,6,6,,,,,,,,,86.28627266699914,91.40543904199967,86.726585333,87.72469249999995,88.34790212499956,89.34535762499945,86.28627266699914,86.28627266699914,86.29229858366641,86.28627266699914,86.28627266699914,86.28627266699914,86.29229858366641,86.28627266699914,91.40543904199967,92.20975941699999,94.29775491699911,98.19407370799945,92.20975941699999,92.20975941699999,97.34369991699987,92.6843303329997,93.72737737499938,94.29775491699911,95.31405233299938,92.20975941699999,92.20975941699999,92.18884366699949,92.20975941699999,92.20975941699999,92.20975941699999,92.18884366699949,92.20975941699999,92.20975941699999,97.34369991699987,92.20975941699999,97.34369991699987,97.42177199999969,,92.20975941699999,2,1,1.2857546250006635,reldom2_s009,001,2025-01-30_12h22.24.285,What-B-Scan_AC,2022.2.5,None,
6,Second_Order,1.0,viswhat,stimulus/viswhat_stim/land_vehicle-tank.png,stimulus/viswhat_stim/land_animal-wolf.png,stimulus/viswhat_stim/water_vehicle-motorboatraft.png,stimulus/viswhat_stim/water_animal-squid.png,stimulus/viswhat_stim/match_blank.png,stimulus/viswhat_stim/match_box.png,stimulus/viswhat_stim/match_yes.png,stimulus/viswhat_stim/match_no.png,1.0,Match,Location,Location,1,5.125,0,5.125,0,5.125,0,5.125,0,0.625,0.625,1,0.5,1,2.125,1,0.5,1,2.125,0,0.0,0,0.0,0,0.0,0,0.0,0,,,,,0,7,7,7,,,,,,,,,98.19407370799945,103.3150890829993,98.67064524999932,99.66899295799976,100.29329166699972,101.28968895799972,98.19407370799945,98.19407370799945,98.19359791666653,98.19407370799945,98.19407370799945,98.19407370799945,98.19359791666653,98.19407370799945,103.3150890829993,103.99621495799965,106.09568933299943,110.13619108299918,103.99621495799965,103.99621495799965,109.1760044169996,104.4461162079997,105.46530749999965,106.09568933299943,107.1225999999997,103.99621495799965,103.99621495799965,103.97883324999911,103.99621495799965,103.99621495799965,103.99621495799965,103.97883324999911,103.99621495799965,103.99621495799965,109.1760044169996,103.99621495799965,109.1760044169996,109.20055899999988,109.85466666699995,103.99621495799965,1,1,1.0367620000006355,reldom2_s009,001,2025-01-30_12h22.24.285,What-B-Scan_AC,2022.2.5,None,
0,0.0,None,fixation,stimulus/viswhat_stim/blank_white.png,stimulus/viswhat_stim/blank_white.png,stimulus/audwhat_stim/blank_white.png,stimulus/audwhat_stim/blank_white.png,stimulus/viswhat_stim/blank_white.png,stimulus/viswhat_stim/blank_white.png,stimulus/viswhat_stim/blank_white.png,stimulus/viswhat_stim/blank_white.png,0.0,0.0,0.0,0.0,0,0.0,0,0.0,0,0.0,0,0.0,0,0.0,0.0,0,0.0,0,0.0,0,0.0,0,0.0,0,0.0,0,0.0,0,0.0,0,0.0,9,,,,,0,8,8,8,,,,,,,,,110.13619108299918,110.13619108299918,110.13619108299918,110.13619108299918,110.13619108299918,110.13619108299918,110.13619108299918,110.13619108299918,110.02721837499993,110.13619108299918,110.13619108299918,110.13619108299918,110.02721837499993,110.13619108299918,110.13619108299918,110.13619108299918,110.13619108299918,110.13619108299918,110.13619108299918,110.13619108299918,110.13619108299918,110.13619108299918,110.13619108299918,110.13619108299918,110.13619108299918,110.13619108299918,110.13619108299918,110.09388504166661,110.13619108299918,110.13619108299918,110.13619108299918,110.09388504166661,110.13619108299918,110.13619108299918,110.13619108299918,110.13619108299918,110.13619108299918,115.35200158299995,115.35200158299995,119.58364899999924,None,0,,reldom2_s009,001,2025-01-30_12h22.24.285,What-B-Scan_AC,2022.2.5,None,
7,First_Order,2.0,viswhat,stimulus/viswhat_stim/blank_white.png,stimulus/viswhat_stim/blank_white.png,stimulus/viswhat_stim/water_animal-lobster.png,stimulus/viswhat_stim/water_vehicle-canoe.png,stimulus/viswhat_stim/blank_white.png,stimulus/viswhat_stim/location_box.png,stimulus/viswhat_stim/location_yes.png,stimulus/viswhat_stim/location_no.png,None,Location,None,Location,1,0.0,0,5.125,0,5.125,0,5.125,0,0.0,0.625,0,0.0,0,0.0,1,0.5,1,2.125,0,0.0,0,0.0,0,0.0,0,0.0,0,,,,,0,9,9,9,,,,,,,,,119.58364899999924,119.58364899999924,119.58364899999924,119.58364899999924,119.58364899999924,119.58364899999924,119.58364899999924,119.58364899999924,119.29112058366597,119.58364899999924,119.58364899999924,119.58364899999924,119.29112058366597,119.58364899999924,119.58364899999924,119.58364899999924,121.55812554199929,,119.58364899999924,119.58364899999924,124.90691887499997,120.04032124999958,121.25479454199922,121.55812554199929,122.77944399999978,119.58364899999924,119.58364899999924,119.44112058366596,119.58364899999924,119.58364899999924,119.58364899999924,119.44112058366596,119.58364899999924,119.58364899999924,124.90691887499997,119.58364899999924,124.90691887499997,124.76070649999929,,119.58364899999924,1,1,0.9512139990001742,reldom2_s009,001,2025-01-30_12h22.24.285,What-B-Scan_AC,2022.2.5,None,
8,First_Order,2.0,viswhat,stimulus/viswhat_stim/blank_white.png,stimulus/viswhat_stim/blank_white.png,stimulus/viswhat_stim/water_animal-jellyfish.png,stimulus/viswhat_stim/land_animal-bunny.png,stimulus/viswhat_stim/blank_white.png,stimulus/viswhat_stim/type_box.png,stimulus/viswhat_stim/type_yes.png,stimulus/viswhat_stim/type_no.png,None,Type,None,Type,1,0.0,0,5.125,0,5.125,0,5.125,0,0.0,0.625,0,0.0,0,0.0,1,0.5,1,2.125,0,0.0,0,0.0,0,0.0,0,0.0,0,,,,,0,10,10,10,,,,,,,,,125.64255162499921,125.64255162499921,125.64255162499921,125.64255162499921,125.64255162499921,125.64255162499921,125.64255162499921,125.64255162499921,125.5493832499993,125.64255162499921,125.64255162499921,125.64255162499921,125.5493832499993,125.64255162499921,125.64255162499921,125.64255162499921,127.71071279199987,,125.64255162499921,125.64255162499921,130.83835499999986,126.12063170799956,127.1812145419999,127.71071279199987,128.77552316699985,125.64255162499921,125.64255162499921,125.5993832499993,125.64255162499921,125.64255162499921,125.64255162499921,125.5993832499993,125.64255162499921,125.64255162499921,130.83835499999986,125.64255162499921,130.83835499999986,130.83835499999986,131.5005240419996,125.64255162499921,1,1,0.8265214580005704,reldom2_s009,001,2025-01-30_12h22.24.285,What-B-Scan_AC,2022.2.5,None,
9,First_Order,2.0,viswhat,stimulus/viswhat_stim/blank_white.png,stimulus/viswhat_stim/blank_white.png,stimulus/viswhat_stim/land_animal-cat.png,stimulus/viswhat_stim/water_animal-whale (1).png,stimulus/viswhat_stim/blank_white.png,stimulus/viswhat_stim/location_box.png,stimulus/viswhat_stim/location_yes.png,stimulus/viswhat_stim/location_no.png,None,Location,None,Type,2,0.0,0,5.125,0,5.125,0,5.125,0,0.0,0.625,0,0.0,0,0.0,1,0.5,1,2.125,0,0.0,0,0.0,0,0.0,0,0.0,0,,,,,0,11,11,11,,,,,,,,,131.705192292,131.705192292,131.705192292,131.705192292,131.705192292,131.705192292,131.705192292,131.705192292,131.6505240419996,131.705192292,131.705192292,131.705192292,131.6505240419996,131.705192292,131.705192292,131.705192292,133.79336612499992,137.82798016699962,131.705192292,131.705192292,136.86392154199984,132.16590279199954,133.20841687499978,133.79336612499992,134.8085081249992,131.705192292,131.705192292,131.68385737533293,131.705192292,131.705192292,131.705192292,131.68385737533293,131.705192292,131.705192292,136.86392154199984,131.705192292,136.86392154199984,136.91771058299946,137.56113491699944,131.705192292,2,1,1.095071665999967,reldom2_s009,001,2025-01-30_12h22.24.285,What-B-Scan_AC,2022.2.5,None,
10,First_Order,2.0,viswhat,stimulus/viswhat_stim/blank_white.png,stimulus/viswhat_stim/blank_white.png,stimulus/viswhat_stim/water_animal-shark.png,stimulus/viswhat_stim/water_vehicle-yacht.png,stimulus/viswhat_stim/blank_white.png,stimulus/viswhat_stim/type_box.png,stimulus/viswhat_stim/type_yes.png,stimulus/viswhat_stim/type_no.png,None,Type,None,Location,2,0.0,0,5.125,0,5.125,0,5.125,0,0.0,0.625,0,0.0,0,0.0,1,0.5,1,2.125,0,0.0,0,0.0,0,0.0,0,0.0,0,,,,,0,12,12,12,,,,,,,,,137.82798016699962,137.82798016699962,137.82798016699962,137.82798016699962,137.82798016699962,137.82798016699962,137.82798016699962,137.82798016699962,137.75753224966581,137.82798016699962,137.82798016699962,137.82798016699962,137.75753224966581,137.82798016699962,137.82798016699962,137.82798016699962,139.9163526249995,143.9623166249994,137.82798016699962,137.82798016699962,143.00849633299913,138.307086625,139.35196516699943,139.9163526249995,140.96645895799975,137.82798016699962,137.82798016699962,137.79086558299915,137.82798016699962,137.82798016699962,137.82798016699962,137.79086558299915,137.82798016699962,137.82798016699962,143.00849633299913,137.82798016699962,143.00849633299913,143.04650474999926,143.72622199999932,137.82798016699962,2,1,1.76798587400026,reldom2_s009,001,2025-01-30_12h22.24.285,What-B-Scan_AC,2022.2.5,None,
0,0.0,None,fixation,stimulus/viswhat_stim/blank_white.png,stimulus/viswhat_stim/blank_white.png,stimulus/audwhat_stim/blank_white.png,stimulus/audwhat_stim/blank_white.png,stimulus/viswhat_stim/blank_white.png,stimulus/viswhat_stim/blank_white.png,stimulus/viswhat_stim/blank_white.png,stimulus/viswhat_stim/blank_white.png,0.0,0.0,0.0,0.0,0,0.0,0,0.0,0,0.0,0,0.0,0,0.0,0.0,0,0.0,0,0.0,0,0.0,0,0.0,0,0.0,0,0.0,0,0.0,0,0.0,10,,,,,0,13,13,13,,,,,,,,,143.9623166249994,143.9623166249994,143.9623166249994,143.9623166249994,143.9623166249994,143.9623166249994,143.9623166249994,143.9623166249994,143.85955533333268,143.9623166249994,143.9623166249994,143.9623166249994,143.85955533333268,143.9623166249994,143.9623166249994,143.9623166249994,143.9623166249994,143.9623166249994,143.9623166249994,143.9623166249994,143.9623166249994,143.9623166249994,143.9623166249994,143.9623166249994,143.9623166249994,143.9623166249994,143.9623166249994,143.90955533333266,143.9623166249994,143.9623166249994,143.9623166249994,143.90955533333266,143.9623166249994,143.9623166249994,143.9623166249994,143.9623166249994,143.9623166249994,149.18121445799989,149.18121445799989,154.08385779199943,None,0,,reldom2_s009,001,2025-01-30_12h22.24.285,What-B-Scan_AC,2022.2.5,None,
11,Second_Order,2.0,viswhat,stimulus/viswhat_stim/land_animal-ostrich.png,stimulus/viswhat_stim/water_animal-stingray.png,stimulus/viswhat_stim/water_vehicle-cruiseship.png,stimulus/viswhat_stim/water_animal-seaturtle.png,stimulus/viswhat_stim/match_blank.png,stimulus/viswhat_stim/match_box.png,stimulus/viswhat_stim/match_yes.png,stimulus/viswhat_stim/match_no.png,2.0,Match,Type,Location,2,5.125,0,5.125,0,5.125,0,5.125,0,0.75,0.75,1,0.5,1,2.125,1,0.5,1,2.125,0,0.0,0,0.0,0,0.0,0,0.0,0,,,,,0,14,14,14,,,,,,,,,154.08385779199943,159.20706312499988,154.54954183299924,155.54804499999955,156.18773324999984,157.18523337499937,154.08385779199943,154.08385779199943,154.08983495833323,154.08385779199943,154.08385779199943,154.08385779199943,154.08983495833323,154.08385779199943,159.20706312499988,160.17320929199923,162.22562879199995,,160.17320929199923,160.17320929199923,165.4046419999995,160.583257667,161.7115532079997,162.22562879199995,163.35781970799962,160.17320929199923,160.17320929199923,160.07484883333305,160.17320929199923,160.17320929199923,160.17320929199923,160.07484883333305,160.17320929199923,160.17320929199923,165.4046419999995,160.17320929199923,165.4046419999995,165.30832420799925,,160.17320929199923,2,1,1.1753977910002504,reldom2_s009,001,2025-01-30_12h22.24.285,What-B-Scan_AC,2022.2.5,None,
12,Second_Order,2.0,viswhat,stimulus/viswhat_stim/land_animal-ostrich.png,stimulus/viswhat_stim/land_vehicle-oldcar.png,stimulus/viswhat_stim/water_vehicle-ship.png,stimulus/viswhat_stim/land_vehicle-vespa.png,stimulus/viswhat_stim/match_blank.png,stimulus/viswhat_stim/match_box.png,stimulus/viswhat_stim/match_yes.png,stimulus/viswhat_stim/match_no.png,2.0,Match,Location,Type,2,5.125,0,5.125,0,5.125,0,5.125,0,0.625,0.625,1,0.5,1,2.125,1,0.5,1,2.125,0,0.0,0,0.0,0,0.0,0,0.0,0,,,,,0,15,15,15,,,,,,,,,166.1184482079998,171.24072374999923,166.57764033299918,167.57598195799983,168.19867849999991,169.19640637499924,166.1184482079998,166.1184482079998,166.12068158333273,166.1184482079998,166.1184482079998,166.1184482079998,166.12068158333273,166.1184482079998,171.24072374999923,172.00405112499993,174.08889074999934,,172.00405112499993,172.00405112499993,177.2209504579996,172.42061895799998,173.53180449999945,174.08889074999934,175.20292016699932,172.00405112499993,172.00405112499993,171.93540533333302,172.00405112499993,172.00405112499993,172.00405112499993,171.93540533333302,172.00405112499993,172.00405112499993,177.2209504579996,172.00405112499993,177.2209504579996,177.15727549999974,178.08464320799976,172.00405112499993,2,1,1.0852830830008315,reldom2_s009,001,2025-01-30_12h22.24.285,What-B-Scan_AC,2022.2.5,None,
0,0.0,None,fixation,stimulus/viswhat_stim/blank_white.png,stimulus/viswhat_stim/blank_white.png,stimulus/audwhat_stim/blank_white.png,stimulus/audwhat_stim/blank_white.png,stimulus/viswhat_stim/blank_white.png,stimulus/viswhat_stim/blank_white.png,stimulus/viswhat_stim/blank_white.png,stimulus/viswhat_stim/blank_white.png,0.0,0.0,0.0,0.0,0,0.0,0,0.0,0,0.0,0,0.0,0,0.0,0.0,0,0.0,0,0.0,0,0.0,0,0.0,0,0.0,0,0.0,0,0.0,0,0.0,9,,,,,0,16,16,16,,,,,,,,,178.08464320799976,178.08464320799976,178.08464320799976,178.08464320799976,178.08464320799976,178.08464320799976,178.08464320799976,178.08464320799976,177.97877408333255,178.08464320799976,178.08464320799976,178.08464320799976,177.97877408333255,178.08464320799976,178.08464320799976,178.08464320799976,178.08464320799976,178.08464320799976,178.08464320799976,178.08464320799976,178.08464320799976,178.08464320799976,178.08464320799976,178.08464320799976,178.08464320799976,178.08464320799976,178.08464320799976,178.02877408333256,178.08464320799976,178.08464320799976,178.08464320799976,178.02877408333256,178.08464320799976,178.08464320799976,178.08464320799976,178.08464320799976,178.08464320799976,183.28700316699997,183.28700316699997,187.32656387499992,None,0,,reldom2_s009,001,2025-01-30_12h22.24.285,What-B-Scan_AC,2022.2.5,None,
13,First_Order,3.0,audwhat,stimulus/audwhat_stim/dummy.wav,stimulus/audwhat_stim/dummy.wav,stimulus/audwhat_stim/percussion mallet_low-pitch_Ftri_loud.wav,stimulus/audwhat_stim/percussion xylophone_high-pitch_Dtri_loud.wav,stimulus/audwhat_stim/blank_white.png,stimulus/audwhat_stim/pitch_box.png,stimulus/audwhat_stim/pitch_yes.png,stimulus/audwhat_stim/pitch_no.png,None,Pitch,None,Category,2,0.0,0,5.125,0,5.125,0,5.125,0,0.0,0.625,0,0.0,0,0.0,0,0.0,0,0.0,0,0.0,0,0.0,1,0.5,1,2.125,0,,,,,0,17,17,17,,,,,,,,,187.32656387499992,187.32656387499992,187.32656387499992,187.32656387499992,187.32656387499992,187.32656387499992,187.32656387499992,187.32656387499992,187.24449533366595,187.32656387499992,187.32656387499992,187.32656387499992,187.24449533366595,187.32656387499992,187.32656387499992,187.32656387499992,189.40007220799998,,187.32656387499992,187.32656387499992,192.5142365419997,187.32656387499992,187.32656387499992,187.32656387499992,187.32656387499992,187.79931679199944,188.83426774999953,187.7686384996662,,189.40007220799998,190.44569499999943,189.36983004166657,190.44569499999943,187.32656387499992,192.5142365419997,187.32656387499992,192.5142365419997,192.5142365419997,193.1764011669993,187.32656387499992,2,1,0.9230931250003778,reldom2_s009,001,2025-01-30_12h22.24.285,What-B-Scan_AC,2022.2.5,None,
14,First_Order,3.0,audwhat,stimulus/audwhat_stim/dummy.wav,stimulus/audwhat_stim/dummy.wav,stimulus/audwhat_stim/string cello_low-pitch_D_loud.wav,stimulus/audwhat_stim/percussion mallet_low-pitch_D_loud.wav,stimulus/audwhat_stim/blank_white.png,stimulus/audwhat_stim/pitch_box.png,stimulus/audwhat_stim/pitch_yes.png,stimulus/audwhat_stim/pitch_no.png,None,Pitch,None,Pitch,1,0.0,0,5.125,0,5.125,0,5.125,0,0.0,0.625,0,0.0,0,0.0,0,0.0,0,0.0,0,0.0,0,0.0,1,0.5,1,2.125,0,,,,,0,18,18,18,,,,,,,,,193.43710841699976,193.43710841699976,193.43710841699976,193.43710841699976,193.43710841699976,193.43710841699976,193.43710841699976,193.43710841699976,193.35128612533313,193.43710841699976,193.43710841699976,193.43710841699976,193.35128612533313,193.43710841699976,193.43710841699976,193.43710841699976,195.5159565419999,,193.43710841699976,193.43710841699976,198.62623483299922,193.43710841699976,193.43710841699976,193.43710841699976,193.43710841699976,193.91017462499985,194.94980462499916,193.8785893336665,,195.5159565419999,196.55691341699912,195.48492887466662,,193.43710841699976,198.62623483299922,193.43710841699976,198.62623483299922,198.62623483299922,199.29050512499998,193.43710841699976,1,1,0.5113912500009974,reldom2_s009,001,2025-01-30_12h22.24.285,What-B-Scan_AC,2022.2.5,None,
15,First_Order,3.0,audwhat,stimulus/audwhat_stim/dummy.wav,stimulus/audwhat_stim/dummy.wav,stimulus/audwhat_stim/string cello_high-pitch_D_loud.wav,stimulus/audwhat_stim/string cello_low-pitch_Ftri_loud.wav,stimulus/audwhat_stim/blank_white.png,stimulus/audwhat_stim/category_box.png,stimulus/audwhat_stim/category_yes.png,stimulus/audwhat_stim/category_no.png,None,Category,None,Category,1,0.0,0,5.125,0,5.125,0,5.125,0,0.0,0.625,0,0.0,0,0.0,0,0.0,0,0.0,0,0.0,0,0.0,1,0.5,1,2.125,0,,,,,0,19,19,19,,,,,,,,,199.55274483299945,199.55274483299945,199.55274483299945,199.55274483299945,199.55274483299945,199.55274483299945,199.55274483299945,199.55274483299945,199.46522391633258,199.55274483299945,199.55274483299945,199.55274483299945,199.46522391633258,199.55274483299945,199.55274483299945,199.55274483299945,201.64052991699918,,199.55274483299945,199.55274483299945,204.71938695799963,199.55274483299945,199.55274483299945,199.55274483299945,199.55274483299945,200.02824949999922,201.07317224999952,199.99590033366647,,201.64052991699918,202.68551608299913,201.60978212466605,,199.55274483299945,204.71938695799963,199.55274483299945,204.71938695799963,204.76119449999987,205.42695712499972,199.55274483299945,1,1,1.194837333000578,reldom2_s009,001,2025-01-30_12h22.24.285,What-B-Scan_AC,2022.2.5,None,
16,First_Order,3.0,audwhat,stimulus/audwhat_stim/dummy.wav,stimulus/audwhat_stim/dummy.wav,stimulus/audwhat_stim/string viola_low-pitch_F_loud.wav,stimulus/audwhat_stim/percussion mallet_low-pitch_F_loud.wav,stimulus/audwhat_stim/blank_white.png,stimulus/audwhat_stim/category_box.png,stimulus/audwhat_stim/category_yes.png,stimulus/audwhat_stim/category_no.png,None,Category,None,Pitch,2,0.0,0,5.125,0,5.125,0,5.125,0,0.0,0.625,0,0.0,0,0.0,0,0.0,0,0.0,0,0.0,0,0.0,1,0.5,1,2.125,0,,,,,0,20,20,20,,,,,,,,,205.6467890419999,205.6467890419999,205.6467890419999,205.6467890419999,205.6467890419999,205.6467890419999,205.6467890419999,205.6467890419999,205.56029045833307,205.6467890419999,205.6467890419999,205.6467890419999,205.56029045833307,205.6467890419999,205.6467890419999,205.6467890419999,207.73100599999998,,205.6467890419999,205.6467890419999,210.80989945799956,205.6467890419999,205.6467890419999,205.6467890419999,205.6467890419999,206.1218712079999,207.16458612499991,206.09082183366652,,207.73100599999998,208.77706908299933,207.70068845866652,,205.6467890419999,210.80989945799956,205.6467890419999,210.80989945799956,210.85159737499998,211.51890624999942,205.6467890419999,2,1,0.8538082080003733,reldom2_s009,001,2025-01-30_12h22.24.285,What-B-Scan_AC,2022.2.5,None,
0,0.0,None,fixation,stimulus/viswhat_stim/blank_white.png,stimulus/viswhat_stim/blank_white.png,stimulus/audwhat_stim/blank_white.png,stimulus/audwhat_stim/blank_white.png,stimulus/viswhat_stim/blank_white.png,stimulus/viswhat_stim/blank_white.png,stimulus/viswhat_stim/blank_white.png,stimulus/viswhat_stim/blank_white.png,0.0,0.0,0.0,0.0,0,0.0,0,0.0,0,0.0,0,0.0,0,0.0,0.0,0,0.0,0,0.0,0,0.0,0,0.0,0,0.0,0,0.0,0,0.0,0,0.0,9,,,,,0,21,21,21,,,,,,,,,211.75794954199955,211.75794954199955,211.75794954199955,211.75794954199955,211.75794954199955,211.75794954199955,211.75794954199955,211.75794954199955,211.65223958333277,211.75794954199955,211.75794954199955,211.75794954199955,211.65223958333277,211.75794954199955,211.75794954199955,211.75794954199955,211.75794954199955,211.75794954199955,211.75794954199955,211.75794954199955,211.75794954199955,211.75794954199955,211.75794954199955,211.75794954199955,211.75794954199955,211.75794954199955,211.75794954199955,211.71890624999943,211.75794954199955,211.75794954199955,211.75794954199955,211.71890624999943,211.75794954199955,211.75794954199955,211.75794954199955,211.75794954199955,211.75794954199955,216.98452695799915,216.98452695799915,220.9422479169998,None,0,,reldom2_s009,001,2025-01-30_12h22.24.285,What-B-Scan_AC,2022.2.5,None,
17,Second_Order,3.0,audwhat,stimulus/audwhat_stim/percussion mallet_high-pitch_Ftri_loud.wav,stimulus/audwhat_stim/string cello_high-pitch_Ftri_loud.wav,stimulus/audwhat_stim/percussion mallet_low-pitch_D_loud.wav,stimulus/audwhat_stim/string viola_low-pitch_D_loud.wav,stimulus/viswhat_stim/match_blank.png,stimulus/viswhat_stim/match_box.png,stimulus/viswhat_stim/match_yes.png,stimulus/viswhat_stim/match_no.png,1.0,Match,Pitch,Pitch,1,5.125,0,5.125,0,5.125,0,5.125,0,0.75,0.75,0,0.0,0,0.0,0,0.0,0,0.0,1,0.5,1,2.125,1,0.5,1,2.125,0,,,,,0,22,22,22,,,,,,,,,220.9422479169998,226.06495583299966,220.9422479169998,220.9422479169998,220.9422479169998,220.9422479169998,221.3873332919993,222.38527579199945,221.39991774966646,222.39285629199912,223.0204054579999,224.01273658299942,223.0237511666667,,226.06495583299966,226.8981944999996,228.9728838329993,232.91227916699972,226.8981944999996,226.8981944999996,232.08527112499996,226.8981944999996,226.8981944999996,226.8981944999996,226.8981944999996,227.3680076669998,228.40654087499934,227.33748258366657,,228.9728838329993,230.0148938329994,228.94218154166654,,226.8981944999996,232.08527112499996,226.8981944999996,232.08527112499996,232.08527112499996,,226.8981944999996,1,1,0.5092243330009296,reldom2_s009,001,2025-01-30_12h22.24.285,What-B-Scan_AC,2022.2.5,None,
18,Second_Order,3.0,audwhat,stimulus/audwhat_stim/percussion mallet_high-pitch_Dtri_loud.wav,stimulus/audwhat_stim/string cello_high-pitch_Dtri_loud.wav,stimulus/audwhat_stim/string viola_low-pitch_Ftri_loud.wav,stimulus/audwhat_stim/percussion mallet_low-pitch_Ftri_loud.wav,stimulus/viswhat_stim/match_blank.png,stimulus/viswhat_stim/match_box.png,stimulus/viswhat_stim/match_yes.png,stimulus/viswhat_stim/match_no.png,1.0,Match,Pitch,Pitch,1,5.125,0,5.125,0,5.125,0,5.125,0,0.625,0.625,0,0.0,0,0.0,0,0.0,0,0.0,1,0.5,1,2.125,1,0.5,1,2.125,0,,,,,0,23,23,23,,,,,,,,,232.91227916699972,238.02673566699923,232.91227916699972,232.91227916699972,232.91227916699972,232.91227916699972,233.36468949999926,234.36293670799932,233.37719387466612,234.37075308299973,234.98735916699934,235.98376599999938,234.99798262466655,,238.02673566699923,238.738150958,240.80414716699943,,238.738150958,238.738150958,243.91244079199987,238.738150958,238.738150958,238.738150958,238.738150958,239.20798595799988,240.24139637499957,239.17799366666648,,240.80414716699943,241.8427220829999,240.7737720416665,,238.738150958,243.91244079199987,238.738150958,243.91244079199987,243.9541354999992,244.61802624999928,238.738150958,1,1,0.6986908750004659,reldom2_s009,001,2025-01-30_12h22.24.285,What-B-Scan_AC,2022.2.5,None,
0,0.0,None,fixation,stimulus/viswhat_stim/blank_white.png,stimulus/viswhat_stim/blank_white.png,stimulus/audwhat_stim/blank_white.png,stimulus/audwhat_stim/blank_white.png,stimulus/viswhat_stim/blank_white.png,stimulus/viswhat_stim/blank_white.png,stimulus/viswhat_stim/blank_white.png,stimulus/viswhat_stim/blank_white.png,0.0,0.0,0.0,0.0,0,0.0,0,0.0,0,0.0,0,0.0,0,0.0,0.0,0,0.0,0,0.0,0,0.0,0,0.0,0,0.0,0,0.0,0,0.0,0,0.0,8,,,,,0,24,24,24,,,,,,,,,244.85649016699972,244.85649016699972,244.85649016699972,244.85649016699972,244.85649016699972,244.85649016699972,244.85649016699972,244.85649016699972,244.75135958333263,244.85649016699972,244.85649016699972,244.85649016699972,244.75135958333263,244.85649016699972,244.85649016699972,244.85649016699972,244.85649016699972,244.85649016699972,244.85649016699972,244.85649016699972,244.85649016699972,244.85649016699972,244.85649016699972,244.85649016699972,244.85649016699972,244.85649016699972,244.85649016699972,244.8013595833326,244.85649016699972,244.85649016699972,244.85649016699972,244.8013595833326,244.85649016699972,244.85649016699972,244.85649016699972,244.85649016699972,244.85649016699972,250.05900816699977,250.05900816699977,253.1244502919999,None,0,,reldom2_s009,001,2025-01-30_12h22.24.285,What-B-Scan_AC,2022.2.5,None,
19,First_Order,4.0,audwhat,stimulus/audwhat_stim/dummy.wav,stimulus/audwhat_stim/dummy.wav,stimulus/audwhat_stim/percussion mallet_low-pitch_Ftri_loud.wav,stimulus/audwhat_stim/string viola_low-pitch_Ftri_loud.wav,stimulus/audwhat_stim/blank_white.png,stimulus/audwhat_stim/pitch_box.png,stimulus/audwhat_stim/pitch_yes.png,stimulus/audwhat_stim/pitch_no.png,None,Pitch,None,Pitch,1,0.0,0,5.125,0,5.125,0,5.125,0,0.0,0.625,0,0.0,0,0.0,0,0.0,0,0.0,0,0.0,0,0.0,1,0.5,1,2.125,0,,,,,0,25,25,25,,,,,,,,,253.1244502919999,253.1244502919999,253.1244502919999,253.1244502919999,253.1244502919999,253.1244502919999,253.1244502919999,253.1244502919999,253.04616349966608,253.1244502919999,253.1244502919999,253.1244502919999,253.04616349966608,253.1244502919999,253.1244502919999,253.1244502919999,255.1998264169997,,253.1244502919999,253.1244502919999,258.3121200829992,253.1244502919999,253.1244502919999,253.1244502919999,253.1244502919999,253.5968734579992,254.63541624999925,253.5661399166659,,255.1998264169997,256.2431192919994,255.16896237466634,,253.1244502919999,258.3121200829992,253.1244502919999,258.3121200829992,258.3540106669998,259.0176557499999,253.1244502919999,1,1,0.6250660410005366,reldom2_s009,001,2025-01-30_12h22.24.285,What-B-Scan_AC,2022.2.5,None,
20,First_Order,4.0,audwhat,stimulus/audwhat_stim/dummy.wav,stimulus/audwhat_stim/dummy.wav,stimulus/audwhat_stim/string viola_low-pitch_F_loud.wav,stimulus/audwhat_stim/string cello_high-pitch_Ftri_loud.wav,stimulus/audwhat_stim/blank_white.png,stimulus/audwhat_stim/category_box.png,stimulus/audwhat_stim/category_yes.png,stimulus/audwhat_stim/category_no.png,None,Category,None,Category,1,0.0,0,5.125,0,5.125,0,5.125,0,0.0,0.625,0,0.0,0,0.0,0,0.0,0,0.0,0,0.0,0,0.0,1,0.5,1,2.125,0,,,,,0,26,26,26,,,,,,,,,259.2402860829998,259.2402860829998,259.2402860829998,259.2402860829998,259.2402860829998,259.2402860829998,259.2402860829998,259.2402860829998,259.15098908333323,259.2402860829998,259.2402860829998,259.2402860829998,259.15098908333323,259.2402860829998,259.2402860829998,259.2402860829998,261.3350101669994,,259.2402860829998,259.2402860829998,264.4108274579994,259.2402860829998,259.2402860829998,259.2402860829998,259.2402860829998,259.7158343329993,260.7662594579997,259.68355179166633,,261.3350101669994,262.37825995799994,261.3040919586658,,259.2402860829998,264.4108274579994,259.2402860829998,264.4108274579994,264.452766333,265.11895320799977,259.2402860829998,1,1,1.1224567080007546,reldom2_s009,001,2025-01-30_12h22.24.285,What-B-Scan_AC,2022.2.5,None,
21,First_Order,4.0,audwhat,stimulus/audwhat_stim/dummy.wav,stimulus/audwhat_stim/dummy.wav,stimulus/audwhat_stim/string viola_high-pitch_F_loud.wav,stimulus/audwhat_stim/percussion mallet_high-pitch_F_loud.wav,stimulus/audwhat_stim/blank_white.png,stimulus/audwhat_stim/category_box.png,stimulus/audwhat_stim/category_yes.png,stimulus/audwhat_stim/category_no.png,None,Category,None,Pitch,2,0.0,0,5.125,0,5.125,0,5.125,0,0.0,0.625,0,0.0,0,0.0,0,0.0,0,0.0,0,0.0,0,0.0,1,0.5,1,2.125,0,,,,,0,27,27,27,,,,,,,,,265.3379961669998,265.3379961669998,265.3379961669998,265.3379961669998,265.3379961669998,265.3379961669998,265.3379961669998,265.3379961669998,265.2522865413331,265.3379961669998,265.3379961669998,265.3379961669998,265.2522865413331,265.3379961669998,265.3379961669998,265.3379961669998,267.4239037499992,,265.3379961669998,265.3379961669998,270.5071715419999,265.3379961669998,265.3379961669998,265.3379961669998,265.3379961669998,265.8134405419996,266.8569112079995,265.7820887916662,,267.4239037499992,268.47500754199973,267.393292791666,268.42759379199924,265.3379961669998,270.5071715419999,265.3379961669998,270.5071715419999,270.5488351669992,271.21652474999973,265.3379961669998,2,1,0.6634764580012416,reldom2_s009,001,2025-01-30_12h22.24.285,What-B-Scan_AC,2022.2.5,None,
22,First_Order,4.0,audwhat,stimulus/audwhat_stim/dummy.wav,stimulus/audwhat_stim/dummy.wav,stimulus/audwhat_stim/percussion xylophone_high-pitch_D_loud.wav,stimulus/audwhat_stim/percussion mallet_low-pitch_F_loud.wav,stimulus/audwhat_stim/blank_white.png,stimulus/audwhat_stim/pitch_box.png,stimulus/audwhat_stim/pitch_yes.png,stimulus/audwhat_stim/pitch_no.png,None,Pitch,None,Category,2,0.0,0,5.125,0,5.125,0,5.125,0,0.0,0.625,0,0.0,0,0.0,0,0.0,0,0.0,0,0.0,0,0.0,1,0.5,1,2.125,0,,,,,0,28,28,28,,,,,,,,,271.4402905829993,271.4402905829993,271.4402905829993,271.4402905829993,271.4402905829993,271.4402905829993,271.4402905829993,271.4402905829993,271.34985808333306,271.4402905829993,271.4402905829993,271.4402905829993,271.34985808333306,271.4402905829993,271.4402905829993,271.4402905829993,273.51976233299956,277.5811630829994,271.4402905829993,271.4402905829993,276.6358068749996,271.4402905829993,271.4402905829993,271.4402905829993,271.4402905829993,271.91170466699987,272.9554647499999,271.88105029166604,272.9554647499999,273.51976233299956,274.5621956669993,273.4890190836661,,271.4402905829993,276.6358068749996,271.4402905829993,276.6358068749996,276.6358068749996,277.29982691699934,271.4402905829993,2,1,0.8541855420007778,reldom2_s009,001,2025-01-30_12h22.24.285,What-B-Scan_AC,2022.2.5,None,
0,0.0,None,fixation,stimulus/viswhat_stim/blank_white.png,stimulus/viswhat_stim/blank_white.png,stimulus/audwhat_stim/blank_white.png,stimulus/audwhat_stim/blank_white.png,stimulus/viswhat_stim/blank_white.png,stimulus/viswhat_stim/blank_white.png,stimulus/viswhat_stim/blank_white.png,stimulus/viswhat_stim/blank_white.png,0.0,0.0,0.0,0.0,0,0.0,0,0.0,0,0.0,0,0.0,0,0.0,0.0,0,0.0,0,0.0,0,0.0,0,0.0,0,0.0,0,0.0,0,0.0,0,0.0,10,,,,,0,29,29,29,,,,,,,,,277.5811630829994,277.5811630829994,277.5811630829994,277.5811630829994,277.5811630829994,277.5811630829994,277.5811630829994,277.5811630829994,277.47485704133317,277.5811630829994,277.5811630829994,277.5811630829994,277.47485704133317,277.5811630829994,277.5811630829994,277.5811630829994,277.5811630829994,277.5811630829994,277.5811630829994,277.5811630829994,277.5811630829994,277.5811630829994,277.5811630829994,277.5811630829994,277.5811630829994,277.5811630829994,277.5811630829994,277.54152370799983,277.5811630829994,277.5811630829994,277.5811630829994,277.54152370799983,277.5811630829994,277.5811630829994,277.5811630829994,277.5811630829994,277.5811630829994,282.79383770799996,282.79383770799996,287.7210003329992,None,0,,reldom2_s009,001,2025-01-30_12h22.24.285,What-B-Scan_AC,2022.2.5,None,
23,Second_Order,4.0,audwhat,stimulus/audwhat_stim/percussion mallet_high-pitch_Ftri_loud.wav,stimulus/audwhat_stim/percussion mallet_low-pitch_Dtri_loud.wav,stimulus/audwhat_stim/percussion mallet_high-pitch_D_loud.wav,stimulus/audwhat_stim/string viola_high-pitch_D_loud.wav,stimulus/viswhat_stim/match_blank.png,stimulus/viswhat_stim/match_box.png,stimulus/viswhat_stim/match_yes.png,stimulus/viswhat_stim/match_no.png,2.0,Match,Category,Pitch,2,5.125,0,5.125,0,5.125,0,5.125,0,0.75,0.75,0,0.0,0,0.0,0,0.0,0,0.0,1,0.5,1,2.125,1,0.5,1,2.125,0,,,,,0,30,30,30,,,,,,,,,287.7210003329992,292.83561995799937,287.7210003329992,287.7210003329992,287.7210003329992,287.7210003329992,288.1746119999998,289.17257645799964,288.18711974966595,289.1803977919999,289.79696474999946,290.7931288329992,289.8080230416665,290.8007500829999,292.83561995799937,293.6712567079994,295.7456384999996,299.68718516699937,293.6712567079994,293.6712567079994,298.8607728329998,293.6712567079994,293.6712567079994,293.6712567079994,293.6712567079994,294.1449125829995,295.1810343749994,294.1141349586662,,295.7456384999996,296.7886480419993,295.71481704166604,,293.6712567079994,298.8607728329998,293.6712567079994,298.8607728329998,298.8607728329998,,293.6712567079994,2,1,1.0849817080006687,reldom2_s009,001,2025-01-30_12h22.24.285,What-B-Scan_AC,2022.2.5,None,
24,Second_Order,4.0,audwhat,stimulus/audwhat_stim/string viola_high-pitch_Dtri_loud.wav,stimulus/audwhat_stim/percussion mallet_high-pitch_Dtri_loud.wav,stimulus/audwhat_stim/string cello_low-pitch_Dtri_loud.wav,stimulus/audwhat_stim/string viola_high-pitch_Ftri_loud.wav,stimulus/viswhat_stim/match_blank.png,stimulus/viswhat_stim/match_box.png,stimulus/viswhat_stim/match_yes.png,stimulus/viswhat_stim/match_no.png,2.0,Match,Pitch,Category,2,5.125,0,5.125,0,5.125,0,5.125,0,0.625,0.625,0,0.0,0,0.0,0,0.0,0,0.0,1,0.5,1,2.125,1,0.5,1,2.125,0,,,,,0,31,31,31,,,,,,,,,299.68718516699937,304.8089754999992,299.68718516699937,299.68718516699937,299.68718516699937,299.68718516699937,300.13502595799946,301.13382533299955,300.14798058366637,,301.7683144169996,302.7624676669993,301.77189070866666,302.7624676669993,304.8089754999992,305.5284144169991,307.5978611249993,311.65330466699925,305.5284144169991,305.5284144169991,310.70888045799984,305.5284144169991,305.5284144169991,305.5284144169991,305.5284144169991,305.9983342079995,307.03416379199916,305.96791070866607,,307.5978611249993,308.6394688329992,307.5667290836666,,305.5284144169991,310.70888045799984,305.5284144169991,310.70888045799984,310.70888045799984,311.37347687499914,305.5284144169991,2,1,0.7960216250003214,reldom2_s009,001,2025-01-30_12h22.24.285,What-B-Scan_AC,2022.2.5,None,
0,0.0,None,fixation,stimulus/viswhat_stim/blank_white.png,stimulus/viswhat_stim/blank_white.png,stimulus/audwhat_stim/blank_white.png,stimulus/audwhat_stim/blank_white.png,stimulus/viswhat_stim/blank_white.png,stimulus/viswhat_stim/blank_white.png,stimulus/viswhat_stim/blank_white.png,stimulus/viswhat_stim/blank_white.png,0.0,0.0,0.0,0.0,0,0.0,0,0.0,0,0.0,0,0.0,0,0.0,0.0,0,0.0,0,0.0,0,0.0,0,0.0,0,0.0,0,0.0,0,0.0,0,0.0,9,,,,,0,32,32,32,,,,,,,,,311.65330466699925,311.65330466699925,311.65330466699925,311.65330466699925,311.65330466699925,311.65330466699925,311.65330466699925,311.65330466699925,311.54786033333323,311.65330466699925,311.65330466699925,311.65330466699925,311.54786033333323,311.65330466699925,311.65330466699925,311.65330466699925,311.65330466699925,311.65330466699925,311.65330466699925,311.65330466699925,311.65330466699925,311.65330466699925,311.65330466699925,311.65330466699925,311.65330466699925,311.65330466699925,311.65330466699925,311.6145269999999,311.65330466699925,311.65330466699925,311.65330466699925,311.6145269999999,311.65330466699925,311.65330466699925,311.65330466699925,311.65330466699925,311.65330466699925,316.85500949999914,316.85500949999914,320.9314678749997,None,0,,reldom2_s009,001,2025-01-30_12h22.24.285,What-B-Scan_AC,2022.2.5,None,
25,First_Order,5.0,viswhat,stimulus/viswhat_stim/blank_white.png,stimulus/viswhat_stim/blank_white.png,stimulus/viswhat_stim/land_animal-elephant.png,stimulus/viswhat_stim/land_vehicle-firetruck.png,stimulus/viswhat_stim/blank_white.png,stimulus/viswhat_stim/location_box.png,stimulus/viswhat_stim/location_yes.png,stimulus/viswhat_stim/location_no.png,None,Location,None,Location,1,0.0,0,5.125,0,5.125,0,5.125,0,0.0,0.625,0,0.0,0,0.0,1,0.5,1,2.125,0,0.0,0,0.0,0,0.0,0,0.0,0,,,,,0,33,33,33,,,,,,,,,320.9314678749997,320.9314678749997,320.9314678749997,320.9314678749997,320.9314678749997,320.9314678749997,320.9314678749997,320.9314678749997,320.82072399966603,320.9314678749997,320.9314678749997,320.9314678749997,320.82072399966603,320.9314678749997,320.9314678749997,320.9314678749997,323.0369336669992,327.00953104199925,320.9314678749997,320.9314678749997,326.1061076249998,321.41210799999953,322.49589916699915,323.0369336669992,324.1220553329995,320.9314678749997,320.9314678749997,320.87072399966604,320.9314678749997,320.9314678749997,320.9314678749997,320.87072399966604,320.9314678749997,320.9314678749997,326.1061076249998,320.9314678749997,326.1061076249998,326.1061076249998,326.8123482919991,320.9314678749997,1,1,1.1353499990000273,reldom2_s009,001,2025-01-30_12h22.24.285,What-B-Scan_AC,2022.2.5,None,
26,First_Order,5.0,viswhat,stimulus/viswhat_stim/blank_white.png,stimulus/viswhat_stim/blank_white.png,stimulus/viswhat_stim/land_vehicle-tank.png,stimulus/viswhat_stim/land_animal-pig.png,stimulus/viswhat_stim/blank_white.png,stimulus/viswhat_stim/type_box.png,stimulus/viswhat_stim/type_yes.png,stimulus/viswhat_stim/type_no.png,None,Type,None,Location,2,0.0,0,5.125,0,5.125,0,5.125,0,0.0,0.625,0,0.0,0,0.0,1,0.5,1,2.125,0,0.0,0,0.0,0,0.0,0,0.0,0,,,,,0,34,34,34,,,,,,,,,327.00953104199925,327.00953104199925,327.00953104199925,327.00953104199925,327.00953104199925,327.00953104199925,327.00953104199925,327.00953104199925,326.97901495866574,327.00953104199925,327.00953104199925,327.00953104199925,326.97901495866574,327.00953104199925,327.00953104199925,327.00953104199925,329.1191611669992,333.17031187499924,327.00953104199925,327.00953104199925,332.1460954999993,327.47591162499975,328.4999987499996,329.1191611669992,330.12498266699913,327.00953104199925,327.00953104199925,326.99568162533245,327.00953104199925,327.00953104199925,327.00953104199925,326.99568162533245,327.00953104199925,327.00953104199925,332.1460954999993,327.00953104199925,332.1460954999993,332.2289559999999,332.85884695799996,327.00953104199925,2,1,1.2059770410005513,reldom2_s009,001,2025-01-30_12h22.24.285,What-B-Scan_AC,2022.2.5,None,
27,First_Order,5.0,viswhat,stimulus/viswhat_stim/blank_white.png,stimulus/viswhat_stim/blank_white.png,stimulus/viswhat_stim/land_animal-moose.png,stimulus/viswhat_stim/land_vehicle-vespa.png,stimulus/viswhat_stim/blank_white.png,stimulus/viswhat_stim/location_box.png,stimulus/viswhat_stim/location_yes.png,stimulus/viswhat_stim/location_no.png,None,Location,None,Location,1,0.0,0,5.125,0,5.125,0,5.125,0,0.0,0.625,0,0.0,0,0.0,1,0.5,1,2.125,0,0.0,0,0.0,0,0.0,0,0.0,0,,,,,0,35,35,35,,,,,,,,,333.17031187499924,333.17031187499924,333.17031187499924,333.17031187499924,333.17031187499924,333.17031187499924,333.17031187499924,333.17031187499924,333.04198479133294,333.17031187499924,333.17031187499924,333.17031187499924,333.04198479133294,333.17031187499924,333.17031187499924,333.17031187499924,335.276163042,339.3058877499998,333.17031187499924,333.17031187499924,338.40176558299936,333.64511799999946,334.73232174999976,335.276163042,336.36872420799955,333.17031187499924,333.17031187499924,333.1086514579996,333.17031187499924,333.17031187499924,333.17031187499924,333.1086514579996,333.17031187499924,333.17031187499924,338.40176558299936,333.17031187499924,338.40176558299936,338.40176558299936,339.3058877499998,333.17031187499924,1,1,1.6246643750009753,reldom2_s009,001,2025-01-30_12h22.24.285,What-B-Scan_AC,2022.2.5,None,
28,First_Order,5.0,viswhat,stimulus/viswhat_stim/blank_white.png,stimulus/viswhat_stim/blank_white.png,stimulus/viswhat_stim/land_animal-giraffe.png,stimulus/viswhat_stim/water_animal-squid.png,stimulus/viswhat_stim/blank_white.png,stimulus/viswhat_stim/location_box.png,stimulus/viswhat_stim/location_yes.png,stimulus/viswhat_stim/location_no.png,None,Location,None,Type,2,0.0,0,5.125,0,5.125,0,5.125,0,0.0,0.625,0,0.0,0,0.0,1,0.5,1,2.125,0,0.0,0,0.0,0,0.0,0,0.0,0,,,,,0,36,36,36,,,,,,,,,339.3058877499998,339.3058877499998,339.3058877499998,339.3058877499998,339.3058877499998,339.3058877499998,339.3058877499998,339.3058877499998,339.2074675413332,339.3058877499998,339.3058877499998,339.3058877499998,339.2074675413332,339.3058877499998,339.3058877499998,339.3058877499998,341.3846444999999,,339.3058877499998,339.3058877499998,344.4720602919997,339.75585220799985,340.8229053749992,341.3846444999999,342.4538935829996,339.3058877499998,339.3058877499998,339.25746754133314,339.3058877499998,339.3058877499998,339.3058877499998,339.25746754133314,339.3058877499998,339.3058877499998,344.4720602919997,339.3058877499998,344.4720602919997,344.5229307079999,345.4354634169995,339.3058877499998,2,1,1.3680471659999967,reldom2_s009,001,2025-01-30_12h22.24.285,What-B-Scan_AC,2022.2.5,None,
0,0.0,None,fixation,stimulus/viswhat_stim/blank_white.png,stimulus/viswhat_stim/blank_white.png,stimulus/audwhat_stim/blank_white.png,stimulus/audwhat_stim/blank_white.png,stimulus/viswhat_stim/blank_white.png,stimulus/viswhat_stim/blank_white.png,stimulus/viswhat_stim/blank_white.png,stimulus/viswhat_stim/blank_white.png,0.0,0.0,0.0,0.0,0,0.0,0,0.0,0,0.0,0,0.0,0,0.0,0.0,0,0.0,0,0.0,0,0.0,0,0.0,0,0.0,0,0.0,0,0.0,0,0.0,9,,,,,0,37,37,37,,,,,,,,,345.4354634169995,345.4354634169995,345.4354634169995,345.4354634169995,345.4354634169995,345.4354634169995,345.4354634169995,345.4354634169995,345.34258220866616,345.4354634169995,345.4354634169995,345.4354634169995,345.34258220866616,345.4354634169995,345.4354634169995,345.4354634169995,345.4354634169995,345.4354634169995,345.4354634169995,345.4354634169995,345.4354634169995,345.4354634169995,345.4354634169995,345.4354634169995,345.4354634169995,345.4354634169995,345.4354634169995,345.39258220866617,345.4354634169995,345.4354634169995,345.4354634169995,345.39258220866617,345.4354634169995,345.4354634169995,345.4354634169995,345.4354634169995,345.4354634169995,350.6637222499994,350.6637222499994,354.55393108299995,None,0,,reldom2_s009,001,2025-01-30_12h22.24.285,What-B-Scan_AC,2022.2.5,None,
29,Second_Order,5.0,viswhat,stimulus/viswhat_stim/water_vehicle-pirateship.png,stimulus/viswhat_stim/land_vehicle-schoolbus.png,stimulus/viswhat_stim/water_animal-dolphin.png,stimulus/viswhat_stim/land_animal-cat.png,stimulus/viswhat_stim/match_blank.png,stimulus/viswhat_stim/match_box.png,stimulus/viswhat_stim/match_yes.png,stimulus/viswhat_stim/match_no.png,1.0,Match,Type,Type,1,5.125,0,5.125,0,5.125,0,5.125,0,0.75,0.75,1,0.5,1,2.125,1,0.5,1,2.125,0,0.0,0,0.0,0,0.0,0,0.0,0,,,,,0,38,38,38,,,,,,,,,354.55393108299995,359.6734388749992,355.02488599999924,356.0138980419997,356.6510630419998,357.64720079199924,354.55393108299995,354.55393108299995,354.5546804583329,354.55393108299995,354.55393108299995,354.55393108299995,354.5546804583329,354.55393108299995,359.6734388749992,360.4821749169996,362.55629874999977,,360.4821749169996,360.4821749169996,365.63778233299945,360.93557695799973,361.97311745799925,362.55629874999977,363.59772599999997,360.4821749169996,360.4821749169996,360.4584467919993,360.4821749169996,360.4821749169996,360.4821749169996,360.4584467919993,360.4821749169996,360.4821749169996,365.63778233299945,360.4821749169996,365.63778233299945,365.6907678329999,,360.4821749169996,1,1,0.8557794580001428,reldom2_s009,001,2025-01-30_12h22.24.285,What-B-Scan_AC,2022.2.5,None,
30,Second_Order,5.0,viswhat,stimulus/viswhat_stim/water_animal-orka.png,stimulus/viswhat_stim/land_animal-bunny.png,stimulus/viswhat_stim/land_vehicle-motorcycle.png,stimulus/viswhat_stim/water_vehicle-motorboatraft.png,stimulus/viswhat_stim/match_blank.png,stimulus/viswhat_stim/match_box.png,stimulus/viswhat_stim/match_yes.png,stimulus/viswhat_stim/match_no.png,1.0,Match,Type,Type,1,5.125,0,5.125,0,5.125,0,5.125,0,0.625,0.625,1,0.5,1,2.125,1,0.5,1,2.125,0,0.0,0,0.0,0,0.0,0,0.0,0,,,,,0,39,39,39,,,,,,,,,366.524518792,371.6466797919993,366.9206439169993,367.90796987499925,368.5557604169999,369.5451224169992,366.524518792,366.524518792,366.5344240829994,366.524518792,366.524518792,366.524518792,366.5344240829994,366.524518792,371.6466797919993,372.33023666699955,374.4183317499992,,372.33023666699955,372.33023666699955,377.48229645799984,372.7836183749996,373.81239733299935,374.4183317499992,375.450450583,372.33023666699955,372.33023666699955,372.3142770419998,372.33023666699955,372.33023666699955,372.33023666699955,372.3142770419998,372.33023666699955,372.33023666699955,377.48229645799984,372.33023666699955,377.48229645799984,377.53151974999946,378.1706452499993,372.33023666699955,1,1,1.046838291000313,reldom2_s009,001,2025-01-30_12h22.24.285,What-B-Scan_AC,2022.2.5,None,
0,0.0,None,fixation,stimulus/viswhat_stim/blank_white.png,stimulus/viswhat_stim/blank_white.png,stimulus/audwhat_stim/blank_white.png,stimulus/audwhat_stim/blank_white.png,stimulus/viswhat_stim/blank_white.png,stimulus/viswhat_stim/blank_white.png,stimulus/viswhat_stim/blank_white.png,stimulus/viswhat_stim/blank_white.png,0.0,0.0,0.0,0.0,0,0.0,0,0.0,0,0.0,0,0.0,0,0.0,0.0,0,0.0,0,0.0,0,0.0,0,0.0,0,0.0,0,0.0,0,0.0,0,0.0,9,,,,,0,40,40,40,,,,,,,,,378.4562842079995,378.4562842079995,378.4562842079995,378.4562842079995,378.4562842079995,378.4562842079995,378.4562842079995,378.4562842079995,378.3607598336665,378.4562842079995,378.4562842079995,378.4562842079995,378.3607598336665,378.4562842079995,378.4562842079995,378.4562842079995,378.4562842079995,378.4562842079995,378.4562842079995,378.4562842079995,378.4562842079995,378.4562842079995,378.4562842079995,378.4562842079995,378.4562842079995,378.4562842079995,378.4562842079995,378.4107598336665,378.4562842079995,378.4562842079995,378.4562842079995,378.4107598336665,378.4562842079995,378.4562842079995,378.4562842079995,378.4562842079995,378.4562842079995,383.67065208299937,383.67065208299937,387.7474578329993,None,0,,reldom2_s009,001,2025-01-30_12h22.24.285,What-B-Scan_AC,2022.2.5,None,
31,First_Order,6.0,viswhat,stimulus/viswhat_stim/blank_white.png,stimulus/viswhat_stim/blank_white.png,stimulus/viswhat_stim/water_vehicle-ship.png,stimulus/viswhat_stim/land_vehicle-schoolbus.png,stimulus/viswhat_stim/blank_white.png,stimulus/viswhat_stim/location_box.png,stimulus/viswhat_stim/location_yes.png,stimulus/viswhat_stim/location_no.png,None,Location,None,Type,2,0.0,0,5.125,0,5.125,0,5.125,0,0.0,0.625,0,0.0,0,0.0,1,0.5,1,2.125,0,0.0,0,0.0,0,0.0,0,0.0,0,,,,,0,41,41,41,,,,,,,,,387.7474578329993,387.7474578329993,387.7474578329993,387.7474578329993,387.7474578329993,387.7474578329993,387.7474578329993,387.7474578329993,387.6408423336658,387.7474578329993,387.7474578329993,387.7474578329993,387.6408423336658,387.7474578329993,387.7474578329993,387.7474578329993,389.82621008299975,,387.7474578329993,387.7474578329993,392.94407933299954,388.1773617079998,389.2776002499995,389.82621008299975,390.92811708299996,387.7474578329993,387.7474578329993,387.6908423336658,387.7474578329993,387.7474578329993,387.7474578329993,387.6908423336658,387.7474578329993,387.7474578329993,392.94407933299954,387.7474578329993,392.94407933299954,392.94407933299954,393.8208369169997,387.7474578329993,2,1,1.1871123330001865,reldom2_s009,001,2025-01-30_12h22.24.285,What-B-Scan_AC,2022.2.5,None,
32,First_Order,6.0,viswhat,stimulus/viswhat_stim/blank_white.png,stimulus/viswhat_stim/blank_white.png,stimulus/viswhat_stim/land_vehicle-bus.png,stimulus/viswhat_stim/water_vehicle-jetski.png,stimulus/viswhat_stim/blank_white.png,stimulus/viswhat_stim/type_box.png,stimulus/viswhat_stim/type_yes.png,stimulus/viswhat_stim/type_no.png,None,Type,None,Type,1,0.0,0,5.125,0,5.125,0,5.125,0,0.0,0.625,0,0.0,0,0.0,1,0.5,1,2.125,0,0.0,0,0.0,0,0.0,0,0.0,0,,,,,0,42,42,42,,,,,,,,,393.8208369169997,393.8208369169997,393.8208369169997,393.8208369169997,393.8208369169997,393.8208369169997,393.8208369169997,393.8208369169997,393.7730669166664,393.8208369169997,393.8208369169997,393.8208369169997,393.7730669166664,393.8208369169997,393.8208369169997,393.8208369169997,395.9233959579997,399.92756279199966,393.8208369169997,393.8208369169997,398.97489037499963,394.2964710419992,395.3319503749999,395.9233959579997,396.93609062499945,393.8208369169997,393.8208369169997,393.80640024999974,393.8208369169997,393.8208369169997,393.8208369169997,393.80640024999974,393.8208369169997,393.8208369169997,398.97489037499963,393.8208369169997,398.97489037499963,399.04648958299913,399.69086604199947,393.8208369169997,1,1,0.7443711660007466,reldom2_s009,001,2025-01-30_12h22.24.285,What-B-Scan_AC,2022.2.5,None,
33,First_Order,6.0,viswhat,stimulus/viswhat_stim/blank_white.png,stimulus/viswhat_stim/blank_white.png,stimulus/viswhat_stim/water_animal-seahorse.png,stimulus/viswhat_stim/water_vehicle-cabincruiser.png,stimulus/viswhat_stim/blank_white.png,stimulus/viswhat_stim/type_box.png,stimulus/viswhat_stim/type_yes.png,stimulus/viswhat_stim/type_no.png,None,Type,None,Location,2,0.0,0,5.125,0,5.125,0,5.125,0,0.0,0.625,0,0.0,0,0.0,1,0.5,1,2.125,0,0.0,0,0.0,0,0.0,0,0.0,0,,,,,0,43,43,43,,,,,,,,,399.92756279199966,399.92756279199966,399.92756279199966,399.92756279199966,399.92756279199966,399.92756279199966,399.92756279199966,399.92756279199966,399.86226895799933,399.92756279199966,399.92756279199966,399.92756279199966,399.86226895799933,399.92756279199966,399.92756279199966,399.92756279199966,402.0354862919994,406.05111812499945,399.92756279199966,399.92756279199966,405.0960979579995,400.3856195829994,401.4048934169996,402.0354862919994,403.06072983299964,399.92756279199966,399.92756279199966,399.8956022913327,399.92756279199966,399.92756279199966,399.92756279199966,399.8956022913327,399.92756279199966,399.92756279199966,405.0960979579995,399.92756279199966,405.0960979579995,405.1255281249996,405.77149279199966,399.92756279199966,2,1,0.725113083000906,reldom2_s009,001,2025-01-30_12h22.24.285,What-B-Scan_AC,2022.2.5,None,
34,First_Order,6.0,viswhat,stimulus/viswhat_stim/blank_white.png,stimulus/viswhat_stim/blank_white.png,stimulus/viswhat_stim/land_animal-tiger.png,stimulus/viswhat_stim/water_animal-octopus.png,stimulus/viswhat_stim/blank_white.png,stimulus/viswhat_stim/type_box.png,stimulus/viswhat_stim/type_yes.png,stimulus/viswhat_stim/type_no.png,None,Type,None,Type,1,0.0,0,5.125,0,5.125,0,5.125,0,0.0,0.625,0,0.0,0,0.0,1,0.5,1,2.125,0,0.0,0,0.0,0,0.0,0,0.0,0,,,,,0,44,44,44,,,,,,,,,406.05111812499945,406.05111812499945,406.05111812499945,406.05111812499945,406.05111812499945,406.05111812499945,406.05111812499945,406.05111812499945,405.9761119996664,406.05111812499945,406.05111812499945,406.05111812499945,405.9761119996664,406.05111812499945,406.05111812499945,406.05111812499945,408.1536424999995,,406.05111812499945,406.05111812499945,411.2115032499996,406.53366554199965,407.58503004199974,408.1536424999995,409.20294295799977,406.05111812499945,406.05111812499945,406.0094453329997,406.05111812499945,406.05111812499945,406.05111812499945,406.0094453329997,406.05111812499945,406.05111812499945,411.2115032499996,406.05111812499945,411.2115032499996,411.2495509999999,411.89634320799996,406.05111812499945,1,1,0.6595149580007273,reldom2_s009,001,2025-01-30_12h22.24.285,What-B-Scan_AC,2022.2.5,None,
0,0.0,None,fixation,stimulus/viswhat_stim/blank_white.png,stimulus/viswhat_stim/blank_white.png,stimulus/audwhat_stim/blank_white.png,stimulus/audwhat_stim/blank_white.png,stimulus/viswhat_stim/blank_white.png,stimulus/viswhat_stim/blank_white.png,stimulus/viswhat_stim/blank_white.png,stimulus/viswhat_stim/blank_white.png,0.0,0.0,0.0,0.0,0,0.0,0,0.0,0,0.0,0,0.0,0,0.0,0.0,0,0.0,0,0.0,0,0.0,0,0.0,0,0.0,0,0.0,0,0.0,0,0.0,8,,,,,0,45,45,45,,,,,,,,,412.174417792,412.174417792,412.174417792,412.174417792,412.174417792,412.174417792,412.174417792,412.174417792,412.06715970833295,412.174417792,412.174417792,412.174417792,412.06715970833295,412.174417792,412.174417792,412.174417792,412.174417792,412.174417792,412.174417792,412.174417792,412.174417792,412.174417792,412.174417792,412.174417792,412.174417792,412.174417792,412.174417792,412.11715970833296,412.174417792,412.174417792,412.174417792,412.11715970833296,412.174417792,412.174417792,412.174417792,412.174417792,412.174417792,417.39673412499997,417.39673412499997,420.30028641699937,None,0,,reldom2_s009,001,2025-01-30_12h22.24.285,What-B-Scan_AC,2022.2.5,None,
35,Second_Order,6.0,viswhat,stimulus/viswhat_stim/land_animal-wolf.png,stimulus/viswhat_stim/land_vehicle-schoolbus.png,stimulus/viswhat_stim/water_animal-shark.png,stimulus/viswhat_stim/water_vehicle-ship.png,stimulus/viswhat_stim/match_blank.png,stimulus/viswhat_stim/match_box.png,stimulus/viswhat_stim/match_yes.png,stimulus/viswhat_stim/match_no.png,1.0,Match,Location,Location,1,5.125,0,5.125,0,5.125,0,5.125,0,0.75,0.75,1,0.5,1,2.125,1,0.5,1,2.125,0,0.0,0,0.0,0,0.0,0,0.0,0,,,,,0,46,46,46,,,,,,,,,420.30028641699937,425.42534216699914,420.7634359169997,421.76219041699915,422.40163824999945,423.39922045799995,420.30028641699937,420.30028641699937,420.3037528333326,420.30028641699937,420.30028641699937,420.30028641699937,420.3037528333326,420.30028641699937,425.42534216699914,426.3145765419995,428.36942029199963,,426.3145765419995,426.3145765419995,431.5537441669994,426.73886241699984,427.80105645799995,428.36942029199963,429.43562199999997,426.3145765419995,426.3145765419995,426.2430633753332,426.3145765419995,426.3145765419995,426.3145765419995,426.2430633753332,426.3145765419995,426.3145765419995,431.5537441669994,426.3145765419995,431.5537441669994,431.4884730419999,,426.3145765419995,1,1,0.6254380830005175,reldom2_s009,001,2025-01-30_12h22.24.285,What-B-Scan_AC,2022.2.5,None,
36,Second_Order,6.0,viswhat,stimulus/viswhat_stim/land_vehicle-oldcar.png,stimulus/viswhat_stim/land_animal-cat.png,stimulus/viswhat_stim/water_vehicle-cargoboat.png,stimulus/viswhat_stim/water_animal-orka.png,stimulus/viswhat_stim/match_blank.png,stimulus/viswhat_stim/match_box.png,stimulus/viswhat_stim/match_yes.png,stimulus/viswhat_stim/match_no.png,1.0,Match,Location,Location,1,5.125,0,5.125,0,5.125,0,5.125,0,0.625,0.625,1,0.5,1,2.125,1,0.5,1,2.125,0,0.0,0,0.0,0,0.0,0,0.0,0,,,,,0,47,47,47,,,,,,,,,432.3132987079998,437.4380961249999,432.75845433299946,433.75606445799986,434.3913499999999,435.38016983299985,432.3132987079998,432.3132987079998,432.32425737533316,432.3132987079998,432.3132987079998,432.3132987079998,432.32425737533316,432.3132987079998,437.4380961249999,438.18743537499995,440.2644072919993,444.32012691699947,438.18743537499995,438.18743537499995,443.42087833299956,438.65508458299973,439.7255820829996,440.2644072919993,441.3454936669996,438.18743537499995,438.18743537499995,438.13297904133316,438.18743537499995,438.18743537499995,438.18743537499995,438.13297904133316,438.18743537499995,438.18743537499995,443.42087833299956,438.18743537499995,443.42087833299956,443.35936370799936,444.03582141699917,438.18743537499995,1,1,0.6905930830007492,reldom2_s009,001,2025-01-30_12h22.24.285,What-B-Scan_AC,2022.2.5,None,
0,0.0,None,fixation,stimulus/viswhat_stim/blank_white.png,stimulus/viswhat_stim/blank_white.png,stimulus/audwhat_stim/blank_white.png,stimulus/audwhat_stim/blank_white.png,stimulus/viswhat_stim/blank_white.png,stimulus/viswhat_stim/blank_white.png,stimulus/viswhat_stim/blank_white.png,stimulus/viswhat_stim/blank_white.png,0.0,0.0,0.0,0.0,0,0.0,0,0.0,0,0.0,0,0.0,0,0.0,0.0,0,0.0,0,0.0,0,0.0,0,0.0,0,0.0,0,0.0,0,0.0,0,0.0,10,,,,,0,48,48,48,,,,,,,,,444.32012691699947,444.32012691699947,444.32012691699947,444.32012691699947,444.32012691699947,444.32012691699947,444.32012691699947,444.32012691699947,444.2191547503325,444.32012691699947,444.32012691699947,444.32012691699947,444.2191547503325,444.32012691699947,444.32012691699947,444.32012691699947,444.32012691699947,444.32012691699947,444.32012691699947,444.32012691699947,444.32012691699947,444.32012691699947,444.32012691699947,444.32012691699947,444.32012691699947,444.32012691699947,444.32012691699947,444.26915475033246,444.32012691699947,444.32012691699947,444.32012691699947,444.26915475033246,444.32012691699947,444.32012691699947,444.32012691699947,444.32012691699947,444.32012691699947,449.529812625,449.529812625,454.5526843329999,None,0,,reldom2_s009,001,2025-01-30_12h22.24.285,What-B-Scan_AC,2022.2.5,None,
37,First_Order,7.0,audwhat,stimulus/audwhat_stim/dummy.wav,stimulus/audwhat_stim/dummy.wav,stimulus/audwhat_stim/string viola_low-pitch_Ftri_loud.wav,stimulus/audwhat_stim/string viola_high-pitch_Dtri_loud.wav,stimulus/audwhat_stim/blank_white.png,stimulus/audwhat_stim/category_box.png,stimulus/audwhat_stim/category_yes.png,stimulus/audwhat_stim/category_no.png,None,Category,None,Category,1,0.0,0,5.125,0,5.125,0,5.125,0,0.0,0.625,0,0.0,0,0.0,0,0.0,0,0.0,0,0.0,0,0.0,1,0.5,1,2.125,0,,,,,0,49,49,49,,,,,,,,,454.5526843329999,454.5526843329999,454.5526843329999,454.5526843329999,454.5526843329999,454.5526843329999,454.5526843329999,454.5526843329999,454.47183412466586,454.5526843329999,454.5526843329999,454.5526843329999,454.47183412466586,454.5526843329999,454.5526843329999,454.5526843329999,456.63926320799965,,454.5526843329999,454.5526843329999,459.71806308299983,454.5526843329999,454.5526843329999,454.5526843329999,454.5526843329999,455.02725745799944,456.0705445829999,454.99656316666665,,456.63926320799965,457.6835027499992,456.6084255836661,,454.5526843329999,459.71806308299983,454.5526843329999,459.71806308299983,459.7601754169991,460.42825874999926,454.5526843329999,1,1,1.023797875001037,reldom2_s009,001,2025-01-30_12h22.24.285,What-B-Scan_AC,2022.2.5,None,
38,First_Order,7.0,audwhat,stimulus/audwhat_stim/dummy.wav,stimulus/audwhat_stim/dummy.wav,stimulus/audwhat_stim/percussion mallet_high-pitch_D_loud.wav,stimulus/audwhat_stim/string viola_high-pitch_D_loud.wav,stimulus/audwhat_stim/blank_white.png,stimulus/audwhat_stim/pitch_box.png,stimulus/audwhat_stim/pitch_yes.png,stimulus/audwhat_stim/pitch_no.png,None,Pitch,None,Pitch,1,0.0,0,5.125,0,5.125,0,5.125,0,0.0,0.625,0,0.0,0,0.0,0,0.0,0,0.0,0,0.0,0,0.0,1,0.5,1,2.125,0,,,,,0,50,50,50,,,,,,,,,460.6501750419993,460.6501750419993,460.6501750419993,460.6501750419993,460.6501750419993,460.6501750419993,460.6501750419993,460.6501750419993,460.5615920833326,460.6501750419993,460.6501750419993,460.6501750419993,460.5615920833326,460.6501750419993,460.6501750419993,460.6501750419993,462.7265469169997,,460.6501750419993,460.6501750419993,465.83585579199917,460.6501750419993,460.6501750419993,460.6501750419993,460.6501750419993,461.12274516699927,462.162137542,461.09208329166654,,462.7265469169997,463.7669976669995,462.6960080416659,,460.6501750419993,465.83585579199917,460.6501750419993,465.83585579199917,465.83585579199917,466.5010393749999,460.6501750419993,1,1,0.6537875000003623,reldom2_s009,001,2025-01-30_12h22.24.285,What-B-Scan_AC,2022.2.5,None,
39,First_Order,7.0,audwhat,stimulus/audwhat_stim/dummy.wav,stimulus/audwhat_stim/dummy.wav,stimulus/audwhat_stim/string viola_low-pitch_Dtri_loud.wav,stimulus/audwhat_stim/percussion mallet_low-pitch_Dtri_loud.wav,stimulus/audwhat_stim/blank_white.png,stimulus/audwhat_stim/category_box.png,stimulus/audwhat_stim/category_yes.png,stimulus/audwhat_stim/category_no.png,None,Category,None,Pitch,2,0.0,0,5.125,0,5.125,0,5.125,0,0.0,0.625,0,0.0,0,0.0,0,0.0,0,0.0,0,0.0,0,0.0,1,0.5,1,2.125,0,,,,,0,51,51,51,,,,,,,,,466.762555583,466.762555583,466.762555583,466.762555583,466.762555583,466.762555583,466.762555583,466.762555583,466.6757410833326,466.762555583,466.762555583,466.762555583,466.6757410833326,466.762555583,466.762555583,466.762555583,468.8474609999994,,466.762555583,466.762555583,471.9265665419998,466.762555583,466.762555583,466.762555583,466.762555583,467.236696125,468.2798172499997,467.20586445866616,,468.8474609999994,469.8904709999997,468.816410374666,,466.762555583,471.9265665419998,466.762555583,471.9265665419998,471.96845887499967,472.6385822079992,466.762555583,2,1,1.198354458000722,reldom2_s009,001,2025-01-30_12h22.24.285,What-B-Scan_AC,2022.2.5,None,
40,First_Order,7.0,audwhat,stimulus/audwhat_stim/dummy.wav,stimulus/audwhat_stim/dummy.wav,stimulus/audwhat_stim/string viola_high-pitch_F_loud.wav,stimulus/audwhat_stim/string viola_low-pitch_Ftri_loud.wav,stimulus/audwhat_stim/blank_white.png,stimulus/audwhat_stim/pitch_box.png,stimulus/audwhat_stim/pitch_yes.png,stimulus/audwhat_stim/pitch_no.png,None,Pitch,None,Category,2,0.0,0,5.125,0,5.125,0,5.125,0,0.0,0.625,0,0.0,0,0.0,0,0.0,0,0.0,0,0.0,0,0.0,1,0.5,1,2.125,0,,,,,0,52,52,52,,,,,,,,,472.85685549999926,472.85685549999926,472.85685549999926,472.85685549999926,472.85685549999926,472.85685549999926,472.85685549999926,472.85685549999926,472.77191554133253,472.85685549999926,472.85685549999926,472.85685549999926,472.77191554133253,472.85685549999926,472.85685549999926,472.85685549999926,474.93529341699923,478.9914974579997,472.85685549999926,472.85685549999926,478.04817145799916,472.85685549999926,472.85685549999926,472.85685549999926,472.85685549999926,473.32925095799965,474.36871537499974,473.2981191666661,,474.93529341699923,475.9741560829998,474.9044868746662,,472.85685549999926,478.04817145799916,472.85685549999926,478.04817145799916,478.04817145799916,478.7120197919994,472.85685549999926,2,1,1.1094484990007913,reldom2_s009,001,2025-01-30_12h22.24.285,What-B-Scan_AC,2022.2.5,None,
0,0.0,None,fixation,stimulus/viswhat_stim/blank_white.png,stimulus/viswhat_stim/blank_white.png,stimulus/audwhat_stim/blank_white.png,stimulus/audwhat_stim/blank_white.png,stimulus/viswhat_stim/blank_white.png,stimulus/viswhat_stim/blank_white.png,stimulus/viswhat_stim/blank_white.png,stimulus/viswhat_stim/blank_white.png,0.0,0.0,0.0,0.0,0,0.0,0,0.0,0,0.0,0,0.0,0,0.0,0.0,0,0.0,0,0.0,0,0.0,0,0.0,0,0.0,0,0.0,0,0.0,0,0.0,9,,,,,0,53,53,53,,,,,,,,,478.9914974579997,478.9914974579997,478.9914974579997,478.9914974579997,478.9914974579997,478.9914974579997,478.9914974579997,478.9914974579997,478.8866585833331,478.9914974579997,478.9914974579997,478.9914974579997,478.8866585833331,478.9914974579997,478.9914974579997,478.9914974579997,478.9914974579997,478.9914974579997,478.9914974579997,478.9914974579997,478.9914974579997,478.9914974579997,478.9914974579997,478.9914974579997,478.9914974579997,478.9914974579997,478.9914974579997,478.9366585833331,478.9914974579997,478.9914974579997,478.9914974579997,478.9366585833331,478.9914974579997,478.9914974579997,478.9914974579997,478.9914974579997,478.9914974579997,484.21211208299974,484.21211208299974,488.16714791699997,None,0,,reldom2_s009,001,2025-01-30_12h22.24.285,What-B-Scan_AC,2022.2.5,None,
41,Second_Order,7.0,audwhat,stimulus/audwhat_stim/percussion mallet_low-pitch_F_loud.wav,stimulus/audwhat_stim/percussion mallet_high-pitch_D_loud.wav,stimulus/audwhat_stim/string cello_low-pitch_Dtri_loud.wav,stimulus/audwhat_stim/string viola_high-pitch_F_loud.wav,stimulus/viswhat_stim/match_blank.png,stimulus/viswhat_stim/match_box.png,stimulus/viswhat_stim/match_yes.png,stimulus/viswhat_stim/match_no.png,1.0,Match,Category,Category,1,5.125,0,5.125,0,5.125,0,5.125,0,0.75,0.75,0,0.0,0,0.0,0,0.0,0,0.0,1,0.5,1,2.125,1,0.5,1,2.125,0,,,,,0,54,54,54,,,,,,,,,488.16714791699997,493.28203691699946,488.16714791699997,488.16714791699997,488.16714791699997,488.16714791699997,488.6195509999998,489.61860074999913,488.6328768336664,489.6267430829994,490.2411041669993,491.2386467919996,490.25323083366607,491.24707458299963,493.28203691699946,494.1102611669994,496.1889852919994,500.13084208299915,494.1102611669994,494.1102611669994,499.3016761249992,494.1102611669994,494.1102611669994,494.1102611669994,494.1102611669994,494.58235729199987,495.6209195419997,494.5518497496662,,496.1889852919994,497.22770474999925,496.15817695866576,,494.1102611669994,499.3016761249992,494.1102611669994,499.3016761249992,499.3016761249992,,494.1102611669994,1,1,1.6369452910012114,reldom2_s009,001,2025-01-30_12h22.24.285,What-B-Scan_AC,2022.2.5,None,
42,Second_Order,7.0,audwhat,stimulus/audwhat_stim/percussion mallet_high-pitch_Ftri_loud.wav,stimulus/audwhat_stim/percussion mallet_low-pitch_F_loud.wav,stimulus/audwhat_stim/percussion mallet_low-pitch_Dtri_loud.wav,stimulus/audwhat_stim/string viola_low-pitch_Dtri_loud.wav,stimulus/viswhat_stim/match_blank.png,stimulus/viswhat_stim/match_box.png,stimulus/viswhat_stim/match_yes.png,stimulus/viswhat_stim/match_no.png,2.0,Match,Category,Pitch,2,5.125,0,5.125,0,5.125,0,5.125,0,0.625,0.625,0,0.0,0,0.0,0,0.0,0,0.0,1,0.5,1,2.125,1,0.5,1,2.125,0,,,,,0,55,55,55,,,,,,,,,500.13084208299915,505.2546537919998,500.13084208299915,500.13084208299915,500.13084208299915,500.13084208299915,500.5808331249991,501.57931816699966,500.59349245866656,501.58763691699914,502.20171845799996,503.199684917,502.2139356246664,503.2071719579999,505.2546537919998,505.9770799579992,508.0505100419996,512.1030267919996,505.9770799579992,505.9770799579992,511.1572445419997,505.9770799579992,505.9770799579992,505.9770799579992,505.9770799579992,506.4490644999996,507.4855175419998,506.4186234996662,,508.0505100419996,509.0869737079993,508.0198437496658,,505.9770799579992,511.1572445419997,505.9770799579992,511.1572445419997,511.1572445419997,511.8212458749995,505.9770799579992,2,1,1.6247902080003769,reldom2_s009,001,2025-01-30_12h22.24.285,What-B-Scan_AC,2022.2.5,None,
0,0.0,None,fixation,stimulus/viswhat_stim/blank_white.png,stimulus/viswhat_stim/blank_white.png,stimulus/audwhat_stim/blank_white.png,stimulus/audwhat_stim/blank_white.png,stimulus/viswhat_stim/blank_white.png,stimulus/viswhat_stim/blank_white.png,stimulus/viswhat_stim/blank_white.png,stimulus/viswhat_stim/blank_white.png,0.0,0.0,0.0,0.0,0,0.0,0,0.0,0,0.0,0,0.0,0,0.0,0.0,0,0.0,0,0.0,0,0.0,0,0.0,0,0.0,0,0.0,0,0.0,0,0.0,9,,,,,0,56,56,56,,,,,,,,,512.1030267919996,512.1030267919996,512.1030267919996,512.1030267919996,512.1030267919996,512.1030267919996,512.1030267919996,512.1030267919996,511.9955480413329,512.1030267919996,512.1030267919996,512.1030267919996,511.9955480413329,512.1030267919996,512.1030267919996,512.1030267919996,512.1030267919996,512.1030267919996,512.1030267919996,512.1030267919996,512.1030267919996,512.1030267919996,512.1030267919996,512.1030267919996,512.1030267919996,512.1030267919996,512.1030267919996,512.0622147079995,512.1030267919996,512.1030267919996,512.1030267919996,512.0622147079995,512.1030267919996,512.1030267919996,512.1030267919996,512.1030267919996,512.1030267919996,517.3290677499999,517.3290677499999,521.3736720829993,None,0,,reldom2_s009,001,2025-01-30_12h22.24.285,What-B-Scan_AC,2022.2.5,None,
43,First_Order,8.0,audwhat,stimulus/audwhat_stim/dummy.wav,stimulus/audwhat_stim/dummy.wav,stimulus/audwhat_stim/string cello_high-pitch_D_loud.wav,stimulus/audwhat_stim/string cello_low-pitch_F_loud.wav,stimulus/audwhat_stim/blank_white.png,stimulus/audwhat_stim/pitch_box.png,stimulus/audwhat_stim/pitch_yes.png,stimulus/audwhat_stim/pitch_no.png,None,Pitch,None,Category,2,0.0,0,5.125,0,5.125,0,5.125,0,0.0,0.625,0,0.0,0,0.0,0,0.0,0,0.0,0,0.0,0,0.0,1,0.5,1,2.125,0,,,,,0,57,57,57,,,,,,,,,521.3736720829993,521.3736720829993,521.3736720829993,521.3736720829993,521.3736720829993,521.3736720829993,521.3736720829993,521.3736720829993,521.2935457916661,521.3736720829993,521.3736720829993,521.3736720829993,521.2935457916661,521.3736720829993,521.3736720829993,521.3736720829993,523.4503796669997,527.4910646249991,521.3736720829993,521.3736720829993,526.5648447499998,521.3736720829993,521.3736720829993,521.3736720829993,521.3736720829993,521.8462898329999,522.885464,521.8153123746663,,523.4503796669997,524.4937102079994,523.4198079586661,,521.3736720829993,526.5648447499998,521.3736720829993,526.5648447499998,526.5648447499998,527.2296870419996,521.3736720829993,2,1,0.6592608750006548,reldom2_s009,001,2025-01-30_12h22.24.285,What-B-Scan_AC,2022.2.5,None,
44,First_Order,8.0,audwhat,stimulus/audwhat_stim/dummy.wav,stimulus/audwhat_stim/dummy.wav,stimulus/audwhat_stim/percussion mallet_low-pitch_F_loud.wav,stimulus/audwhat_stim/string cello_low-pitch_F_loud.wav,stimulus/audwhat_stim/blank_white.png,stimulus/audwhat_stim/pitch_box.png,stimulus/audwhat_stim/pitch_yes.png,stimulus/audwhat_stim/pitch_no.png,None,Pitch,None,Pitch,1,0.0,0,5.125,0,5.125,0,5.125,0,0.0,0.625,0,0.0,0,0.0,0,0.0,0,0.0,0,0.0,0,0.0,1,0.5,1,2.125,0,,,,,0,58,58,58,,,,,,,,,527.4910646249991,527.4910646249991,527.4910646249991,527.4910646249991,527.4910646249991,527.4910646249991,527.4910646249991,527.4910646249991,527.4048601253327,527.4910646249991,527.4910646249991,527.4910646249991,527.4048601253327,527.4910646249991,527.4910646249991,527.4910646249991,529.5671857919997,533.611203167,527.4910646249991,527.4910646249991,532.681808458,527.4910646249991,527.4910646249991,527.4910646249991,527.4910646249991,527.9615048329997,529.0033987919996,527.9309712916659,,529.5671857919997,530.6069645419993,529.5370082496659,,527.4910646249991,532.681808458,527.4910646249991,532.681808458,532.681808458,533.3468813329991,527.4910646249991,1,1,1.533585999000934,reldom2_s009,001,2025-01-30_12h22.24.285,What-B-Scan_AC,2022.2.5,None,
45,First_Order,8.0,audwhat,stimulus/audwhat_stim/dummy.wav,stimulus/audwhat_stim/dummy.wav,stimulus/audwhat_stim/string viola_low-pitch_Dtri_loud.wav,stimulus/audwhat_stim/string cello_high-pitch_Ftri_loud.wav,stimulus/audwhat_stim/blank_white.png,stimulus/audwhat_stim/category_box.png,stimulus/audwhat_stim/category_yes.png,stimulus/audwhat_stim/category_no.png,None,Category,None,Category,1,0.0,0,5.125,0,5.125,0,5.125,0,0.0,0.625,0,0.0,0,0.0,0,0.0,0,0.0,0,0.0,0,0.0,1,0.5,1,2.125,0,,,,,0,59,59,59,,,,,,,,,533.611203167,533.611203167,533.611203167,533.611203167,533.611203167,533.611203167,533.611203167,533.611203167,533.5218123333326,533.611203167,533.611203167,533.611203167,533.5218123333326,533.611203167,533.611203167,533.611203167,535.7041427499998,,533.611203167,533.611203167,538.7860473749997,533.611203167,533.611203167,533.611203167,533.611203167,534.0880378749998,535.1326644579995,534.0571949586658,,535.7041427499998,536.750470125,535.6722824166666,,533.611203167,538.7860473749997,533.611203167,538.7860473749997,538.8281486249998,539.494868625,533.611203167,1,1,1.0387654170008318,reldom2_s009,001,2025-01-30_12h22.24.285,What-B-Scan_AC,2022.2.5,None,
46,First_Order,8.0,audwhat,stimulus/audwhat_stim/dummy.wav,stimulus/audwhat_stim/dummy.wav,stimulus/audwhat_stim/string viola_high-pitch_Ftri_loud.wav,stimulus/audwhat_stim/percussion xylophone_high-pitch_Ftri_loud.wav,stimulus/audwhat_stim/blank_white.png,stimulus/audwhat_stim/category_box.png,stimulus/audwhat_stim/category_yes.png,stimulus/audwhat_stim/category_no.png,None,Category,None,Pitch,2,0.0,0,5.125,0,5.125,0,5.125,0,0.0,0.625,0,0.0,0,0.0,0,0.0,0,0.0,0,0.0,0,0.0,1,0.5,1,2.125,0,,,,,0,60,60,60,,,,,,,,,539.7138173329995,539.7138173329995,539.7138173329995,539.7138173329995,539.7138173329995,539.7138173329995,539.7138173329995,539.7138173329995,539.6282019583333,539.7138173329995,539.7138173329995,539.7138173329995,539.6282019583333,539.7138173329995,539.7138173329995,539.7138173329995,541.7996785419991,,539.7138173329995,539.7138173329995,544.8849985829993,539.7138173329995,539.7138173329995,539.7138173329995,539.7138173329995,540.1901030419995,541.2313674999996,540.1591807916659,,541.7996785419991,542.8524856249996,541.7686984586664,542.8051879999994,539.7138173329995,544.8849985829993,539.7138173329995,544.8849985829993,544.9268890419999,545.5940329579998,539.7138173329995,2,1,0.7430581670005267,reldom2_s009,001,2025-01-30_12h22.24.285,What-B-Scan_AC,2022.2.5,None,
0,0.0,None,fixation,stimulus/viswhat_stim/blank_white.png,stimulus/viswhat_stim/blank_white.png,stimulus/audwhat_stim/blank_white.png,stimulus/audwhat_stim/blank_white.png,stimulus/viswhat_stim/blank_white.png,stimulus/viswhat_stim/blank_white.png,stimulus/viswhat_stim/blank_white.png,stimulus/viswhat_stim/blank_white.png,0.0,0.0,0.0,0.0,0,0.0,0,0.0,0,0.0,0,0.0,0,0.0,0.0,0,0.0,0,0.0,0,0.0,0,0.0,0,0.0,0,0.0,0,0.0,0,0.0,8,,,,,0,61,61,61,,,,,,,,,545.832094333,545.832094333,545.832094333,545.832094333,545.832094333,545.832094333,545.832094333,545.832094333,545.7273662913332,545.832094333,545.832094333,545.832094333,545.7273662913332,545.832094333,545.832094333,545.832094333,545.832094333,545.832094333,545.832094333,545.832094333,545.832094333,545.832094333,545.832094333,545.832094333,545.832094333,545.832094333,545.832094333,545.7773662913331,545.832094333,545.832094333,545.832094333,545.7773662913331,545.832094333,545.832094333,545.832094333,545.832094333,545.832094333,551.0590209169995,551.0590209169995,553.9837992919993,None,0,,reldom2_s009,001,2025-01-30_12h22.24.285,What-B-Scan_AC,2022.2.5,None,
47,Second_Order,8.0,audwhat,stimulus/audwhat_stim/string cello_low-pitch_Dtri_loud.wav,stimulus/audwhat_stim/string viola_high-pitch_D_loud.wav,stimulus/audwhat_stim/percussion xylophone_high-pitch_F_loud.wav,stimulus/audwhat_stim/percussion mallet_low-pitch_D_loud.wav,stimulus/viswhat_stim/match_blank.png,stimulus/viswhat_stim/match_box.png,stimulus/viswhat_stim/match_yes.png,stimulus/viswhat_stim/match_no.png,1.0,Match,Category,Category,1,5.125,0,5.125,0,5.125,0,5.125,0,0.75,0.75,0,0.0,0,0.0,0,0.0,0,0.0,1,0.5,1,2.125,1,0.5,1,2.125,0,,,,,0,62,62,62,,,,,,,,,553.9837992919993,559.1003592919997,553.9837992919993,553.9837992919993,553.9837992919993,553.9837992919993,554.4386057499996,555.4370429579994,554.4512943746661,,556.0592581249994,557.0572686669993,556.071520083666,,559.1003592919997,559.9378964999996,562.0224516669996,,559.9378964999996,559.9378964999996,565.0891608329994,559.9378964999996,559.9378964999996,559.9378964999996,559.9378964999996,560.4132167919997,561.4563261669991,560.3815698336659,561.4563261669991,562.0224516669996,563.0644562079997,561.9908430416665,,559.9378964999996,565.0891608329994,559.9378964999996,565.0891608329994,565.1310456249994,,559.9378964999996,1,1,0.6282591250010228,reldom2_s009,001,2025-01-30_12h22.24.285,What-B-Scan_AC,2022.2.5,None,
48,Second_Order,8.0,audwhat,stimulus/audwhat_stim/percussion mallet_high-pitch_D_loud.wav,stimulus/audwhat_stim/percussion mallet_low-pitch_Dtri_loud.wav,stimulus/audwhat_stim/string viola_high-pitch_F_loud.wav,stimulus/audwhat_stim/string viola_low-pitch_Dtri_loud.wav,stimulus/viswhat_stim/match_blank.png,stimulus/viswhat_stim/match_box.png,stimulus/viswhat_stim/match_yes.png,stimulus/viswhat_stim/match_no.png,1.0,Match,Category,Category,1,5.125,0,5.125,0,5.125,0,5.125,0,0.625,0.625,0,0.0,0,0.0,0,0.0,0,0.0,1,0.5,1,2.125,1,0.5,1,2.125,0,,,,,0,63,63,63,,,,,,,,,565.9185490419995,571.0399708749992,565.9185490419995,565.9185490419995,565.9185490419995,565.9185490419995,566.3661939579997,567.3648324999995,566.378792083666,567.3727814999993,567.999566083,568.9895763329996,568.0040469996659,569.0016225419995,571.0399708749992,571.7585277079997,573.8272472499993,577.8852374579992,571.7585277079997,571.7585277079997,576.940241583,571.7585277079997,571.7585277079997,571.7585277079997,571.7585277079997,572.2284157919994,573.2640218329998,572.1978086246665,,573.8272472499993,574.868325208,573.7962431246663,,571.7585277079997,576.940241583,571.7585277079997,576.940241583,576.940241583,577.6041229999992,571.7585277079997,1,1,1.1576087490002465,reldom2_s009,001,2025-01-30_12h22.24.285,What-B-Scan_AC,2022.2.5,None,
0,0.0,None,fixation,stimulus/viswhat_stim/blank_white.png,stimulus/viswhat_stim/blank_white.png,stimulus/audwhat_stim/blank_white.png,stimulus/audwhat_stim/blank_white.png,stimulus/viswhat_stim/blank_white.png,stimulus/viswhat_stim/blank_white.png,stimulus/viswhat_stim/blank_white.png,stimulus/viswhat_stim/blank_white.png,0.0,0.0,0.0,0.0,0,0.0,0,0.0,0,0.0,0,0.0,0,0.0,0.0,0,0.0,0,0.0,0,0.0,0,0.0,0,0.0,0,0.0,0,0.0,0,0.0,16,,,,,0,64,64,64,,,,,,,,,577.8852374579992,577.8852374579992,577.8852374579992,577.8852374579992,577.8852374579992,577.8852374579992,577.8852374579992,577.8852374579992,577.7790359583333,577.8852374579992,577.8852374579992,577.8852374579992,577.7790359583333,577.8852374579992,577.8852374579992,577.8852374579992,577.8852374579992,577.8852374579992,577.8852374579992,577.8852374579992,577.8852374579992,577.8852374579992,577.8852374579992,577.8852374579992,577.8852374579992,577.8852374579992,577.8852374579992,577.845702625,577.8852374579992,577.8852374579992,577.8852374579992,577.845702625,577.8852374579992,577.8852374579992,577.8852374579992,577.8852374579992,577.8852374579992,583.0948482919994,583.0948482919994,594.0453445829999,None,0,,reldom2_s009,001,2025-01-30_12h22.24.285,What-B-Scan_AC,2022.2.5,None,
