Trial,Order,Block,Type,Stimuli_File1,Stimuli_File2,Stimuli_File3,Stimuli_File4,Cue_File1,Cue_File2,Response_File_Yes,Response_File_No,Match,Cue_Dimension,Pair1_Dimension,Pair2_Dimension,Key,Cue1_Duration,Cue1_Onset,Cue2_Duration,Cue2_Onset,ResponseYes_Duration,ResponseYes_Onset,ResponseNo_Duration,ResponseNo_Onset,ITI_Within,ITI_Between,Image1_Duration,Image1_Onset,Image2_Duration,Image2_Onset,Image3_Duration,Image3_Onset,Image4_Duration,Image4_Onset,Sound1_Duration,Sound1_Onset,Sound2_Duration,Sound2_Onset,Sound3_Duration,Sound3_Onset,Sound4_Duration,Sound4_Onset,Fixation_Duration,trials_2.thisRepN,trials_2.thisTrialN,trials_2.thisN,trials_2.thisIndex,trials.thisRepN,trials.thisTrialN,trials.thisN,trials.thisIndex,text_start.started,key_resp_start.started,key_resp_start.keys,key_resp_start.rt,cue_file1.started,cue_file1.stopped,image_1.started,image_1.stopped,image_2.started,image_2.stopped,sound_icon1.started,sound_icon1.stopped,sound_1.started,sound_1.stopped,sound_icon2.started,sound_icon2.stopped,sound_2.started,sound_2.stopped,image_blank_1.started,image_blank_1.stopped,key_press.started,key_press.stopped,fixation_text.started,cue_file2.started,cue_file2.stopped,image_3.started,image_3.stopped,image_4.started,image_4.stopped,sound_icon3.started,sound_icon3.stopped,sound_3.started,sound_3.stopped,sound_icon4.started,sound_icon4.stopped,sound_4.started,sound_4.stopped,response_yes.started,response_yes.stopped,response_no.started,response_no.stopped,iti_blank.started,iti_blank.stopped,fixation_text.stopped,key_press.keys,key_press.corr,key_press.rt,text_score.started,participant,session,date,expName,psychopyVersion,frameRate,
,,,,,,,,,,,,,,,,,,,,,,,,,,,,,,,,,,,,,,,,,,,,,,,,,,,,8.907216457999311,8.907216457999311,2,1.802679749962408,,,,,,,,,,,,,,,,,,,,,,,,,,,,,,,,,,,,,,,,,,,,,reldom2_s009,001,2025-01-30_11h19.12.771,practice_test2_AC,2022.2.5,None,
,,,,,,,,,,,,,,,,,,,,,,,,,,,,,,,,,,,,,,,,,,,,0,0,0,0,,,,,,,,,,,,,,,,,,,,,,,,,,,,,,,,,,,,,,,,,,,,,,,,,,,,,reldom2_s009,001,2025-01-30_11h19.12.771,practice_test2_AC,2022.2.5,None,
,,,,,,,,,,,,,,,,,,,,,,,,,,,,,,,,,,,,,,,,,,,,1,0,1,0,,,,,,,,,,,,,,,,,,,,,,,,,,,,,,,,,,,,,,,,,,,,,,,,,,,,,reldom2_s009,001,2025-01-30_11h19.12.771,practice_test2_AC,2022.2.5,None,
,,,,,,,,,,,,,,,,,,,,,,,,,,,,,,,,,,,,,,,,,,,,2,0,2,0,,,,,,,,,,,,,,,,,,,,,,,,,,,,,,,,,,,,,,,,,,,,,,,,,,,,,reldom2_s009,001,2025-01-30_11h19.12.771,practice_test2_AC,2022.2.5,None,
,,,,,,,,,,,,,,,,,,,,,,,,,,,,,,,,,,,,,,,,,,,,3,0,3,0,,,,,,,,,,,,,,,,,,,,,,,,,,,,,,,,,,,,,,,,,,,,,,,,,,,,,reldom2_s009,001,2025-01-30_11h19.12.771,practice_test2_AC,2022.2.5,None,
0,0.0,None,fixation,stimulus/viswhat_stim/blank_white.png,stimulus/viswhat_stim/blank_white.png,stimulus/audwhat_stim/blank_white.png,stimulus/audwhat_stim/blank_white.png,stimulus/viswhat_stim/blank_white.png,stimulus/viswhat_stim/blank_white.png,stimulus/viswhat_stim/blank_white.png,stimulus/viswhat_stim/blank_white.png,0.0,0.0,0.0,0.0,0,0.0,0,0.0,0,0.0,0,0.0,0,0.0,0.0,0,0.0,0,0.0,0,0.0,0,0.0,0,0.0,0,0.0,0,0.0,0,0.0,6,,,,,0,0,0,0,,,,,10.946084292023443,10.946084292023443,10.946084292023443,10.946084292023443,10.946084292023443,10.946084292023443,10.946084292023443,10.946084292023443,10.828055041694704,10.946084292023443,10.946084292023443,10.946084292023443,10.828055041694704,10.946084292023443,10.946084292023443,10.946084292023443,10.946084292023443,10.946084292023443,10.946084292023443,10.946084292023443,10.946084292023443,10.946084292023443,10.946084292023443,10.946084292023443,10.946084292023443,10.946084292023443,10.946084292023443,10.89472170836137,10.946084292023443,10.946084292023443,10.946084292023443,10.89472170836137,10.946084292023443,10.946084292023443,10.946084292023443,10.946084292023443,10.946084292023443,16.138276708021294,16.138276708021294,17.197419167030603,None,0,,,reldom2_s009,001,2025-01-30_11h19.12.771,practice_test2_AC,2022.2.5,None,
1,First_Order,1.0,viswhat,stimulus/viswhat_stim/blank_white.png,stimulus/viswhat_stim/blank_white.png,stimulus/viswhat_stim/land_vehicle-vespa.png,stimulus/viswhat_stim/water_vehicle-yacht.png,stimulus/viswhat_stim/blank_white.png,stimulus/viswhat_stim/type_box.png,stimulus/viswhat_stim/type_yes.png,stimulus/viswhat_stim/type_no.png,None,Type,None,Type,1,0.0,0,5.25,0,5.25,0,5.25,0,0.0,0.75,0,0.0,0,0.0,1,0.5,1,2.125,0,0.0,0,0.0,0,0.0,0,0.0,0,,,,,0,1,1,1,,,,,17.197419167030603,17.197419167030603,17.197419167030603,17.197419167030603,17.197419167030603,17.197419167030603,17.197419167030603,17.197419167030603,17.119103750016073,17.197419167030603,17.197419167030603,17.197419167030603,17.119103750016073,17.197419167030603,17.197419167030603,17.197419167030603,19.297584208019543,23.162527541979216,17.197419167030603,17.197419167030603,22.495500833028927,17.65445324999746,18.706696291978005,19.297584208019543,20.352939292031806,17.197419167030603,17.197419167030603,17.169103750016074,17.197419167030603,17.197419167030603,17.197419167030603,17.169103750016074,17.197419167030603,17.197419167030603,22.495500833028927,17.197419167030603,22.495500833028927,22.410561666998547,23.36647616699338,17.197419167030603,1,1,1.884324792015832,,reldom2_s009,001,2025-01-30_11h19.12.771,practice_test2_AC,2022.2.5,None,
2,First_Order,1.0,viswhat,stimulus/viswhat_stim/blank_white.png,stimulus/viswhat_stim/blank_white.png,stimulus/viswhat_stim/water_vehicle-cargoboat.png,stimulus/viswhat_stim/land_vehicle-oldcar.png,stimulus/viswhat_stim/blank_white.png,stimulus/viswhat_stim/location_box.png,stimulus/viswhat_stim/location_yes.png,stimulus/viswhat_stim/location_no.png,None,Location,None,Type,2,0.0,0,5.25,0,5.25,0,5.25,0,0.0,0.75,0,0.0,0,0.0,1,0.5,1,2.125,0,0.0,0,0.0,0,0.0,0,0.0,0,,,,,0,2,2,2,,,,,23.36647616699338,23.36647616699338,23.36647616699338,23.36647616699338,23.36647616699338,23.36647616699338,23.36647616699338,23.36647616699338,23.29586087531255,23.36647616699338,23.36647616699338,23.36647616699338,23.29586087531255,23.36647616699338,23.36647616699338,23.36647616699338,25.459152750030626,29.332395249977708,23.36647616699338,23.36647616699338,28.651988000026904,23.8312916670111,24.86622687499039,25.459152750030626,26.493682167027146,23.36647616699338,23.36647616699338,23.32919420864588,23.36647616699338,23.36647616699338,23.36647616699338,23.32919420864588,23.36647616699338,23.36647616699338,28.651988000026904,23.36647616699338,28.651988000026904,28.56458908302011,29.57757754198974,23.36647616699338,2,1,1.0778238749480806,,reldom2_s009,001,2025-01-30_11h19.12.771,practice_test2_AC,2022.2.5,None,
3,First_Order,1.0,viswhat,stimulus/viswhat_stim/blank_white.png,stimulus/viswhat_stim/blank_white.png,stimulus/viswhat_stim/land_vehicle-vespa.png,stimulus/viswhat_stim/water_vehicle-sailboat.png,stimulus/viswhat_stim/blank_white.png,stimulus/viswhat_stim/type_box.png,stimulus/viswhat_stim/type_yes.png,stimulus/viswhat_stim/type_no.png,None,Type,None,Type,1,0.0,0,5.25,0,5.25,0,5.25,0,0.0,0.75,0,0.0,0,0.0,1,0.5,1,2.125,0,0.0,0,0.0,0,0.0,0,0.0,0,,,,,0,3,3,3,,,,,29.57757754198974,29.57757754198974,29.57757754198974,29.57757754198974,29.57757754198974,29.57757754198974,29.57757754198974,29.57757754198974,29.46572858331104,29.57757754198974,29.57757754198974,29.57757754198974,29.46572858331104,29.57757754198974,29.57757754198974,29.57757754198974,31.668068333005067,35.521097249991726,29.57757754198974,29.57757754198974,34.88637770799687,30.041502917010803,31.088161332998425,31.668068333005067,32.7724982079817,29.57757754198974,29.57757754198974,29.51572858331104,29.57757754198974,29.57757754198974,29.57757754198974,29.51572858331104,29.57757754198974,29.57757754198974,34.88637770799687,29.57757754198974,34.88637770799687,34.76350250001997,36.06165295798564,29.57757754198974,1,1,1.3022131669567898,,reldom2_s009,001,2025-01-30_11h19.12.771,practice_test2_AC,2022.2.5,None,
4,First_Order,1.0,viswhat,stimulus/viswhat_stim/blank_white.png,stimulus/viswhat_stim/blank_white.png,stimulus/viswhat_stim/land_animal-elephant.png,stimulus/viswhat_stim/water_animal-lobster.png,stimulus/viswhat_stim/blank_white.png,stimulus/viswhat_stim/location_box.png,stimulus/viswhat_stim/location_yes.png,stimulus/viswhat_stim/location_no.png,None,Location,None,Type,2,0.0,0,5.25,0,5.25,0,5.25,0,0.0,0.75,0,0.0,0,0.0,1,0.5,1,2.125,0,0.0,0,0.0,0,0.0,0,0.0,0,,,,,0,4,4,4,,,,,36.06165295798564,36.06165295798564,36.06165295798564,36.06165295798564,36.06165295798564,36.06165295798564,36.06165295798564,36.06165295798564,35.68776391665839,36.06165295798564,36.06165295798564,36.06165295798564,35.68776391665839,36.06165295798564,36.06165295798564,36.06165295798564,37.98019095801283,41.88979995797854,36.06165295798564,36.06165295798564,41.52965416701045,36.44408062502043,37.79278704198077,37.98019095801283,39.29170400003204,36.06165295798564,36.06165295798564,35.88776391665839,36.06165295798564,36.06165295798564,36.06165295798564,35.88776391665839,36.06165295798564,36.06165295798564,41.52965416701045,36.06165295798564,41.52965416701045,41.1628859579796,42.585937625030056,36.06165295798564,2,1,1.9109343759482726,,reldom2_s009,001,2025-01-30_11h19.12.771,practice_test2_AC,2022.2.5,None,
0,0.0,None,fixation,stimulus/viswhat_stim/blank_white.png,stimulus/viswhat_stim/blank_white.png,stimulus/audwhat_stim/blank_white.png,stimulus/audwhat_stim/blank_white.png,stimulus/viswhat_stim/blank_white.png,stimulus/viswhat_stim/blank_white.png,stimulus/viswhat_stim/blank_white.png,stimulus/viswhat_stim/blank_white.png,0.0,0.0,0.0,0.0,0,0.0,0,0.0,0,0.0,0,0.0,0,0.0,0.0,0,0.0,0,0.0,0,0.0,0,0.0,0,0.0,0,0.0,0,0.0,0,0.0,6,,,,,0,5,5,5,,,,,42.585937625030056,42.585937625030056,42.585937625030056,42.585937625030056,42.585937625030056,42.585937625030056,42.585937625030056,42.585937625030056,42.4864715836981,42.585937625030056,42.585937625030056,42.585937625030056,42.4864715836981,42.585937625030056,42.585937625030056,42.585937625030056,42.585937625030056,42.585937625030056,42.585937625030056,42.585937625030056,42.585937625030056,42.585937625030056,42.585937625030056,42.585937625030056,42.585937625030056,42.585937625030056,42.585937625030056,42.5364715836981,42.585937625030056,42.585937625030056,42.585937625030056,42.5364715836981,42.585937625030056,42.585937625030056,42.585937625030056,42.585937625030056,42.585937625030056,47.77578787499806,47.77578787499806,48.773204375000205,None,0,,,reldom2_s009,001,2025-01-30_11h19.12.771,practice_test2_AC,2022.2.5,None,
5,Second_Order,1.0,viswhat,stimulus/viswhat_stim/land_animal-giraffe.png,stimulus/viswhat_stim/water_animal-stingray.png,stimulus/viswhat_stim/land_vehicle-trolley.png,stimulus/viswhat_stim/land_animal-elephant.png,stimulus/viswhat_stim/match_blank.png,stimulus/viswhat_stim/match_box.png,stimulus/viswhat_stim/match_yes.png,stimulus/viswhat_stim/match_no.png,2.0,Match,Type,Location,2,5.25,0,5.25,0,5.25,0,5.25,0,0.75,0.75,1,0.5,1,2.125,1,0.5,1,2.125,0,0.0,0,0.0,0,0.0,0,0.0,0,,,,,0,6,6,6,,,,,48.773204375000205,54.01930550002726,49.21772658301052,50.21340616699308,50.84888879198115,51.85078641702421,48.773204375000205,48.773204375000205,48.770984208013395,48.773204375000205,48.773204375000205,48.773204375000205,48.770984208013395,48.773204375000205,54.01930550002726,54.91432945802808,56.9510514169815,60.8358910829993,54.91432945802808,54.91432945802808,60.26380570803303,55.36285987502197,56.4428347920184,56.9510514169815,58.03727941698162,54.91432945802808,54.91432945802808,54.8565611670143,54.91432945802808,54.91432945802808,54.91432945802808,54.8565611670143,54.91432945802808,54.91432945802808,60.26380570803303,54.91432945802808,60.26380570803303,60.07987337501254,60.995948416995816,54.91432945802808,2,1,1.514024874952156,,reldom2_s009,001,2025-01-30_11h19.12.771,practice_test2_AC,2022.2.5,None,
6,Second_Order,1.0,viswhat,stimulus/viswhat_stim/land_vehicle-scooter.png,stimulus/viswhat_stim/land_animal-moose.png,stimulus/viswhat_stim/water_vehicle-powercruiser.png,stimulus/viswhat_stim/land_vehicle-truck.png,stimulus/viswhat_stim/match_blank.png,stimulus/viswhat_stim/match_box.png,stimulus/viswhat_stim/match_yes.png,stimulus/viswhat_stim/match_no.png,2.0,Match,Location,Type,2,5.25,0,5.25,0,5.25,0,5.25,0,0.75,0.75,1,0.5,1,2.125,1,0.5,1,2.125,0,0.0,0,0.0,0,0.0,0,0.0,0,,,,,0,7,7,7,,,,,60.995948416995816,66.24267691699788,61.43568745802622,62.431240333011374,63.06800816702889,64.05881550000049,60.995948416995816,60.995948416995816,61.00255774966596,60.995948416995816,60.995948416995816,60.995948416995816,61.00255774966596,60.995948416995816,66.24267691699788,67.05259158299305,69.12205729202833,72.9975114170229,67.05259158299305,67.05259158299305,72.31923520797864,67.5098986250232,68.54371591698145,69.12205729202833,70.13390675000846,67.05259158299305,67.05259158299305,67.02637812502216,67.05259158299305,67.05259158299305,67.05259158299305,67.02637812502216,67.05259158299305,67.05259158299305,72.31923520797864,67.05259158299305,72.31923520797864,72.2460548329982,73.19404154201038,67.05259158299305,2,1,1.1772048339480534,,reldom2_s009,001,2025-01-30_11h19.12.771,practice_test2_AC,2022.2.5,None,
0,0.0,None,fixation,stimulus/viswhat_stim/blank_white.png,stimulus/viswhat_stim/blank_white.png,stimulus/audwhat_stim/blank_white.png,stimulus/audwhat_stim/blank_white.png,stimulus/viswhat_stim/blank_white.png,stimulus/viswhat_stim/blank_white.png,stimulus/viswhat_stim/blank_white.png,stimulus/viswhat_stim/blank_white.png,0.0,0.0,0.0,0.0,0,0.0,0,0.0,0,0.0,0,0.0,0,0.0,0.0,0,0.0,0,0.0,0,0.0,0,0.0,0,0.0,0,0.0,0,0.0,0,0.0,7,,,,,0,8,8,8,,,,,73.19404154201038,73.19404154201038,73.19404154201038,73.19404154201038,73.19404154201038,73.19404154201038,73.19404154201038,73.19404154201038,73.0975114170229,73.19404154201038,73.19404154201038,73.19404154201038,73.0975114170229,73.19404154201038,73.19404154201038,73.19404154201038,73.19404154201038,73.19404154201038,73.19404154201038,73.19404154201038,73.19404154201038,73.19404154201038,73.19404154201038,73.19404154201038,73.19404154201038,73.19404154201038,73.19404154201038,73.14751141702291,73.19404154201038,73.19404154201038,73.19404154201038,73.14751141702291,73.19404154201038,73.19404154201038,73.19404154201038,73.19404154201038,73.19404154201038,78.37626295798691,78.37626295798691,80.42377262498485,None,0,,,reldom2_s009,001,2025-01-30_11h19.12.771,practice_test2_AC,2022.2.5,None,
7,First_Order,2.0,audwhat,stimulus/audwhat_stim/dummy.wav,stimulus/audwhat_stim/dummy.wav,stimulus/audwhat_stim/percussion xylophone_high-pitch_Ftri_loud.wav,stimulus/audwhat_stim/percussion mallet_low-pitch_F_loud.wav,stimulus/audwhat_stim/blank_white.png,stimulus/audwhat_stim/category_box.png,stimulus/audwhat_stim/category_yes.png,stimulus/audwhat_stim/category_no.png,None,Category,None,Category,1,0.0,0,5.25,0,5.25,0,5.25,0,0.0,0.75,0,0.0,0,0.0,0,0.0,0,0.0,0,0.0,0,0.0,1,0.5,1,2.125,0,,,,,0,9,9,9,,,,,80.42377262498485,80.42377262498485,80.42377262498485,80.42377262498485,80.42377262498485,80.42377262498485,80.42377262498485,80.42377262498485,80.34478524965623,80.42377262498485,80.42377262498485,80.42377262498485,80.34478524965623,80.42377262498485,80.42377262498485,80.42377262498485,82.4922469999874,86.3879998329794,80.42377262498485,80.42377262498485,85.72232158301631,80.42377262498485,80.42377262498485,80.42377262498485,80.42377262498485,80.87834329198813,81.93705941701774,80.84439624968606,81.88661420799326,82.4922469999874,83.55326100002276,82.45827674965064,,80.42377262498485,85.72232158301631,80.42377262498485,85.72232158301631,85.62812062498415,86.60911249998026,80.42377262498485,2,0,2.471569124958478,,reldom2_s009,001,2025-01-30_11h19.12.771,practice_test2_AC,2022.2.5,None,
8,First_Order,2.0,audwhat,stimulus/audwhat_stim/dummy.wav,stimulus/audwhat_stim/dummy.wav,stimulus/audwhat_stim/percussion xylophone_high-pitch_F_loud.wav,stimulus/audwhat_stim/percussion mallet_low-pitch_D_loud.wav,stimulus/audwhat_stim/blank_white.png,stimulus/audwhat_stim/pitch_box.png,stimulus/audwhat_stim/pitch_yes.png,stimulus/audwhat_stim/pitch_no.png,None,Pitch,None,Category,2,0.0,0,5.25,0,5.25,0,5.25,0,0.0,0.75,0,0.0,0,0.0,0,0.0,0,0.0,0,0.0,0,0.0,1,0.5,1,2.125,0,,,,,0,10,10,10,,,,,86.60911249998026,86.60911249998026,86.60911249998026,86.60911249998026,86.60911249998026,86.60911249998026,86.60911249998026,86.60911249998026,86.52133316631273,86.60911249998026,86.60911249998026,86.60911249998026,86.52133316631273,86.60911249998026,86.60911249998026,86.60911249998026,88.71601687499788,92.5447963749757,86.60911249998026,86.60911249998026,91.93085170799168,86.60911249998026,86.60911249998026,86.60911249998026,86.60911249998026,87.06170150003163,88.11230929201702,87.02772424969977,88.06265037500998,88.71601687499788,89.7753219580045,88.68219291669472,,86.60911249998026,91.93085170799168,86.60911249998026,91.93085170799168,91.83631425001658,92.80828237498645,86.60911249998026,2,1,2.365313916990999,,reldom2_s009,001,2025-01-30_11h19.12.771,practice_test2_AC,2022.2.5,None,
9,First_Order,2.0,audwhat,stimulus/audwhat_stim/dummy.wav,stimulus/audwhat_stim/dummy.wav,stimulus/audwhat_stim/percussion mallet_low-pitch_Dtri_loud.wav,stimulus/audwhat_stim/string viola_low-pitch_Dtri_loud.wav,stimulus/audwhat_stim/blank_white.png,stimulus/audwhat_stim/category_box.png,stimulus/audwhat_stim/category_yes.png,stimulus/audwhat_stim/category_no.png,None,Category,None,Pitch,2,0.0,0,5.25,0,5.25,0,5.25,0,0.0,0.75,0,0.0,0,0.0,0,0.0,0,0.0,0,0.0,0,0.0,1,0.5,1,2.125,0,,,,,0,11,11,11,,,,,92.80828237498645,92.80828237498645,92.80828237498645,92.80828237498645,92.80828237498645,92.80828237498645,92.80828237498645,92.80828237498645,92.72184162531823,92.80828237498645,92.80828237498645,92.80828237498645,92.72184162531823,92.80828237498645,92.80828237498645,92.80828237498645,94.87713791697752,98.75371591700241,92.80828237498645,92.80828237498645,98.13369941699784,92.80828237498645,92.80828237498645,92.80828237498645,92.80828237498645,93.26306883298093,94.32355037500383,93.22837862465919,,94.87713791697752,95.93756554200081,94.84316020866778,,92.80828237498645,98.13369941699784,92.80828237498645,98.13369941699784,98.03862754203146,99.01882379199378,92.80828237498645,2,1,1.654605500982143,,reldom2_s009,001,2025-01-30_11h19.12.771,practice_test2_AC,2022.2.5,None,
10,First_Order,2.0,audwhat,stimulus/audwhat_stim/dummy.wav,stimulus/audwhat_stim/dummy.wav,stimulus/audwhat_stim/percussion mallet_low-pitch_F_loud.wav,stimulus/audwhat_stim/percussion mallet_high-pitch_Ftri_loud.wav,stimulus/audwhat_stim/blank_white.png,stimulus/audwhat_stim/category_box.png,stimulus/audwhat_stim/category_yes.png,stimulus/audwhat_stim/category_no.png,None,Category,None,Category,1,0.0,0,5.25,0,5.25,0,5.25,0,0.0,0.75,0,0.0,0,0.0,0,0.0,0,0.0,0,0.0,0,0.0,1,0.5,1,2.125,0,,,,,0,12,12,12,,,,,99.01882379199378,99.01882379199378,99.01882379199378,99.01882379199378,99.01882379199378,99.01882379199378,99.01882379199378,99.01882379199378,98.93132850036102,99.01882379199378,99.01882379199378,99.01882379199378,98.93132850036102,99.01882379199378,99.01882379199378,99.01882379199378,101.08898624998983,104.9869419169845,99.01882379199378,99.01882379199378,104.32222829200327,99.01882379199378,99.01882379199378,99.01882379199378,99.01882379199378,99.47250016703038,100.53278304199921,99.4385591666835,,101.08898624998983,102.1546119999839,101.05501545867106,,99.01882379199378,104.32222829200327,99.01882379199378,104.32222829200327,104.22693554201396,105.22378683299758,99.01882379199378,1,1,1.2546754170325585,,reldom2_s009,001,2025-01-30_11h19.12.771,practice_test2_AC,2022.2.5,None,
0,0.0,None,fixation,stimulus/viswhat_stim/blank_white.png,stimulus/viswhat_stim/blank_white.png,stimulus/audwhat_stim/blank_white.png,stimulus/audwhat_stim/blank_white.png,stimulus/viswhat_stim/blank_white.png,stimulus/viswhat_stim/blank_white.png,stimulus/viswhat_stim/blank_white.png,stimulus/viswhat_stim/blank_white.png,0.0,0.0,0.0,0.0,0,0.0,0,0.0,0,0.0,0,0.0,0,0.0,0.0,0,0.0,0,0.0,0,0.0,0,0.0,0,0.0,0,0.0,0,0.0,0,0.0,6,,,,,0,13,13,13,,,,,105.22378683299758,105.22378683299758,105.22378683299758,105.22378683299758,105.22378683299758,105.22378683299758,105.22378683299758,105.22378683299758,105.12027525031783,105.22378683299758,105.22378683299758,105.22378683299758,105.12027525031783,105.22378683299758,105.22378683299758,105.22378683299758,105.22378683299758,105.22378683299758,105.22378683299758,105.22378683299758,105.22378683299758,105.22378683299758,105.22378683299758,105.22378683299758,105.22378683299758,105.22378683299758,105.22378683299758,105.17027525031784,105.22378683299758,105.22378683299758,105.22378683299758,105.17027525031784,105.22378683299758,105.22378683299758,105.22378683299758,105.22378683299758,105.22378683299758,110.42119941703277,110.42119941703277,111.36127941700397,None,0,,,reldom2_s009,001,2025-01-30_11h19.12.771,practice_test2_AC,2022.2.5,None,
11,Second_Order,2.0,audwhat,stimulus/audwhat_stim/string cello_low-pitch_D_loud.wav,stimulus/audwhat_stim/string viola_high-pitch_Dtri_loud.wav,stimulus/audwhat_stim/percussion mallet_high-pitch_F_loud.wav,stimulus/audwhat_stim/percussion mallet_low-pitch_Dtri_loud.wav,stimulus/viswhat_stim/match_blank.png,stimulus/viswhat_stim/match_box.png,stimulus/viswhat_stim/match_yes.png,stimulus/viswhat_stim/match_no.png,1.0,Match,Category,Category,1,5.25,0,5.25,0,5.25,0,5.25,0,0.75,0.75,0,0.0,0,0.0,0,0.0,0,0.0,1,0.5,1,2.125,1,0.5,1,2.125,0,,,,,0,14,14,14,,,,,111.36127941700397,116.61546716699377,111.36127941700397,111.36127941700397,111.36127941700397,111.36127941700397,111.80697912501637,112.80896804202348,111.81583929167051,,113.43441370798973,114.42490629199892,113.44301374967132,,116.61546716699377,117.47688808297971,119.54469616699498,123.38684933300829,117.47688808297971,117.47688808297971,122.77013766701566,117.47688808297971,117.47688808297971,117.47688808297971,117.47688808297971,117.88538841699483,118.9425163330161,117.85130624968248,,119.54469616699498,120.60564941703342,119.51081516669753,,117.47688808297971,122.77013766701566,117.47688808297971,122.77013766701566,122.67545970802894,123.55565245798789,117.47688808297971,1,1,1.3873377499985509,,reldom2_s009,001,2025-01-30_11h19.12.771,practice_test2_AC,2022.2.5,None,
12,Second_Order,2.0,audwhat,stimulus/audwhat_stim/string viola_high-pitch_Dtri_loud.wav,stimulus/audwhat_stim/percussion xylophone_high-pitch_Dtri_loud.wav,stimulus/audwhat_stim/string viola_low-pitch_Ftri_loud.wav,stimulus/audwhat_stim/percussion mallet_low-pitch_Ftri_loud.wav,stimulus/viswhat_stim/match_blank.png,stimulus/viswhat_stim/match_box.png,stimulus/viswhat_stim/match_yes.png,stimulus/viswhat_stim/match_no.png,1.0,Match,Pitch,Pitch,1,5.25,0,5.25,0,5.25,0,5.25,0,0.75,0.75,0,0.0,0,0.0,0,0.0,0,0.0,1,0.5,1,2.125,1,0.5,1,2.125,0,,,,,0,15,15,15,,,,,123.55565245798789,128.80913083301857,123.55565245798789,123.55565245798789,123.55565245798789,123.55565245798789,124.00289037497714,124.99898745800601,124.0122598336932,,125.62868483300554,126.62139091698918,125.6375442916799,126.62832875002641,128.80913083301857,129.6611441670102,131.74788954202086,135.58699833299033,129.6611441670102,129.6611441670102,134.96932862501126,129.6611441670102,129.6611441670102,129.6611441670102,129.6611441670102,130.12040395801887,131.1928875420126,130.086612083662,,131.74788954202086,132.80661199998576,131.71354241669567,,129.6611441670102,134.96932862501126,129.6611441670102,134.96932862501126,134.8749206670327,135.86919570801547,129.6611441670102,1,1,2.0308948750025593,,reldom2_s009,001,2025-01-30_11h19.12.771,practice_test2_AC,2022.2.5,None,
0,0.0,None,fixation,stimulus/viswhat_stim/blank_white.png,stimulus/viswhat_stim/blank_white.png,stimulus/audwhat_stim/blank_white.png,stimulus/audwhat_stim/blank_white.png,stimulus/viswhat_stim/blank_white.png,stimulus/viswhat_stim/blank_white.png,stimulus/viswhat_stim/blank_white.png,stimulus/viswhat_stim/blank_white.png,0.0,0.0,0.0,0.0,0,0.0,0,0.0,0,0.0,0,0.0,0,0.0,0.0,0,0.0,0,0.0,0,0.0,0,0.0,0,0.0,0,0.0,0,0.0,0,0.0,6,,,,,0,16,16,16,,,,,135.86919570801547,135.86919570801547,135.86919570801547,135.86919570801547,135.86919570801547,135.86919570801547,135.86919570801547,135.86919570801547,135.76429120832668,135.86919570801547,135.86919570801547,135.86919570801547,135.76429120832668,135.86919570801547,135.86919570801547,135.86919570801547,135.86919570801547,135.86919570801547,135.86919570801547,135.86919570801547,135.86919570801547,135.86919570801547,135.86919570801547,135.86919570801547,135.86919570801547,135.86919570801547,135.86919570801547,135.81429120832667,135.86919570801547,135.86919570801547,135.86919570801547,135.81429120832667,135.86919570801547,135.86919570801547,135.86919570801547,135.86919570801547,135.86919570801547,141.06665729201632,141.06665729201632,142.10077208298026,None,0,,,reldom2_s009,001,2025-01-30_11h19.12.771,practice_test2_AC,2022.2.5,None,
13,First_Order,3.0,audwhere,stimulus/audwhere_stim/dummy.wav,stimulus/audwhere_stim/dummy.wav,stimulus/audwhere_stim/left_toward_270h.wav,stimulus/audwhere_stim/right_toward_270h.wav,stimulus/audwhere_stim/blank_white.png,stimulus/audwhere_stim/direction_box.png,stimulus/audwhere_stim/direction_yes.png,stimulus/audwhere_stim/direction_no.png,None,Direction,None,Direction,1,0.0,0,5.25,0,5.25,0,5.25,0,0.0,0.75,0,0.0,0,0.0,0,0.0,0,0.0,0,0.0,0,0.0,1,0.5,1,2.125,0,,,,,0,17,17,17,,,,,142.10077208298026,142.10077208298026,142.10077208298026,142.10077208298026,142.10077208298026,142.10077208298026,142.10077208298026,142.10077208298026,142.01938366666826,142.10077208298026,142.10077208298026,142.10077208298026,142.01938366666826,142.10077208298026,142.10077208298026,142.10077208298026,144.17420683300588,148.07563470798777,142.10077208298026,142.10077208298026,147.41185304202372,142.10077208298026,142.10077208298026,142.10077208298026,142.10077208298026,142.55731620802544,143.6188494170201,142.52343799965846,,144.17420683300588,145.24070262501482,144.14029287465772,,142.10077208298026,147.41185304202372,142.10077208298026,147.41185304202372,147.31656741700135,148.2957057079766,142.10077208298026,1,1,2.422564707987476,,reldom2_s009,001,2025-01-30_11h19.12.771,practice_test2_AC,2022.2.5,None,
14,First_Order,3.0,audwhere,stimulus/audwhere_stim/dummy.wav,stimulus/audwhere_stim/dummy.wav,stimulus/audwhere_stim/right_away_280h.wav,stimulus/audwhere_stim/right_toward_290h.wav,stimulus/audwhere_stim/blank_white.png,stimulus/audwhere_stim/side_box.png,stimulus/audwhere_stim/side_yes.png,stimulus/audwhere_stim/side_no.png,None,Side,None,Side,1,0.0,0,5.25,0,5.25,0,5.25,0,0.0,0.75,0,0.0,0,0.0,0,0.0,0,0.0,0,0.0,0,0.0,1,0.5,1,2.125,0,,,,,0,18,18,18,,,,,148.2957057079766,148.2957057079766,148.2957057079766,148.2957057079766,148.2957057079766,148.2957057079766,148.2957057079766,148.2957057079766,148.20896804132113,148.2957057079766,148.2957057079766,148.2957057079766,148.20896804132113,148.2957057079766,148.2957057079766,148.2957057079766,150.40847916703206,154.24088012502762,148.2957057079766,148.2957057079766,153.62263325002277,148.2957057079766,148.2957057079766,148.2957057079766,148.2957057079766,148.74971787497634,149.80367824999848,148.7159449996582,,150.40847916703206,151.46654908300843,150.3743374996741,,148.2957057079766,153.62263325002277,148.2957057079766,153.62263325002277,153.52799958299147,154.50391729199328,148.2957057079766,1,1,1.953101416991558,,reldom2_s009,001,2025-01-30_11h19.12.771,practice_test2_AC,2022.2.5,None,
15,First_Order,3.0,audwhere,stimulus/audwhere_stim/dummy.wav,stimulus/audwhere_stim/dummy.wav,stimulus/audwhere_stim/right_away_270h.wav,stimulus/audwhere_stim/right_toward_300h.wav,stimulus/audwhere_stim/blank_white.png,stimulus/audwhere_stim/side_box.png,stimulus/audwhere_stim/side_yes.png,stimulus/audwhere_stim/side_no.png,None,Side,None,Side,1,0.0,0,5.25,0,5.25,0,5.25,0,0.0,0.75,0,0.0,0,0.0,0,0.0,0,0.0,0,0.0,0,0.0,1,0.5,1,2.125,0,,,,,0,19,19,19,,,,,154.50391729199328,154.50391729199328,154.50391729199328,154.50391729199328,154.50391729199328,154.50391729199328,154.50391729199328,154.50391729199328,154.41825445831833,154.50391729199328,154.50391729199328,154.50391729199328,154.41825445831833,154.50391729199328,154.50391729199328,154.50391729199328,156.61094849999063,160.45413141697645,154.50391729199328,154.50391729199328,159.79311545798555,154.50391729199328,154.50391729199328,154.50391729199328,154.50391729199328,154.95621758297784,156.01029470801586,154.92207479168817,,156.61094849999063,157.68253220798215,156.57697012467932,,154.50391729199328,159.79311545798555,154.50391729199328,159.79311545798555,159.69845441699727,160.6727842920227,154.50391729199328,1,1,1.7658354580053128,,reldom2_s009,001,2025-01-30_11h19.12.771,practice_test2_AC,2022.2.5,None,
16,First_Order,3.0,audwhere,stimulus/audwhere_stim/dummy.wav,stimulus/audwhere_stim/dummy.wav,stimulus/audwhere_stim/right_toward_300h.wav,stimulus/audwhere_stim/right_away_290h.wav,stimulus/audwhere_stim/blank_white.png,stimulus/audwhere_stim/direction_box.png,stimulus/audwhere_stim/direction_yes.png,stimulus/audwhere_stim/direction_no.png,None,Direction,None,Side,2,0.0,0,5.25,0,5.25,0,5.25,0,0.0,0.75,0,0.0,0,0.0,0,0.0,0,0.0,0,0.0,0,0.0,1,0.5,1,2.125,0,,,,,0,20,20,20,,,,,160.6727842920227,160.6727842920227,160.6727842920227,160.6727842920227,160.6727842920227,160.6727842920227,160.6727842920227,160.6727842920227,160.5874647503098,160.6727842920227,160.6727842920227,160.6727842920227,160.5874647503098,160.6727842920227,160.6727842920227,160.6727842920227,162.75040950003313,166.65235879202373,160.6727842920227,160.6727842920227,165.9879426669795,160.6727842920227,160.6727842920227,160.6727842920227,160.6727842920227,161.13048183300998,162.19446008303203,161.09595345869118,,162.75040950003313,163.8162441669847,162.7165756666839,,160.6727842920227,165.9879426669795,160.6727842920227,165.9879426669795,165.89278549997834,166.8917718330049,160.6727842920227,2,1,1.5756354999612086,,reldom2_s009,001,2025-01-30_11h19.12.771,practice_test2_AC,2022.2.5,None,
0,0.0,None,fixation,stimulus/viswhere_stim/blank_white.png,stimulus/viswhere_stim/blank_white.png,stimulus/audwhere_stim/blank_white.png,stimulus/audwhere_stim/blank_white.png,stimulus/viswhere_stim/blank_white.png,stimulus/viswhere_stim/blank_white.png,stimulus/viswhat_stim/blank_white.png,stimulus/viswhat_stim/blank_white.png,0.0,0.0,0.0,0.0,0,0.0,0,0.0,0,0.0,0,0.0,0,0.0,0.0,0,0.0,0,0.0,0,0.0,0,0.0,0,0.0,0,0.0,0,0.0,0,0.0,5,,,,,0,21,21,21,,,,,166.8917718330049,166.8917718330049,166.8917718330049,166.8917718330049,166.8917718330049,166.8917718330049,166.8917718330049,166.8917718330049,166.7856921253571,166.8917718330049,166.8917718330049,166.8917718330049,166.7856921253571,166.8917718330049,166.8917718330049,166.8917718330049,166.8917718330049,166.8917718330049,166.8917718330049,166.8917718330049,166.8917718330049,166.8917718330049,166.8917718330049,166.8917718330049,166.8917718330049,166.8917718330049,166.8917718330049,166.83569212535707,166.8917718330049,166.8917718330049,166.8917718330049,166.83569212535707,166.8917718330049,166.8917718330049,166.8917718330049,166.8917718330049,166.8917718330049,172.18335908302106,172.18335908302106,171.97566595801618,None,0,,,reldom2_s009,001,2025-01-30_11h19.12.771,practice_test2_AC,2022.2.5,None,
17,Second_Order,3.0,audwhere,stimulus/audwhere_stim/right_toward_270h.wav,stimulus/audwhere_stim/left_toward_290h.wav,stimulus/audwhere_stim/left_away_270h.wav,stimulus/audwhere_stim/left_toward_290h.wav,stimulus/viswhat_stim/match_blank.png,stimulus/viswhat_stim/match_box.png,stimulus/viswhat_stim/match_yes.png,stimulus/viswhat_stim/match_no.png,2.0,Match,Direction,Side,2,5.25,0,5.25,0,5.25,0,5.25,0,0.75,0.75,0,0.0,0,0.0,0,0.0,0,0.0,1,0.5,1,2.125,1,0.5,1,2.125,0,,,,,0,22,22,22,,,,,172.18335908302106,177.42657583300024,172.18335908302106,172.18335908302106,172.18335908302106,172.18335908302106,172.63773324998328,173.63797466701362,172.64674208366003,,174.26327020803,175.25470054202015,174.27193399967317,,177.42657583300024,178.2892230830039,180.36125754198292,184.20237775001442,178.2892230830039,178.2892230830039,183.58449016697705,178.2892230830039,178.2892230830039,178.2892230830039,178.2892230830039,178.70100483298302,179.7578153749928,178.6665999586733,,180.36125754198292,181.4217201669817,180.32742437464574,,178.2892230830039,183.58449016697705,178.2892230830039,183.58449016697705,183.49028099997668,184.37042595801177,178.2892230830039,2,1,1.8287678330088966,,reldom2_s009,001,2025-01-30_11h19.12.771,practice_test2_AC,2022.2.5,None,
18,Second_Order,3.0,audwhere,stimulus/audwhere_stim/left_toward_270h.wav,stimulus/audwhere_stim/right_toward_300h.wav,stimulus/audwhere_stim/right_toward_300h.wav,stimulus/audwhere_stim/right_away_270h.wav,stimulus/viswhat_stim/match_blank.png,stimulus/viswhat_stim/match_box.png,stimulus/viswhat_stim/match_yes.png,stimulus/viswhat_stim/match_no.png,2.0,Match,Direction,Side,2,5.25,0,5.25,0,5.25,0,5.25,0,0.75,0.75,0,0.0,0,0.0,0,0.0,0,0.0,1,0.5,1,2.125,1,0.5,1,2.125,0,,,,,0,23,23,23,,,,,184.37042595801177,189.615733292012,184.37042595801177,184.37042595801177,184.37042595801177,184.37042595801177,184.8258182919817,185.8207139170263,184.82934049965505,,186.4474717080011,187.44193383300444,186.45557441667577,,189.615733292012,190.4784443330136,192.54833629197674,196.3860398749821,190.4784443330136,190.4784443330136,195.76845420798054,190.4784443330136,190.4784443330136,190.4784443330136,190.4784443330136,190.8872624579817,191.94582987501053,190.8533705836783,,192.54833629197674,193.60636008298025,192.5143730416933,,190.4784443330136,195.76845420798054,190.4784443330136,195.76845420798054,195.6737091250252,196.67042487498838,190.4784443330136,1,0,2.0976755839656107,,reldom2_s009,001,2025-01-30_11h19.12.771,practice_test2_AC,2022.2.5,None,
0,0.0,None,fixation,stimulus/viswhere_stim/blank_white.png,stimulus/viswhere_stim/blank_white.png,stimulus/audwhere_stim/blank_white.png,stimulus/audwhere_stim/blank_white.png,stimulus/viswhere_stim/blank_white.png,stimulus/viswhere_stim/blank_white.png,stimulus/viswhat_stim/blank_white.png,stimulus/viswhat_stim/blank_white.png,0.0,0.0,0.0,0.0,0,0.0,0,0.0,0,0.0,0,0.0,0,0.0,0.0,0,0.0,0,0.0,0,0.0,0,0.0,0,0.0,0,0.0,0,0.0,0,0.0,5,,,,,0,24,24,24,,,,,196.67042487498838,196.67042487498838,196.67042487498838,196.67042487498838,196.67042487498838,196.67042487498838,196.67042487498838,196.67042487498838,196.56353837534166,196.67042487498838,196.67042487498838,196.67042487498838,196.56353837534166,196.67042487498838,196.67042487498838,196.67042487498838,196.67042487498838,196.67042487498838,196.67042487498838,196.67042487498838,196.67042487498838,196.67042487498838,196.67042487498838,196.67042487498838,196.67042487498838,196.67042487498838,196.67042487498838,196.63020504200833,196.67042487498838,196.67042487498838,196.67042487498838,196.63020504200833,196.67042487498838,196.67042487498838,196.67042487498838,196.67042487498838,196.67042487498838,201.99660420801956,201.99660420801956,201.74733933300013,None,0,,,reldom2_s009,001,2025-01-30_11h19.12.771,practice_test2_AC,2022.2.5,None,
19,First_Order,4.0,viswhere,stimulus/viswhere_stim/blank_white.png,stimulus/viswhere_stim/blank_white.png,stimulus/viswhere_stim/90-deg_dot-right_peru.png,stimulus/viswhere_stim/120-deg_dot-right_slateblue.png,stimulus/viswhere_stim/blank_white.png,stimulus/viswhere_stim/dot_box.png,stimulus/viswhere_stim/dot_yes.png,stimulus/viswhere_stim/dot_no.png,None,Dot,None,Dot,1,0.0,0,5.25,0,5.25,0,5.25,0,0.0,0.75,0,0.0,0,0.0,1,0.5,1,2.125,0,0.0,0,0.0,0,0.0,0,0.0,0,,,,,0,25,25,25,,,,,201.99660420801956,201.99660420801956,201.99660420801956,201.99660420801956,201.99660420801956,201.99660420801956,201.99660420801956,201.99660420801956,201.97037099969265,201.99660420801956,201.99660420801956,201.99660420801956,201.97037099969265,201.99660420801956,201.99660420801956,201.99660420801956,204.09286862501176,207.96797970798798,201.99660420801956,201.99660420801956,207.25206141697709,202.4794225000078,203.4965917079826,204.09286862501176,205.11319579201518,201.99660420801956,201.99660420801956,201.9870376663593,201.99660420801956,201.99660420801956,201.99660420801956,201.9870376663593,201.99660420801956,201.99660420801956,207.25206141697709,201.99660420801956,207.25206141697709,207.23552291700616,208.07823087502038,201.99660420801956,1,1,1.6501509170047939,,reldom2_s009,001,2025-01-30_11h19.12.771,practice_test2_AC,2022.2.5,None,
20,First_Order,4.0,viswhere,stimulus/viswhere_stim/blank_white.png,stimulus/viswhere_stim/blank_white.png,stimulus/viswhere_stim/30-deg_dot-right_turquoise.png,stimulus/viswhere_stim/60-deg_dot-right_seagreen.png,stimulus/viswhere_stim/blank_white.png,stimulus/viswhere_stim/line_box.png,stimulus/viswhere_stim/line_yes.png,stimulus/viswhere_stim/line_no.png,None,Line,None,Dot,2,0.0,0,5.25,0,5.25,0,5.25,0,0.0,0.75,0,0.0,0,0.0,1,0.5,1,2.125,0,0.0,0,0.0,0,0.0,0,0.0,0,,,,,0,26,26,26,,,,,208.07823087502038,208.07823087502038,208.07823087502038,208.07823087502038,208.07823087502038,208.07823087502038,208.07823087502038,208.07823087502038,208.05131304132132,208.07823087502038,208.07823087502038,208.07823087502038,208.05131304132132,208.07823087502038,208.07823087502038,208.07823087502038,210.1969120830181,214.0438226669794,208.07823087502038,208.07823087502038,213.3276089580031,208.56254345801426,209.57785737502854,210.1969120830181,211.21731379203266,208.07823087502038,208.07823087502038,208.067979707988,208.07823087502038,208.07823087502038,208.07823087502038,208.067979707988,208.07823087502038,208.07823087502038,213.3276089580031,208.07823087502038,213.3276089580031,213.3109248750261,214.1526978330221,208.07823087502038,2,1,1.745593708998058,,reldom2_s009,001,2025-01-30_11h19.12.771,practice_test2_AC,2022.2.5,None,
21,First_Order,4.0,viswhere,stimulus/viswhere_stim/blank_white.png,stimulus/viswhere_stim/blank_white.png,stimulus/viswhere_stim/120-deg_dot-left_goldenrod.png,stimulus/viswhere_stim/90-deg_dot-left_seagreen.png,stimulus/viswhere_stim/blank_white.png,stimulus/viswhere_stim/line_box.png,stimulus/viswhere_stim/line_yes.png,stimulus/viswhere_stim/line_no.png,None,Line,None,Dot,2,0.0,0,5.25,0,5.25,0,5.25,0,0.0,0.75,0,0.0,0,0.0,1,0.5,1,2.125,0,0.0,0,0.0,0,0.0,0,0.0,0,,,,,0,27,27,27,,,,,214.1526978330221,214.1526978330221,214.1526978330221,214.1526978330221,214.1526978330221,214.1526978330221,214.1526978330221,214.1526978330221,214.12715600031274,214.1526978330221,214.1526978330221,214.1526978330221,214.12715600031274,214.1526978330221,214.1526978330221,214.1526978330221,216.2692814579932,220.12033470801543,214.1526978330221,214.1526978330221,219.420660667005,214.6335621670005,215.6507785419817,216.2692814579932,217.28198025003076,214.1526978330221,214.1526978330221,214.14382266697942,214.1526978330221,214.1526978330221,214.1526978330221,214.14382266697942,214.1526978330221,214.1526978330221,219.420660667005,214.1526978330221,219.420660667005,219.38065216701943,220.23134295799537,214.1526978330221,2,1,1.8639978340361267,,reldom2_s009,001,2025-01-30_11h19.12.771,practice_test2_AC,2022.2.5,None,
22,First_Order,4.0,viswhere,stimulus/viswhere_stim/blank_white.png,stimulus/viswhere_stim/blank_white.png,stimulus/viswhere_stim/150-deg_dot-right_royalblue.png,stimulus/viswhere_stim/150-deg_dot-left_slateblue.png,stimulus/viswhere_stim/blank_white.png,stimulus/viswhere_stim/dot_box.png,stimulus/viswhere_stim/dot_yes.png,stimulus/viswhere_stim/dot_no.png,None,Dot,None,Line,2,0.0,0,5.25,0,5.25,0,5.25,0,0.0,0.75,0,0.0,0,0.0,1,0.5,1,2.125,0,0.0,0,0.0,0,0.0,0,0.0,0,,,,,0,28,28,28,,,,,220.23134295799537,220.23134295799537,220.23134295799537,220.23134295799537,220.23134295799537,220.23134295799537,220.23134295799537,220.23134295799537,220.20366804134878,220.23134295799537,220.23134295799537,220.23134295799537,220.20366804134878,220.23134295799537,220.23134295799537,220.23134295799537,222.34686329198303,226.21213433297817,220.23134295799537,220.23134295799537,225.4871532919933,220.72035200003302,221.7448064580094,222.34686329198303,223.35447925003245,220.23134295799537,220.23134295799537,220.22033470801546,220.23134295799537,220.23134295799537,220.23134295799537,220.22033470801546,220.23134295799537,220.23134295799537,225.4871532919933,220.23134295799537,225.4871532919933,225.47015879198443,226.40056049998384,220.23134295799537,2,1,0.5631379580008797,,reldom2_s009,001,2025-01-30_11h19.12.771,practice_test2_AC,2022.2.5,None,
0,0.0,None,fixation,stimulus/viswhere_stim/blank_white.png,stimulus/viswhere_stim/blank_white.png,stimulus/audwhere_stim/blank_white.png,stimulus/audwhere_stim/blank_white.png,stimulus/viswhere_stim/blank_white.png,stimulus/viswhere_stim/blank_white.png,stimulus/viswhat_stim/blank_white.png,stimulus/viswhat_stim/blank_white.png,0.0,0.0,0.0,0.0,0,0.0,0,0.0,0,0.0,0,0.0,0,0.0,0.0,0,0.0,0,0.0,0,0.0,0,0.0,0,0.0,0,0.0,0,0.0,0,0.0,5,,,,,0,29,29,29,,,,,226.40056049998384,226.40056049998384,226.40056049998384,226.40056049998384,226.40056049998384,226.40056049998384,226.40056049998384,226.40056049998384,226.2954676663115,226.40056049998384,226.40056049998384,226.40056049998384,226.2954676663115,226.40056049998384,226.40056049998384,226.40056049998384,226.40056049998384,226.40056049998384,226.40056049998384,226.40056049998384,226.40056049998384,226.40056049998384,226.40056049998384,226.40056049998384,226.40056049998384,226.40056049998384,226.40056049998384,226.34546766631152,226.40056049998384,226.40056049998384,226.40056049998384,226.34546766631152,226.40056049998384,226.40056049998384,226.40056049998384,226.40056049998384,226.40056049998384,231.65951929200673,231.65951929200673,231.48017695802264,None,0,,,reldom2_s009,001,2025-01-30_11h19.12.771,practice_test2_AC,2022.2.5,None,
23,Second_Order,4.0,viswhere,stimulus/viswhere_stim/150-deg_dot-right_slateblue.png,stimulus/viswhere_stim/150-deg_dot-left_turquoise.png,stimulus/viswhere_stim/90-deg_dot-left_mediumslateblue.png,stimulus/viswhere_stim/90-deg_dot-right_peru.png,stimulus/viswhat_stim/match_blank.png,stimulus/viswhat_stim/match_box.png,stimulus/viswhat_stim/match_yes.png,stimulus/viswhat_stim/match_no.png,1.0,Match,Line,Line,1,5.25,0,5.25,0,5.25,0,5.25,0,0.75,0.75,1,0.5,1,2.125,1,0.5,1,2.125,0,0.0,0,0.0,0,0.0,0,0.0,0,,,,,0,30,30,30,,,,,231.65951929200673,236.90010683302535,232.1364662499982,233.1370055829757,233.76208687498,234.75181991700083,231.65951929200673,231.65951929200673,231.66891487533772,231.65951929200673,231.65951929200673,231.65951929200673,231.66891487533772,231.65951929200673,236.90010683302535,237.70506666699657,239.78240924997954,243.67819370800862,237.70506666699657,237.70506666699657,242.96588216698729,238.15593000000808,239.18179258302553,239.78240924997954,240.81049325002823,237.70506666699657,237.70506666699657,237.6886518329964,237.70506666699657,237.70506666699657,237.70506666699657,237.6886518329964,237.70506666699657,237.70506666699657,242.96588216698729,237.70506666699657,242.96588216698729,242.90251512499526,243.67819370800862,237.70506666699657,1,1,1.775435249961447,,reldom2_s009,001,2025-01-30_11h19.12.771,practice_test2_AC,2022.2.5,None,
24,Second_Order,4.0,viswhere,stimulus/viswhere_stim/150-deg_dot-right_mediumslateblue.png,stimulus/viswhere_stim/30-deg_dot-right_salmon.png,stimulus/viswhere_stim/120-deg_dot-right_royalblue.png,stimulus/viswhere_stim/120-deg_dot-left_salmon.png,stimulus/viswhat_stim/match_blank.png,stimulus/viswhat_stim/match_box.png,stimulus/viswhat_stim/match_yes.png,stimulus/viswhat_stim/match_no.png,2.0,Match,Dot,Line,2,5.25,0,5.25,0,5.25,0,5.25,0,0.75,0.75,1,0.5,1,2.125,1,0.5,1,2.125,0,0.0,0,0.0,0,0.0,0,0.0,0,,,,,0,31,31,31,,,,,243.67819370800862,248.93398666701978,244.1534525420284,245.15064970799722,245.78416458301945,246.78388358303346,243.67819370800862,243.67819370800862,243.68759529200616,243.67819370800862,243.67819370800862,243.67819370800862,243.68759529200616,243.67819370800862,248.93398666701978,249.74234554200666,251.82987225003308,255.683002958016,249.74234554200666,249.74234554200666,254.99872704199515,250.19269445800455,251.20970316702733,251.82987225003308,252.85291308298474,249.74234554200666,249.74234554200666,249.71303550032513,249.74234554200666,249.74234554200666,249.74234554200666,249.71303550032513,249.74234554200666,249.74234554200666,254.99872704199515,249.74234554200666,254.99872704199515,254.95845020801062,255.90211550000822,249.74234554200666,2,1,1.3543032919988036,,reldom2_s009,001,2025-01-30_11h19.12.771,practice_test2_AC,2022.2.5,None,
0,0.0,None,fixation,stimulus/viswhere_stim/blank_white.png,stimulus/viswhere_stim/blank_white.png,stimulus/audwhere_stim/blank_white.png,stimulus/audwhere_stim/blank_white.png,stimulus/viswhere_stim/blank_white.png,stimulus/viswhere_stim/blank_white.png,stimulus/viswhat_stim/blank_white.png,stimulus/viswhat_stim/blank_white.png,0.0,0.0,0.0,0.0,0,0.0,0,0.0,0,0.0,0,0.0,0,0.0,0.0,0,0.0,0,0.0,0,0.0,0,0.0,0,0.0,0,0.0,0,0.0,0,0.0,7,,,,,0,32,32,32,,,,,255.90211550000822,255.90211550000822,255.90211550000822,255.90211550000822,255.90211550000822,255.90211550000822,255.90211550000822,255.90211550000822,255.78316354136527,255.90211550000822,255.90211550000822,255.90211550000822,255.78316354136527,255.90211550000822,255.90211550000822,255.90211550000822,255.90211550000822,255.90211550000822,255.90211550000822,255.90211550000822,255.90211550000822,255.90211550000822,255.90211550000822,255.90211550000822,255.90211550000822,255.90211550000822,255.90211550000822,255.84983020803193,255.90211550000822,255.90211550000822,255.90211550000822,255.84983020803193,255.90211550000822,255.90211550000822,255.90211550000822,255.90211550000822,255.90211550000822,261.10900175001007,261.10900175001007,263.0583357500145,None,0,,,reldom2_s009,001,2025-01-30_11h19.12.771,practice_test2_AC,2022.2.5,None,
,,,,,,,,,,,,,,,,,,,,,,,,,,,,,,,,,,,,,,,,,,,,,,,,,,,,,,,,,,,,,,,,,,,,,,,,,,,,,,,,,,,,,,,,,,,,,,,,,,,263.0583357500145,,,,,,,
