Trial,Order,Block,Type,Stimuli_File1,Stimuli_File2,Stimuli_File3,Stimuli_File4,Cue_File1,Cue_File2,Response_File_Yes,Response_File_No,Match,Cue_Dimension,Pair1_Dimension,Pair2_Dimension,Key,Cue1_Duration,Cue1_Onset,Cue2_Duration,Cue2_Onset,ResponseYes_Duration,ResponseYes_Onset,ResponseNo_Duration,ResponseNo_Onset,ITI_Within,ITI_Between,Image1_Duration,Image1_Onset,Image2_Duration,Image2_Onset,Image3_Duration,Image3_Onset,Image4_Duration,Image4_Onset,Sound1_Duration,Sound1_Onset,Sound2_Duration,Sound2_Onset,Sound3_Duration,Sound3_Onset,Sound4_Duration,Sound4_Onset,Fixation_Duration,trials_2.thisRepN,trials_2.thisTrialN,trials_2.thisN,trials_2.thisIndex,trials.thisRepN,trials.thisTrialN,trials.thisN,trials.thisIndex,text_start.started,key_resp_start.started,key_resp_start.keys,key_resp_start.rt,text2.started,key_resp_2.started,key_resp_2.keys,key_resp_2.rt,cue_file1.started,cue_file1.stopped,image_1.started,image_1.stopped,image_2.started,image_2.stopped,sound_icon1.started,sound_icon1.stopped,sound_1.started,sound_1.stopped,sound_icon2.started,sound_icon2.stopped,sound_2.started,sound_2.stopped,image_blank_1.started,image_blank_1.stopped,key_press.started,key_press.stopped,fixation_text.started,cue_file2.started,cue_file2.stopped,image_3.started,image_3.stopped,image_4.started,image_4.stopped,sound_icon3.started,sound_icon3.stopped,sound_3.started,sound_3.stopped,sound_icon4.started,sound_icon4.stopped,sound_4.started,sound_4.stopped,response_yes.started,response_yes.stopped,response_no.started,response_no.stopped,iti_blank.started,iti_blank.stopped,fixation_text.stopped,key_press.keys,key_press.corr,key_press.rt,participant,session,date,expName,psychopyVersion,frameRate,
,,,,,,,,,,,,,,,,,,,,,,,,,,,,,,,,,,,,,,,,,,,,,,,,,,,,8.069896083000003,8.069896083000003,2,1.30418170799976,,,,,,,,,,,,,,,,,,,,,,,,,,,,,,,,,,,,,,,,,,,,,,,,reldom2_s009,001,2025-01-30_11h59.05.496,Aud-B-Scan_AC,2022.2.5,None,
,,,,,,,,,,,,,,,,,,,,,,,,,,,,,,,,,,,,,,,,,,,,0,0,0,0,,,,,,,,,9.391943541999808,9.391943541999808,5,18.49135991599951,,,,,,,,,,,,,,,,,,,,,,,,,,,,,,,,,,,,,,,,,,,,reldom2_s009,001,2025-01-30_11h59.05.496,Aud-B-Scan_AC,2022.2.5,None,
,,,,,,,,,,,,,,,,,,,,,,,,,,,,,,,,,,,,,,,,,,,,1,0,1,0,,,,,,,,,27.89691916699985,27.89691916699985,5,1.984674874999655,,,,,,,,,,,,,,,,,,,,,,,,,,,,,,,,,,,,,,,,,,,,reldom2_s009,001,2025-01-30_11h59.05.496,Aud-B-Scan_AC,2022.2.5,None,
,,,,,,,,,,,,,,,,,,,,,,,,,,,,,,,,,,,,,,,,,,,,2,0,2,0,,,,,,,,,29.892365832999985,29.892365832999985,5,1.988350540999818,,,,,,,,,,,,,,,,,,,,,,,,,,,,,,,,,,,,,,,,,,,,reldom2_s009,001,2025-01-30_11h59.05.496,Aud-B-Scan_AC,2022.2.5,None,
,,,,,,,,,,,,,,,,,,,,,,,,,,,,,,,,,,,,,,,,,,,,3,0,3,0,,,,,,,,,31.898825249999845,31.898825249999845,5,1.9815354159995877,,,,,,,,,,,,,,,,,,,,,,,,,,,,,,,,,,,,,,,,,,,,reldom2_s009,001,2025-01-30_11h59.05.496,Aud-B-Scan_AC,2022.2.5,None,
0,0.0,None,fixation,stimulus/audwhat_stim/blank_white.png,stimulus/audwhat_stim/blank_white.png,stimulus/audwhere_stim/blank_white.png,stimulus/audwhere_stim/blank_white.png,stimulus/audwhat_stim/blank_white.png,stimulus/audwhat_stim/blank_white.png,stimulus/audwhat_stim/blank_white.png,stimulus/audwhat_stim/blank_white.png,0.0,0.0,0.0,0.0,0,0.0,0,0.0,0,0.0,0,0.0,0,0.0,0.0,0,0,0,0,0,0,0,0,0,0.0,0,0.0,0,0.0,0,0.0,16,,,,,0,0,0,0,,,,,,,,,34.07334679199994,34.07334679199994,34.07334679199994,34.07334679199994,34.07334679199994,34.07334679199994,34.07334679199994,34.07334679199994,33.98184083299984,34.07334679199994,34.07334679199994,34.07334679199994,33.98184083299984,34.07334679199994,34.07334679199994,34.07334679199994,34.07334679199994,34.07334679199994,34.07334679199994,34.07334679199994,34.07334679199994,34.07334679199994,34.07334679199994,34.07334679199994,34.07334679199994,34.07334679199994,34.07334679199994,34.03184083299984,34.07334679199994,34.07334679199994,34.07334679199994,34.03184083299984,34.07334679199994,34.07334679199994,34.07334679199994,34.07334679199994,34.07334679199994,39.29258145799986,39.29258145799986,50.308610916999896,None,0,,reldom2_s009,001,2025-01-30_11h59.05.496,Aud-B-Scan_AC,2022.2.5,None,
1,First_Order,1.0,audwhat,stimulus/audwhat_stim/dummy.wav,stimulus/audwhat_stim/dummy.wav,stimulus/audwhat_stim/string viola_low-pitch_F_loud.wav,stimulus/audwhat_stim/string cello_high-pitch_Dtri_loud.wav,stimulus/audwhat_stim/blank_white.png,stimulus/audwhat_stim/pitch_box.png,stimulus/audwhat_stim/pitch_yes.png,stimulus/audwhat_stim/pitch_no.png,None,Pitch,None,Category,2,0.0,0,5.125,0,5.125,0,5.125,0,0.0,0.625,0,0,0,0,0,0,0,0,0,0.0,0,0.0,1,0.5,1,2.125,0,,,,,0,1,1,1,,,,,,,,,50.308610916999896,50.308610916999896,50.308610916999896,50.308610916999896,50.308610916999896,50.308610916999896,50.308610916999896,50.308610916999896,50.22129966699995,50.308610916999896,50.308610916999896,50.308610916999896,50.22129966699995,50.308610916999896,50.308610916999896,50.308610916999896,52.41130674999977,,50.308610916999896,50.308610916999896,55.498529874999804,50.308610916999896,50.308610916999896,50.308610916999896,50.308610916999896,50.77712008299977,51.84996729199975,50.74653191666654,,52.41130674999977,53.44126233299994,52.38125404166682,,50.308610916999896,55.498529874999804,50.308610916999896,55.498529874999804,55.498529874999804,56.15821095799993,50.308610916999896,2,1,1.1329382489998352,reldom2_s009,001,2025-01-30_11h59.05.496,Aud-B-Scan_AC,2022.2.5,None,
2,First_Order,1.0,audwhat,stimulus/audwhat_stim/dummy.wav,stimulus/audwhat_stim/dummy.wav,stimulus/audwhat_stim/percussion xylophone_high-pitch_Ftri_loud.wav,stimulus/audwhat_stim/string viola_high-pitch_Ftri_loud.wav,stimulus/audwhat_stim/blank_white.png,stimulus/audwhat_stim/pitch_box.png,stimulus/audwhat_stim/pitch_yes.png,stimulus/audwhat_stim/pitch_no.png,None,Pitch,None,Pitch,1,0.0,0,5.125,0,5.125,0,5.125,0,0.0,0.625,0,0,0,0,0,0,0,0,0,0.0,0,0.0,1,0.5,1,2.125,0,,,,,0,2,2,2,,,,,,,,,56.41914762499982,56.41914762499982,56.41914762499982,56.41914762499982,56.41914762499982,56.41914762499982,56.41914762499982,56.41914762499982,56.331991750333266,56.41914762499982,56.41914762499982,56.41914762499982,56.331991750333266,56.41914762499982,56.41914762499982,56.41914762499982,58.527415292000114,62.53830154199977,56.41914762499982,56.41914762499982,61.57668783300005,56.41914762499982,56.41914762499982,56.41914762499982,56.41914762499982,56.88678191700001,57.968026250000094,56.85638504166651,57.92142808300014,58.527415292000114,59.563210583,58.496730833666575,,56.41914762499982,61.57668783300005,56.41914762499982,61.57668783300005,61.61833341700003,62.27748487500003,56.41914762499982,1,1,0.8330944999997882,reldom2_s009,001,2025-01-30_11h59.05.496,Aud-B-Scan_AC,2022.2.5,None,
3,First_Order,1.0,audwhat,stimulus/audwhat_stim/dummy.wav,stimulus/audwhat_stim/dummy.wav,stimulus/audwhat_stim/string viola_low-pitch_Dtri_loud.wav,stimulus/audwhat_stim/percussion mallet_low-pitch_Dtri_loud.wav,stimulus/audwhat_stim/blank_white.png,stimulus/audwhat_stim/category_box.png,stimulus/audwhat_stim/category_yes.png,stimulus/audwhat_stim/category_no.png,None,Category,None,Pitch,2,0.0,0,5.125,0,5.125,0,5.125,0,0.0,0.625,0,0,0,0,0,0,0,0,0,0.0,0,0.0,1,0.5,1,2.125,0,,,,,0,3,3,3,,,,,,,,,62.53830154199977,62.53830154199977,62.53830154199977,62.53830154199977,62.53830154199977,62.53830154199977,62.53830154199977,62.53830154199977,62.452122833333426,62.53830154199977,62.53830154199977,62.53830154199977,62.452122833333426,62.53830154199977,62.53830154199977,62.53830154199977,64.6106755830001,,62.53830154199977,62.53830154199977,67.71406420799985,62.53830154199977,62.53830154199977,62.53830154199977,62.53830154199977,63.00869112500004,64.04672837499993,62.97800749966679,,64.6106755830001,65.64823391699974,64.57973329166659,,62.53830154199977,67.71406420799985,62.53830154199977,67.71406420799985,67.75591204200009,68.42092170800015,62.53830154199977,2,1,0.8900471659999312,reldom2_s009,001,2025-01-30_11h59.05.496,Aud-B-Scan_AC,2022.2.5,None,
4,First_Order,1.0,audwhat,stimulus/audwhat_stim/dummy.wav,stimulus/audwhat_stim/dummy.wav,stimulus/audwhat_stim/percussion mallet_low-pitch_D_loud.wav,stimulus/audwhat_stim/percussion xylophone_high-pitch_Dtri_loud.wav,stimulus/audwhat_stim/blank_white.png,stimulus/audwhat_stim/pitch_box.png,stimulus/audwhat_stim/pitch_yes.png,stimulus/audwhat_stim/pitch_no.png,None,Pitch,None,Category,2,0.0,0,5.125,0,5.125,0,5.125,0,0.0,0.625,0,0,0,0,0,0,0,0,0,0.0,0,0.0,1,0.5,1,2.125,0,,,,,0,4,4,4,,,,,,,,,68.639947958,68.639947958,68.639947958,68.639947958,68.639947958,68.639947958,68.639947958,68.639947958,68.55425504133348,68.639947958,68.639947958,68.639947958,68.55425504133348,68.639947958,68.639947958,68.639947958,70.75398570800007,,68.639947958,68.639947958,73.81079599999975,68.639947958,68.639947958,68.639947958,68.639947958,69.11178749999999,70.1437921669999,69.08089024966672,,70.75398570800007,71.79409958299993,70.72368241666642,71.79409958299993,68.639947958,73.81079599999975,68.639947958,73.81079599999975,73.85267754200004,74.51563529199984,68.639947958,2,1,0.8485783740002262,reldom2_s009,001,2025-01-30_11h59.05.496,Aud-B-Scan_AC,2022.2.5,None,
0,0.0,None,fixation,stimulus/audwhat_stim/blank_white.png,stimulus/audwhat_stim/blank_white.png,stimulus/audwhere_stim/blank_white.png,stimulus/audwhere_stim/blank_white.png,stimulus/audwhat_stim/blank_white.png,stimulus/audwhat_stim/blank_white.png,stimulus/audwhat_stim/blank_white.png,stimulus/audwhat_stim/blank_white.png,0.0,0.0,0.0,0.0,0,0.0,0,0.0,0,0.0,0,0.0,0,0.0,0.0,0,0,0,0,0,0,0,0,0,0.0,0,0.0,0,0.0,0,0.0,8,,,,,0,5,5,5,,,,,,,,,74.75343133299975,74.75343133299975,74.75343133299975,74.75343133299975,74.75343133299975,74.75343133299975,74.75343133299975,74.75343133299975,74.64896862533317,74.75343133299975,74.75343133299975,74.75343133299975,74.64896862533317,74.75343133299975,74.75343133299975,74.75343133299975,74.75343133299975,74.75343133299975,74.75343133299975,74.75343133299975,74.75343133299975,74.75343133299975,74.75343133299975,74.75343133299975,74.75343133299975,74.75343133299975,74.75343133299975,74.69896862533318,74.75343133299975,74.75343133299975,74.75343133299975,74.69896862533318,74.75343133299975,74.75343133299975,74.75343133299975,74.75343133299975,74.75343133299975,79.95528862499987,79.95528862499987,82.91901899999993,None,0,,reldom2_s009,001,2025-01-30_11h59.05.496,Aud-B-Scan_AC,2022.2.5,None,
5,Second_Order,1.0,audwhat,stimulus/audwhat_stim/percussion mallet_high-pitch_Dtri_loud.wav,stimulus/audwhat_stim/string cello_high-pitch_Dtri_loud.wav,stimulus/audwhat_stim/string viola_low-pitch_F_loud.wav,stimulus/audwhat_stim/percussion mallet_low-pitch_F_loud.wav,stimulus/audwhat_stim/match_blank.png,stimulus/audwhat_stim/match_box.png,stimulus/audwhat_stim/match_yes.png,stimulus/audwhat_stim/match_no.png,1.0,Match,Pitch,Pitch,1,5.125,0,5.125,0,5.125,0,5.125,0,0.75,0.75,0,0,0,0,0,0,0,0,1,0.5,1,2.125,1,0.5,1,2.125,0,,,,,0,6,6,6,,,,,,,,,82.91901899999993,88.04085450000002,82.91901899999993,82.91901899999993,82.91901899999993,82.91901899999993,83.375149083,84.36868916699996,83.37805645866662,84.36868916699996,84.9956914999998,85.98475654200001,85.00079108366641,,88.04085450000002,88.87553508300016,90.9403346250001,,88.87553508300016,88.87553508300016,94.04089420799983,88.87553508300016,88.87553508300016,88.87553508300016,88.87553508300016,89.34432608299994,90.37773579199984,89.3137493746665,,90.9403346250001,91.97417283300001,90.90955887466659,,88.87553508300016,94.04089420799983,88.87553508300016,94.04089420799983,94.08311308300017,,88.87553508300016,1,1,1.0518104580000909,reldom2_s009,001,2025-01-30_11h59.05.496,Aud-B-Scan_AC,2022.2.5,None,
6,Second_Order,1.0,audwhat,stimulus/audwhat_stim/percussion mallet_low-pitch_F_loud.wav,stimulus/audwhat_stim/percussion mallet_high-pitch_Dtri_loud.wav,stimulus/audwhat_stim/string viola_low-pitch_Ftri_loud.wav,stimulus/audwhat_stim/percussion mallet_low-pitch_Ftri_loud.wav,stimulus/audwhat_stim/match_blank.png,stimulus/audwhat_stim/match_box.png,stimulus/audwhat_stim/match_yes.png,stimulus/audwhat_stim/match_no.png,2.0,Match,Category,Pitch,2,5.125,0,5.125,0,5.125,0,5.125,0,0.625,0.625,0,0,0,0,0,0,0,0,1,0.5,1,2.125,1,0.5,1,2.125,0,,,,,0,7,7,7,,,,,,,,,94.86542670800009,99.98502179199977,94.86542670800009,94.86542670800009,94.86542670800009,94.86542670800009,95.32313258299973,96.3218942919998,95.33617820866654,96.32980083299981,96.94555591700009,97.94192225000006,96.9571518336668,97.95012325000016,99.98502179199977,100.69822420799983,102.75997016700012,106.83870849999994,100.69822420799983,100.69822420799983,105.85612891699975,100.69822420799983,100.69822420799983,100.69822420799983,100.69822420799983,101.16500058300016,102.19400358299981,101.13398537466652,,102.75997016700012,103.79374329199982,102.7293768336665,,100.69822420799983,105.85612891699975,100.69822420799983,105.85612891699975,105.89843804199973,106.55966575000002,100.69822420799983,2,1,1.1816210419997333,reldom2_s009,001,2025-01-30_11h59.05.496,Aud-B-Scan_AC,2022.2.5,None,
0,0.0,None,fixation,stimulus/audwhat_stim/blank_white.png,stimulus/audwhat_stim/blank_white.png,stimulus/audwhere_stim/blank_white.png,stimulus/audwhere_stim/blank_white.png,stimulus/audwhat_stim/blank_white.png,stimulus/audwhat_stim/blank_white.png,stimulus/audwhat_stim/blank_white.png,stimulus/audwhat_stim/blank_white.png,0.0,0.0,0.0,0.0,0,0.0,0,0.0,0,0.0,0,0.0,0,0.0,0.0,0,0,0,0,0,0,0,0,0,0.0,0,0.0,0,0.0,0,0.0,10,,,,,0,8,8,8,,,,,,,,,106.83870849999994,106.83870849999994,106.83870849999994,106.83870849999994,106.83870849999994,106.83870849999994,106.83870849999994,106.83870849999994,106.73445391633334,106.83870849999994,106.83870849999994,106.83870849999994,106.73445391633334,106.83870849999994,106.83870849999994,106.83870849999994,106.83870849999994,106.83870849999994,106.83870849999994,106.83870849999994,106.83870849999994,106.83870849999994,106.83870849999994,106.83870849999994,106.83870849999994,106.83870849999994,106.83870849999994,106.78445391633335,106.83870849999994,106.83870849999994,106.83870849999994,106.78445391633335,106.83870849999994,106.83870849999994,106.83870849999994,106.83870849999994,106.83870849999994,112.02337262499987,112.02337262499987,117.12016825,None,0,,reldom2_s009,001,2025-01-30_11h59.05.496,Aud-B-Scan_AC,2022.2.5,None,
7,First_Order,2.0,audwhat,stimulus/audwhat_stim/dummy.wav,stimulus/audwhat_stim/dummy.wav,stimulus/audwhat_stim/percussion xylophone_high-pitch_F_loud.wav,stimulus/audwhat_stim/percussion mallet_low-pitch_D_loud.wav,stimulus/audwhat_stim/blank_white.png,stimulus/audwhat_stim/category_box.png,stimulus/audwhat_stim/category_yes.png,stimulus/audwhat_stim/category_no.png,None,Category,None,Category,1,0.0,0,5.125,0,5.125,0,5.125,0,0.0,0.625,0,0,0,0,0,0,0,0,0,0.0,0,0.0,1,0.5,1,2.125,0,,,,,0,9,9,9,,,,,,,,,117.12016825,117.12016825,117.12016825,117.12016825,117.12016825,117.12016825,117.12016825,117.12016825,117.00394204166666,117.12016825,117.12016825,117.12016825,117.00394204166666,117.12016825,117.12016825,117.12016825,119.15661550000004,123.19912762500007,117.12016825,117.12016825,122.274224667,117.12016825,117.12016825,117.12016825,117.12016825,117.54618037499995,118.59028091699975,117.51505604166665,118.59028091699975,119.15661550000004,120.19743262500015,119.12615345866676,,117.12016825,122.274224667,117.12016825,122.274224667,122.274224667,122.93976579199989,117.12016825,1,1,1.6105551659998127,reldom2_s009,001,2025-01-30_11h59.05.496,Aud-B-Scan_AC,2022.2.5,None,
8,First_Order,2.0,audwhat,stimulus/audwhat_stim/dummy.wav,stimulus/audwhat_stim/dummy.wav,stimulus/audwhat_stim/percussion mallet_low-pitch_D_loud.wav,stimulus/audwhat_stim/string viola_low-pitch_D_loud.wav,stimulus/audwhat_stim/blank_white.png,stimulus/audwhat_stim/pitch_box.png,stimulus/audwhat_stim/pitch_yes.png,stimulus/audwhat_stim/pitch_no.png,None,Pitch,None,Pitch,1,0.0,0,5.125,0,5.125,0,5.125,0,0.0,0.625,0,0,0,0,0,0,0,0,0,0.0,0,0.0,1,0.5,1,2.125,0,,,,,0,10,10,10,,,,,,,,,123.19912762500007,123.19912762500007,123.19912762500007,123.19912762500007,123.19912762500007,123.19912762500007,123.19912762500007,123.19912762500007,123.11478312533347,123.19912762500007,123.19912762500007,123.19912762500007,123.11478312533347,123.19912762500007,123.19912762500007,123.19912762500007,125.27137608299972,,123.19912762500007,123.19912762500007,128.38033637499984,123.19912762500007,123.19912762500007,123.19912762500007,123.19912762500007,123.67018266700006,124.70773987499979,123.63984458366646,,125.27137608299972,126.3128360830001,125.2403403336664,,123.19912762500007,128.38033637499984,123.19912762500007,128.38033637499984,128.4219429169998,129.0846361670001,123.19912762500007,1,1,2.0059018329998253,reldom2_s009,001,2025-01-30_11h59.05.496,Aud-B-Scan_AC,2022.2.5,None,
9,First_Order,2.0,audwhat,stimulus/audwhat_stim/dummy.wav,stimulus/audwhat_stim/dummy.wav,stimulus/audwhat_stim/percussion mallet_low-pitch_D_loud.wav,stimulus/audwhat_stim/percussion mallet_high-pitch_Ftri_loud.wav,stimulus/audwhat_stim/blank_white.png,stimulus/audwhat_stim/category_box.png,stimulus/audwhat_stim/category_yes.png,stimulus/audwhat_stim/category_no.png,None,Category,None,Category,1,0.0,0,5.125,0,5.125,0,5.125,0,0.0,0.625,0,0,0,0,0,0,0,0,0,0.0,0,0.0,1,0.5,1,2.125,0,,,,,0,11,11,11,,,,,,,,,129.30355470799987,129.30355470799987,129.30355470799987,129.30355470799987,129.30355470799987,129.30355470799987,129.30355470799987,129.30355470799987,129.21796950033345,129.30355470799987,129.30355470799987,129.30355470799987,129.21796950033345,129.30355470799987,129.30355470799987,129.30355470799987,131.38602116699985,135.43531437499996,129.30355470799987,129.30355470799987,134.46455424999976,129.30355470799987,129.30355470799987,129.30355470799987,129.30355470799987,129.7767382500001,130.8195202920001,129.74617095866668,,131.38602116699985,132.43109320799977,131.3549294166667,,129.30355470799987,134.46455424999976,129.30355470799987,134.46455424999976,134.506465208,135.172232292,129.30355470799987,1,1,1.2072967489998518,reldom2_s009,001,2025-01-30_11h59.05.496,Aud-B-Scan_AC,2022.2.5,None,
10,First_Order,2.0,audwhat,stimulus/audwhat_stim/dummy.wav,stimulus/audwhat_stim/dummy.wav,stimulus/audwhat_stim/string cello_high-pitch_F_loud.wav,stimulus/audwhat_stim/percussion mallet_high-pitch_F_loud.wav,stimulus/audwhat_stim/blank_white.png,stimulus/audwhat_stim/category_box.png,stimulus/audwhat_stim/category_yes.png,stimulus/audwhat_stim/category_no.png,None,Category,None,Pitch,2,0.0,0,5.125,0,5.125,0,5.125,0,0.0,0.625,0,0,0,0,0,0,0,0,0,0.0,0,0.0,1,0.5,1,2.125,0,,,,,0,12,12,12,,,,,,,,,135.43531437499996,135.43531437499996,135.43531437499996,135.43531437499996,135.43531437499996,135.43531437499996,135.43531437499996,135.43531437499996,135.34705379133325,135.43531437499996,135.43531437499996,135.43531437499996,135.34705379133325,135.43531437499996,135.43531437499996,135.43531437499996,137.51787883299994,141.58165908299998,135.43531437499996,135.43531437499996,140.59530425000003,135.43531437499996,135.43531437499996,135.43531437499996,135.43531437499996,135.90840066700002,136.95024762499997,135.8766945416667,,137.51787883299994,138.56143791700015,137.48706799966683,,135.43531437499996,140.59530425000003,135.43531437499996,140.59530425000003,140.63716250000016,141.3023383750001,135.43531437499996,2,1,1.1108393750000687,reldom2_s009,001,2025-01-30_11h59.05.496,Aud-B-Scan_AC,2022.2.5,None,
0,0.0,None,fixation,stimulus/audwhat_stim/blank_white.png,stimulus/audwhat_stim/blank_white.png,stimulus/audwhere_stim/blank_white.png,stimulus/audwhere_stim/blank_white.png,stimulus/audwhat_stim/blank_white.png,stimulus/audwhat_stim/blank_white.png,stimulus/audwhat_stim/blank_white.png,stimulus/audwhat_stim/blank_white.png,0.0,0.0,0.0,0.0,0,0.0,0,0.0,0,0.0,0,0.0,0,0.0,0.0,0,0,0,0,0,0,0,0,0,0.0,0,0.0,0,0.0,0,0.0,8,,,,,0,13,13,13,,,,,,,,,141.58165908299998,141.58165908299998,141.58165908299998,141.58165908299998,141.58165908299998,141.58165908299998,141.58165908299998,141.58165908299998,141.47687216633327,141.58165908299998,141.58165908299998,141.58165908299998,141.47687216633327,141.58165908299998,141.58165908299998,141.58165908299998,141.58165908299998,141.58165908299998,141.58165908299998,141.58165908299998,141.58165908299998,141.58165908299998,141.58165908299998,141.58165908299998,141.58165908299998,141.58165908299998,141.58165908299998,141.52687216633325,141.58165908299998,141.58165908299998,141.58165908299998,141.52687216633325,141.58165908299998,141.58165908299998,141.58165908299998,141.58165908299998,141.58165908299998,146.8019936669998,146.8019936669998,149.721664917,None,0,,reldom2_s009,001,2025-01-30_11h59.05.496,Aud-B-Scan_AC,2022.2.5,None,
11,Second_Order,2.0,audwhat,stimulus/audwhat_stim/string viola_high-pitch_Dtri_loud.wav,stimulus/audwhat_stim/string cello_low-pitch_D_loud.wav,stimulus/audwhat_stim/percussion mallet_high-pitch_Dtri_loud.wav,stimulus/audwhat_stim/percussion mallet_low-pitch_Ftri_loud.wav,stimulus/audwhat_stim/match_blank.png,stimulus/audwhat_stim/match_box.png,stimulus/audwhat_stim/match_yes.png,stimulus/audwhat_stim/match_no.png,1.0,Match,Category,Category,1,5.125,0,5.125,0,5.125,0,5.125,0,0.75,0.75,0,0,0,0,0,0,0,0,1,0.5,1,2.125,1,0.5,1,2.125,0,,,,,0,14,14,14,,,,,,,,,149.721664917,154.84606095799973,149.721664917,149.721664917,149.721664917,149.721664917,150.16685554200012,151.16500808299998,150.17904695866653,,151.8047751250001,152.802379708,151.81633362466644,,154.84606095799973,155.67649737500005,157.75128029200005,161.68545191700014,155.67649737500005,155.67649737500005,160.85913833299992,155.67649737500005,155.67649737500005,155.67649737500005,155.67649737500005,156.14776641699973,157.18563191700014,156.11677637466644,,157.75128029200005,158.78854279200004,157.72053612466678,,155.67649737500005,160.85913833299992,155.67649737500005,160.85913833299992,160.85913833299992,,155.67649737500005,1,1,1.108937457999673,reldom2_s009,001,2025-01-30_11h59.05.496,Aud-B-Scan_AC,2022.2.5,None,
12,Second_Order,2.0,audwhat,stimulus/audwhat_stim/string viola_low-pitch_F_loud.wav,stimulus/audwhat_stim/string viola_high-pitch_Ftri_loud.wav,stimulus/audwhat_stim/percussion mallet_low-pitch_Ftri_loud.wav,stimulus/audwhat_stim/percussion xylophone_high-pitch_Dtri_loud.wav,stimulus/audwhat_stim/match_blank.png,stimulus/audwhat_stim/match_box.png,stimulus/audwhat_stim/match_yes.png,stimulus/audwhat_stim/match_no.png,1.0,Match,Category,Category,1,5.125,0,5.125,0,5.125,0,5.125,0,0.625,0.625,0,0,0,0,0,0,0,0,1,0.5,1,2.125,1,0.5,1,2.125,0,,,,,0,15,15,15,,,,,,,,,161.68545191700014,166.80565816699982,161.68545191700014,161.68545191700014,161.68545191700014,161.68545191700014,162.14412058300013,163.14277058300013,162.1566727496668,,163.76561416699997,164.76321529200004,163.77753870866653,,166.80565816699982,167.51862683299987,169.58460245800006,,167.51862683299987,167.51862683299987,172.6871994170001,167.51862683299987,167.51862683299987,167.51862683299987,167.51862683299987,167.98972912499994,169.02272437500005,167.95920579166685,,169.58460245800006,170.62399449999975,169.55379374966677,170.62399449999975,167.51862683299987,172.6871994170001,167.51862683299987,172.6871994170001,172.72851333300014,173.39074641700017,167.51862683299987,1,1,2.1567144999999073,reldom2_s009,001,2025-01-30_11h59.05.496,Aud-B-Scan_AC,2022.2.5,None,
0,0.0,None,fixation,stimulus/audwhat_stim/blank_white.png,stimulus/audwhat_stim/blank_white.png,stimulus/audwhere_stim/blank_white.png,stimulus/audwhere_stim/blank_white.png,stimulus/audwhat_stim/blank_white.png,stimulus/audwhat_stim/blank_white.png,stimulus/audwhat_stim/blank_white.png,stimulus/audwhat_stim/blank_white.png,0.0,0.0,0.0,0.0,0,0.0,0,0.0,0,0.0,0,0.0,0,0.0,0.0,0,0,0,0,0,0,0,0,0,0.0,0,0.0,0,0.0,0,0.0,9,,,,,0,16,16,16,,,,,,,,,173.629181583,173.629181583,173.629181583,173.629181583,173.629181583,173.629181583,173.629181583,173.629181583,173.52407975033353,173.629181583,173.629181583,173.629181583,173.52407975033353,173.629181583,173.629181583,173.629181583,173.629181583,173.629181583,173.629181583,173.629181583,173.629181583,173.629181583,173.629181583,173.629181583,173.629181583,173.629181583,173.629181583,173.5907464170002,173.629181583,173.629181583,173.629181583,173.5907464170002,173.629181583,173.629181583,173.629181583,173.629181583,173.629181583,178.83718729199973,178.83718729199973,182.8771414580001,None,0,,reldom2_s009,001,2025-01-30_11h59.05.496,Aud-B-Scan_AC,2022.2.5,None,
13,First_Order,3.0,audwhere,stimulus/audwhere_stim/dummy.wav,stimulus/audwhere_stim/dummy.wav,stimulus/audwhere_stim/left_toward_290h.wav,stimulus/audwhere_stim/right_toward_280h.wav,stimulus/audwhere_stim/blank_white.png,stimulus/audwhere_stim/direction_box.png,stimulus/audwhere_stim/direction_yes.png,stimulus/audwhere_stim/direction_no.png,None,Direction,None,Direction,1,0.0,0,5.125,0,5.125,0,5.125,0,0.0,0.625,0,0,0,0,0,0,0,0,0,0.0,0,0.0,1,0.5,1,2.125,0,,,,,0,17,17,17,,,,,,,,,182.8771414580001,182.8771414580001,182.8771414580001,182.8771414580001,182.8771414580001,182.8771414580001,182.8771414580001,182.8771414580001,182.79638604166684,182.8771414580001,182.8771414580001,182.8771414580001,182.79638604166684,182.8771414580001,182.8771414580001,182.8771414580001,184.9629043330001,189.00642549999975,182.8771414580001,182.8771414580001,188.03963937499975,182.8771414580001,182.8771414580001,182.8771414580001,182.8771414580001,183.350606125,184.39461333300005,183.31959633366685,,184.9629043330001,186.00848637499985,184.93267287466668,,182.8771414580001,188.03963937499975,182.8771414580001,188.03963937499975,188.0815967499998,188.7467334170001,182.8771414580001,1,1,1.8021768749999865,reldom2_s009,001,2025-01-30_11h59.05.496,Aud-B-Scan_AC,2022.2.5,None,
14,First_Order,3.0,audwhere,stimulus/audwhere_stim/dummy.wav,stimulus/audwhere_stim/dummy.wav,stimulus/audwhere_stim/left_toward_270h.wav,stimulus/audwhere_stim/right_toward_290h.wav,stimulus/audwhere_stim/blank_white.png,stimulus/audwhere_stim/direction_box.png,stimulus/audwhere_stim/direction_yes.png,stimulus/audwhere_stim/direction_no.png,None,Direction,None,Direction,1,0.0,0,5.125,0,5.125,0,5.125,0,0.0,0.625,0,0,0,0,0,0,0,0,0,0.0,0,0.0,1,0.5,1,2.125,0,,,,,0,18,18,18,,,,,,,,,189.00642549999975,189.00642549999975,189.00642549999975,189.00642549999975,189.00642549999975,189.00642549999975,189.00642549999975,189.00642549999975,188.9212898753332,189.00642549999975,189.00642549999975,189.00642549999975,188.9212898753332,189.00642549999975,189.00642549999975,189.00642549999975,191.09045108300006,195.13869699999987,189.00642549999975,189.00642549999975,194.16983566699992,189.00642549999975,189.00642549999975,189.00642549999975,189.00642549999975,189.47967854199987,190.5218607500001,189.4488793336666,,191.09045108300006,192.13653079200003,191.05938549966666,,189.00642549999975,194.16983566699992,189.00642549999975,194.16983566699992,194.21117233299992,194.87769929199976,189.00642549999975,1,1,1.697785291999935,reldom2_s009,001,2025-01-30_11h59.05.496,Aud-B-Scan_AC,2022.2.5,None,
15,First_Order,3.0,audwhere,stimulus/audwhere_stim/dummy.wav,stimulus/audwhere_stim/dummy.wav,stimulus/audwhere_stim/left_away_290h.wav,stimulus/audwhere_stim/left_toward_280h.wav,stimulus/audwhere_stim/blank_white.png,stimulus/audwhere_stim/direction_box.png,stimulus/audwhere_stim/direction_yes.png,stimulus/audwhere_stim/direction_no.png,None,Direction,None,Side,2,0.0,0,5.125,0,5.125,0,5.125,0,0.0,0.625,0,0,0,0,0,0,0,0,0,0.0,0,0.0,1,0.5,1,2.125,0,,,,,0,19,19,19,,,,,,,,,195.13869699999987,195.13869699999987,195.13869699999987,195.13869699999987,195.13869699999987,195.13869699999987,195.13869699999987,195.13869699999987,195.05274237533345,195.13869699999987,195.13869699999987,195.13869699999987,195.05274237533345,195.13869699999987,195.13869699999987,195.13869699999987,197.22297241700016,,195.13869699999987,195.13869699999987,200.30272266700013,195.13869699999987,195.13869699999987,195.13869699999987,195.13869699999987,195.61187833299982,196.65616233299988,195.58115770866678,,197.22297241700016,198.26968745800013,197.1922706246667,,195.13869699999987,200.30272266700013,195.13869699999987,200.30272266700013,200.34482720799997,201.01146733299993,195.13869699999987,2,1,1.5659477079998396,reldom2_s009,001,2025-01-30_11h59.05.496,Aud-B-Scan_AC,2022.2.5,None,
16,First_Order,3.0,audwhere,stimulus/audwhere_stim/dummy.wav,stimulus/audwhere_stim/dummy.wav,stimulus/audwhere_stim/left_toward_300h.wav,stimulus/audwhere_stim/left_away_290h.wav,stimulus/audwhere_stim/blank_white.png,stimulus/audwhere_stim/direction_box.png,stimulus/audwhere_stim/direction_yes.png,stimulus/audwhere_stim/direction_no.png,None,Direction,None,Side,2,0.0,0,5.125,0,5.125,0,5.125,0,0.0,0.625,0,0,0,0,0,0,0,0,0,0.0,0,0.0,1,0.5,1,2.125,0,,,,,0,20,20,20,,,,,,,,,201.23008091700012,201.23008091700012,201.23008091700012,201.23008091700012,201.23008091700012,201.23008091700012,201.23008091700012,201.23008091700012,201.14480066633328,201.23008091700012,201.23008091700012,201.23008091700012,201.14480066633328,201.23008091700012,201.23008091700012,201.23008091700012,203.31380745800016,207.38416300000017,201.23008091700012,201.23008091700012,206.39737491699998,201.23008091700012,201.23008091700012,201.23008091700012,201.23008091700012,201.70445208299998,202.74725070800014,201.6727861246666,,203.31380745800016,204.36143833300002,203.28305416666652,,201.23008091700012,206.39737491699998,201.23008091700012,206.39737491699998,206.43911350000008,207.10437412500005,201.23008091700012,2,1,1.0260740829999122,reldom2_s009,001,2025-01-30_11h59.05.496,Aud-B-Scan_AC,2022.2.5,None,
0,0.0,None,fixation,stimulus/audwhat_stim/blank_white.png,stimulus/audwhat_stim/blank_white.png,stimulus/audwhere_stim/blank_white.png,stimulus/audwhere_stim/blank_white.png,stimulus/audwhat_stim/blank_white.png,stimulus/audwhat_stim/blank_white.png,stimulus/audwhat_stim/blank_white.png,stimulus/audwhat_stim/blank_white.png,0.0,0.0,0.0,0.0,0,0.0,0,0.0,0,0.0,0,0.0,0,0.0,0.0,0,0,0,0,0,0,0,0,0,0.0,0,0.0,0,0.0,0,0.0,10,,,,,0,21,21,21,,,,,,,,,207.38416300000017,207.38416300000017,207.38416300000017,207.38416300000017,207.38416300000017,207.38416300000017,207.38416300000017,207.38416300000017,207.27928137533323,207.38416300000017,207.38416300000017,207.38416300000017,207.27928137533323,207.38416300000017,207.38416300000017,207.38416300000017,207.38416300000017,207.38416300000017,207.38416300000017,207.38416300000017,207.38416300000017,207.38416300000017,207.38416300000017,207.38416300000017,207.38416300000017,207.38416300000017,207.38416300000017,207.3292813753332,207.38416300000017,207.38416300000017,207.38416300000017,207.3292813753332,207.38416300000017,207.38416300000017,207.38416300000017,207.38416300000017,207.38416300000017,212.6157146669998,212.6157146669998,217.5538796249998,None,0,,reldom2_s009,001,2025-01-30_11h59.05.496,Aud-B-Scan_AC,2022.2.5,None,
17,Second_Order,3.0,audwhere,stimulus/audwhere_stim/right_toward_290h.wav,stimulus/audwhere_stim/right_away_290h.wav,stimulus/audwhere_stim/right_away_280h.wav,stimulus/audwhere_stim/left_away_300h.wav,stimulus/audwhat_stim/match_blank.png,stimulus/audwhat_stim/match_box.png,stimulus/audwhat_stim/match_yes.png,stimulus/audwhat_stim/match_no.png,2.0,Match,Side,Direction,2,5.125,0,5.125,0,5.125,0,5.125,0,0.75,0.75,0,0,0,0,0,0,0,0,1,0.5,1,2.125,1,0.5,1,2.125,0,,,,,0,22,22,22,,,,,,,,,217.5538796249998,222.66970616699973,217.5538796249998,217.5538796249998,217.5538796249998,217.5538796249998,218.00674104200016,219.00474912499976,218.01912616666667,219.01207387500017,219.6272099580001,220.62525212499986,219.63966337466653,220.6329556669998,222.66970616699973,223.51360674999978,225.58888124999976,229.52449579199993,223.51360674999978,223.51360674999978,228.69877287500003,223.51360674999978,223.51360674999978,223.51360674999978,223.51360674999978,223.9874344169998,225.02568683299978,223.9565988336665,,225.58888124999976,226.62776299999996,225.55808095866658,,223.51360674999978,228.69877287500003,223.51360674999978,228.69877287500003,228.69877287500003,,223.51360674999978,2,1,1.6822624579999683,reldom2_s009,001,2025-01-30_11h59.05.496,Aud-B-Scan_AC,2022.2.5,None,
18,Second_Order,3.0,audwhere,stimulus/audwhere_stim/right_toward_270h.wav,stimulus/audwhere_stim/left_toward_270h.wav,stimulus/audwhere_stim/right_away_300h.wav,stimulus/audwhere_stim/left_away_280h.wav,stimulus/audwhat_stim/match_blank.png,stimulus/audwhat_stim/match_box.png,stimulus/audwhat_stim/match_yes.png,stimulus/audwhat_stim/match_no.png,1.0,Match,Direction,Direction,1,5.125,0,5.125,0,5.125,0,5.125,0,0.625,0.625,0,0,0,0,0,0,0,0,1,0.5,1,2.125,1,0.5,1,2.125,0,,,,,0,23,23,23,,,,,,,,,229.52449579199993,234.64511216699975,229.52449579199993,229.52449579199993,229.52449579199993,229.52449579199993,229.98018254199997,230.9700778749998,229.98364045866654,230.9822211669998,231.60626170800015,232.60287420799978,231.61762920866684,232.6111542079998,234.64511216699975,235.35671708300015,237.4230255829998,,235.35671708300015,235.35671708300015,240.53014895800015,235.35671708300015,235.35671708300015,235.35671708300015,235.35671708300015,235.82618758299986,236.8597729170001,235.7954702916666,,237.4230255829998,238.4633147919999,237.3922349166667,,235.35671708300015,240.53014895800015,235.35671708300015,240.53014895800015,240.57180404200017,241.23354308299986,235.35671708300015,1,1,2.6195109579998643,reldom2_s009,001,2025-01-30_11h59.05.496,Aud-B-Scan_AC,2022.2.5,None,
0,0.0,None,fixation,stimulus/audwhat_stim/blank_white.png,stimulus/audwhat_stim/blank_white.png,stimulus/audwhere_stim/blank_white.png,stimulus/audwhere_stim/blank_white.png,stimulus/audwhat_stim/blank_white.png,stimulus/audwhat_stim/blank_white.png,stimulus/audwhat_stim/blank_white.png,stimulus/audwhat_stim/blank_white.png,0.0,0.0,0.0,0.0,0,0.0,0,0.0,0,0.0,0,0.0,0,0.0,0.0,0,0,0,0,0,0,0,0,0,0.0,0,0.0,0,0.0,0,0.0,8,,,,,0,24,24,24,,,,,,,,,241.4760961249999,241.4760961249999,241.4760961249999,241.4760961249999,241.4760961249999,241.4760961249999,241.4760961249999,241.4760961249999,241.3668764163332,241.4760961249999,241.4760961249999,241.4760961249999,241.3668764163332,241.4760961249999,241.4760961249999,241.4760961249999,241.4760961249999,241.4760961249999,241.4760961249999,241.4760961249999,241.4760961249999,241.4760961249999,241.4760961249999,241.4760961249999,241.4760961249999,241.4760961249999,241.4760961249999,241.43354308299988,241.4760961249999,241.4760961249999,241.4760961249999,241.43354308299988,241.4760961249999,241.4760961249999,241.4760961249999,241.4760961249999,241.4760961249999,246.67921750000005,246.67921750000005,249.7415827499999,None,0,,reldom2_s009,001,2025-01-30_11h59.05.496,Aud-B-Scan_AC,2022.2.5,None,
19,First_Order,4.0,audwhere,stimulus/audwhere_stim/dummy.wav,stimulus/audwhere_stim/dummy.wav,stimulus/audwhere_stim/right_toward_280h.wav,stimulus/audwhere_stim/left_toward_280h.wav,stimulus/audwhere_stim/blank_white.png,stimulus/audwhere_stim/side_box.png,stimulus/audwhere_stim/side_yes.png,stimulus/audwhere_stim/side_no.png,None,Side,None,Direction,2,0.0,0,5.125,0,5.125,0,5.125,0,0.0,0.625,0,0,0,0,0,0,0,0,0,0.0,0,0.0,1,0.5,1,2.125,0,,,,,0,25,25,25,,,,,,,,,249.7415827499999,249.7415827499999,249.7415827499999,249.7415827499999,249.7415827499999,249.7415827499999,249.7415827499999,249.7415827499999,249.66425408366666,249.7415827499999,249.7415827499999,249.7415827499999,249.66425408366666,249.7415827499999,249.7415827499999,249.7415827499999,251.81610854200017,,249.7415827499999,249.7415827499999,254.92457858299986,249.7415827499999,249.7415827499999,249.7415827499999,249.7415827499999,250.21520633299997,251.25165645800007,250.18506137466673,,251.81610854200017,252.85504887499974,251.78558866666643,,249.7415827499999,254.92457858299986,249.7415827499999,254.92457858299986,254.9664130420001,255.6305130830001,249.7415827499999,2,1,1.6663352919995305,reldom2_s009,001,2025-01-30_11h59.05.496,Aud-B-Scan_AC,2022.2.5,None,
20,First_Order,4.0,audwhere,stimulus/audwhere_stim/dummy.wav,stimulus/audwhere_stim/dummy.wav,stimulus/audwhere_stim/left_toward_290h.wav,stimulus/audwhere_stim/right_toward_270h.wav,stimulus/audwhere_stim/blank_white.png,stimulus/audwhere_stim/side_box.png,stimulus/audwhere_stim/side_yes.png,stimulus/audwhere_stim/side_no.png,None,Side,None,Direction,2,0.0,0,5.125,0,5.125,0,5.125,0,0.0,0.625,0,0,0,0,0,0,0,0,0,0.0,0,0.0,1,0.5,1,2.125,0,,,,,0,26,26,26,,,,,,,,,255.84650170799978,255.84650170799978,255.84650170799978,255.84650170799978,255.84650170799978,255.84650170799978,255.84650170799978,255.84650170799978,255.76384641633345,255.84650170799978,255.84650170799978,255.84650170799978,255.76384641633345,255.84650170799978,255.84650170799978,255.84650170799978,257.91993887499984,,255.84650170799978,255.84650170799978,261.026070375,255.84650170799978,255.84650170799978,255.84650170799978,255.84650170799978,256.3192515420001,257.35473808300003,256.28833583366645,,257.91993887499984,258.95659216700005,257.8875227496667,,255.84650170799978,261.026070375,255.84650170799978,261.026070375,261.06791225000006,261.73127999999997,255.84650170799978,2,1,1.4658769170000596,reldom2_s009,001,2025-01-30_11h59.05.496,Aud-B-Scan_AC,2022.2.5,None,
21,First_Order,4.0,audwhere,stimulus/audwhere_stim/dummy.wav,stimulus/audwhere_stim/dummy.wav,stimulus/audwhere_stim/left_toward_270h.wav,stimulus/audwhere_stim/left_away_300h.wav,stimulus/audwhere_stim/blank_white.png,stimulus/audwhere_stim/side_box.png,stimulus/audwhere_stim/side_yes.png,stimulus/audwhere_stim/side_no.png,None,Side,None,Side,1,0.0,0,5.125,0,5.125,0,5.125,0,0.0,0.625,0,0,0,0,0,0,0,0,0,0.0,0,0.0,1,0.5,1,2.125,0,,,,,0,27,27,27,,,,,,,,,261.94832329200017,261.94832329200017,261.94832329200017,261.94832329200017,261.94832329200017,261.94832329200017,261.94832329200017,261.94832329200017,261.8646133333333,261.94832329200017,261.94832329200017,261.94832329200017,261.8646133333333,261.94832329200017,261.94832329200017,261.94832329200017,264.02117695800007,,261.94832329200017,261.94832329200017,267.1268030000001,261.94832329200017,261.94832329200017,261.94832329200017,261.94832329200017,262.419530958,263.45517579199986,262.38914966666675,,264.02117695800007,265.0576811249998,263.9907809996664,,261.94832329200017,267.1268030000001,261.94832329200017,267.1268030000001,267.1688079999999,267.833425583,261.94832329200017,1,1,1.2985365829999864,reldom2_s009,001,2025-01-30_11h59.05.496,Aud-B-Scan_AC,2022.2.5,None,
22,First_Order,4.0,audwhere,stimulus/audwhere_stim/dummy.wav,stimulus/audwhere_stim/dummy.wav,stimulus/audwhere_stim/left_away_290h.wav,stimulus/audwhere_stim/left_toward_270h.wav,stimulus/audwhere_stim/blank_white.png,stimulus/audwhere_stim/side_box.png,stimulus/audwhere_stim/side_yes.png,stimulus/audwhere_stim/side_no.png,None,Side,None,Side,1,0.0,0,5.125,0,5.125,0,5.125,0,0.0,0.625,0,0,0,0,0,0,0,0,0,0.0,0,0.0,1,0.5,1,2.125,0,,,,,0,28,28,28,,,,,,,,,268.0508881249998,268.0508881249998,268.0508881249998,268.0508881249998,268.0508881249998,268.0508881249998,268.0508881249998,268.0508881249998,267.96675891633333,268.0508881249998,268.0508881249998,268.0508881249998,267.96675891633333,268.0508881249998,268.0508881249998,268.0508881249998,270.12479137499986,,268.0508881249998,268.0508881249998,273.23528029199997,268.0508881249998,268.0508881249998,268.0508881249998,268.0508881249998,268.5213403329999,269.55811783299987,268.49096279166656,,270.12479137499986,271.1627861249999,270.0940081246665,,268.0508881249998,273.23528029199997,268.0508881249998,273.23528029199997,273.27701104200014,273.94217820799986,268.0508881249998,1,1,1.2466977499998393,reldom2_s009,001,2025-01-30_11h59.05.496,Aud-B-Scan_AC,2022.2.5,None,
0,0.0,None,fixation,stimulus/audwhat_stim/blank_white.png,stimulus/audwhat_stim/blank_white.png,stimulus/audwhere_stim/blank_white.png,stimulus/audwhere_stim/blank_white.png,stimulus/audwhat_stim/blank_white.png,stimulus/audwhat_stim/blank_white.png,stimulus/audwhat_stim/blank_white.png,stimulus/audwhat_stim/blank_white.png,0.0,0.0,0.0,0.0,0,0.0,0,0.0,0,0.0,0,0.0,0,0.0,0.0,0,0,0,0,0,0,0,0,0,0.0,0,0.0,0,0.0,0,0.0,10,,,,,0,29,29,29,,,,,,,,,274.18008737499986,274.18008737499986,274.18008737499986,274.18008737499986,274.18008737499986,274.18008737499986,274.18008737499986,274.18008737499986,274.0755115413332,274.18008737499986,274.18008737499986,274.18008737499986,274.0755115413332,274.18008737499986,274.18008737499986,274.18008737499986,274.18008737499986,274.18008737499986,274.18008737499986,274.18008737499986,274.18008737499986,274.18008737499986,274.18008737499986,274.18008737499986,274.18008737499986,274.18008737499986,274.18008737499986,274.1255115413332,274.18008737499986,274.18008737499986,274.18008737499986,274.1255115413332,274.18008737499986,274.18008737499986,274.18008737499986,274.18008737499986,274.18008737499986,279.39600974999985,279.39600974999985,284.3232862499999,None,0,,reldom2_s009,001,2025-01-30_11h59.05.496,Aud-B-Scan_AC,2022.2.5,None,
23,Second_Order,4.0,audwhere,stimulus/audwhere_stim/right_toward_300h.wav,stimulus/audwhere_stim/left_toward_270h.wav,stimulus/audwhere_stim/left_away_300h.wav,stimulus/audwhere_stim/right_away_300h.wav,stimulus/audwhat_stim/match_blank.png,stimulus/audwhat_stim/match_box.png,stimulus/audwhat_stim/match_yes.png,stimulus/audwhat_stim/match_no.png,1.0,Match,Direction,Direction,1,5.125,0,5.125,0,5.125,0,5.125,0,0.75,0.75,0,0,0,0,0,0,0,0,1,0.5,1,2.125,1,0.5,1,2.125,0,,,,,0,30,30,30,,,,,,,,,284.3232862499999,289.43906533300014,284.3232862499999,284.3232862499999,284.3232862499999,284.3232862499999,284.7770565830001,285.77549683300003,284.78993629166666,285.78333799999973,286.39811962500016,287.3960266670001,286.4101385836668,287.4039362079998,289.43906533300014,290.271116375,292.34719866700016,296.28870204199984,290.271116375,290.271116375,295.46098441699996,290.271116375,290.271116375,290.271116375,290.271116375,290.74296675000005,291.7802798749999,290.7124179586665,,292.34719866700016,293.3871858749999,292.3169810416664,,290.271116375,295.46098441699996,290.271116375,295.46098441699996,295.46098441699996,,290.271116375,1,1,1.7845338749998518,reldom2_s009,001,2025-01-30_11h59.05.496,Aud-B-Scan_AC,2022.2.5,None,
24,Second_Order,4.0,audwhere,stimulus/audwhere_stim/right_toward_300h.wav,stimulus/audwhere_stim/left_toward_300h.wav,stimulus/audwhere_stim/left_away_290h.wav,stimulus/audwhere_stim/right_away_280h.wav,stimulus/audwhat_stim/match_blank.png,stimulus/audwhat_stim/match_box.png,stimulus/audwhat_stim/match_yes.png,stimulus/audwhat_stim/match_no.png,1.0,Match,Direction,Direction,1,5.125,0,5.125,0,5.125,0,5.125,0,0.625,0.625,0,0,0,0,0,0,0,0,1,0.5,1,2.125,1,0.5,1,2.125,0,,,,,0,31,31,31,,,,,,,,,296.28870204199984,301.4114559999998,296.28870204199984,296.28870204199984,296.28870204199984,296.28870204199984,296.73785016700003,297.7360987500001,296.75064133366664,297.74454645800006,298.3713160829998,299.36064824999994,298.3747106246667,299.37327716699974,301.4114559999998,302.12477612500015,304.19453137499977,,302.12477612500015,302.12477612500015,307.3019362079999,302.12477612500015,302.12477612500015,302.12477612500015,302.12477612500015,302.59300354200013,303.6281563749999,302.56282299966665,,304.19453137499977,305.23253566699987,304.16424879166675,,302.12477612500015,307.3019362079999,302.12477612500015,307.3019362079999,307.3436750420001,308.0090842919999,302.12477612500015,1,1,1.6375269989998742,reldom2_s009,001,2025-01-30_11h59.05.496,Aud-B-Scan_AC,2022.2.5,None,
0,0.0,None,fixation,stimulus/audwhat_stim/blank_white.png,stimulus/audwhat_stim/blank_white.png,stimulus/audwhere_stim/blank_white.png,stimulus/audwhere_stim/blank_white.png,stimulus/audwhat_stim/blank_white.png,stimulus/audwhat_stim/blank_white.png,stimulus/audwhat_stim/blank_white.png,stimulus/audwhat_stim/blank_white.png,0.0,0.0,0.0,0.0,0,0.0,0,0.0,0,0.0,0,0.0,0,0.0,0.0,0,0,0,0,0,0,0,0,0,0.0,0,0.0,0,0.0,0,0.0,9,,,,,0,32,32,32,,,,,,,,,308.24683049999976,308.24683049999976,308.24683049999976,308.24683049999976,308.24683049999976,308.24683049999976,308.24683049999976,308.24683049999976,308.1424176253332,308.24683049999976,308.24683049999976,308.24683049999976,308.1424176253332,308.24683049999976,308.24683049999976,308.24683049999976,308.24683049999976,308.24683049999976,308.24683049999976,308.24683049999976,308.24683049999976,308.24683049999976,308.24683049999976,308.24683049999976,308.24683049999976,308.24683049999976,308.24683049999976,308.19241762533323,308.24683049999976,308.24683049999976,308.24683049999976,308.19241762533323,308.24683049999976,308.24683049999976,308.24683049999976,308.24683049999976,308.24683049999976,313.45684741700006,313.45684741700006,317.4976113749999,None,0,,reldom2_s009,001,2025-01-30_11h59.05.496,Aud-B-Scan_AC,2022.2.5,None,
25,First_Order,5.0,audwhat,stimulus/audwhat_stim/dummy.wav,stimulus/audwhat_stim/dummy.wav,stimulus/audwhat_stim/percussion xylophone_high-pitch_Ftri_loud.wav,stimulus/audwhat_stim/percussion mallet_low-pitch_F_loud.wav,stimulus/audwhat_stim/blank_white.png,stimulus/audwhat_stim/pitch_box.png,stimulus/audwhat_stim/pitch_yes.png,stimulus/audwhat_stim/pitch_no.png,None,Pitch,None,Category,2,0.0,0,5.125,0,5.125,0,5.125,0,0.0,0.625,0,0,0,0,0,0,0,0,0,0.0,0,0.0,1,0.5,1,2.125,0,,,,,0,33,33,33,,,,,,,,,317.4976113749999,317.4976113749999,317.4976113749999,317.4976113749999,317.4976113749999,317.4976113749999,317.4976113749999,317.4976113749999,317.42076108366666,317.4976113749999,317.4976113749999,317.4976113749999,317.42076108366666,317.4976113749999,317.4976113749999,317.4976113749999,319.5758879169998,323.61456562500007,317.4976113749999,317.4976113749999,322.69083520799995,317.4976113749999,317.4976113749999,317.4976113749999,317.4976113749999,317.97033320799983,319.01148329199987,317.9397259996665,319.01148329199987,319.5758879169998,320.61939600000005,319.5450260416667,,317.4976113749999,322.69083520799995,317.4976113749999,322.69083520799995,322.69083520799995,323.3551649169999,317.4976113749999,2,1,0.9297862909998003,reldom2_s009,001,2025-01-30_11h59.05.496,Aud-B-Scan_AC,2022.2.5,None,
26,First_Order,5.0,audwhat,stimulus/audwhat_stim/dummy.wav,stimulus/audwhat_stim/dummy.wav,stimulus/audwhat_stim/percussion mallet_low-pitch_Dtri_loud.wav,stimulus/audwhat_stim/percussion xylophone_high-pitch_Ftri_loud.wav,stimulus/audwhat_stim/blank_white.png,stimulus/audwhat_stim/category_box.png,stimulus/audwhat_stim/category_yes.png,stimulus/audwhat_stim/category_no.png,None,Category,None,Category,1,0.0,0,5.125,0,5.125,0,5.125,0,0.0,0.625,0,0,0,0,0,0,0,0,0,0.0,0,0.0,1,0.5,1,2.125,0,,,,,0,34,34,34,,,,,,,,,323.61456562500007,323.61456562500007,323.61456562500007,323.61456562500007,323.61456562500007,323.61456562500007,323.61456562500007,323.61456562500007,323.53037633333327,323.61456562500007,323.61456562500007,323.61456562500007,323.53037633333327,323.61456562500007,323.61456562500007,323.61456562500007,325.6998583750001,,323.61456562500007,323.61456562500007,328.78287583300016,323.61456562500007,323.61456562500007,323.61456562500007,323.61456562500007,324.0906502499997,325.13205508300007,324.0597389586667,,325.6998583750001,326.748639292,325.6688497086668,326.748639292,323.61456562500007,328.78287583300016,323.61456562500007,328.78287583300016,328.8244701670001,329.4908785829998,323.61456562500007,1,1,1.0768702489999669,reldom2_s009,001,2025-01-30_11h59.05.496,Aud-B-Scan_AC,2022.2.5,None,
27,First_Order,5.0,audwhat,stimulus/audwhat_stim/dummy.wav,stimulus/audwhat_stim/dummy.wav,stimulus/audwhat_stim/string cello_low-pitch_Dtri_loud.wav,stimulus/audwhat_stim/percussion mallet_low-pitch_Dtri_loud.wav,stimulus/audwhat_stim/blank_white.png,stimulus/audwhat_stim/pitch_box.png,stimulus/audwhat_stim/pitch_yes.png,stimulus/audwhat_stim/pitch_no.png,None,Pitch,None,Pitch,1,0.0,0,5.125,0,5.125,0,5.125,0,0.0,0.625,0,0,0,0,0,0,0,0,0,0.0,0,0.0,1,0.5,1,2.125,0,,,,,0,35,35,35,,,,,,,,,329.7099921670001,329.7099921670001,329.7099921670001,329.7099921670001,329.7099921670001,329.7099921670001,329.7099921670001,329.7099921670001,329.62421191633314,329.7099921670001,329.7099921670001,329.7099921670001,329.62421191633314,329.7099921670001,329.7099921670001,329.7099921670001,331.787631917,335.8318267499999,329.7099921670001,329.7099921670001,334.90549495799996,329.7099921670001,329.7099921670001,329.7099921670001,329.7099921670001,330.185356167,331.22265012499975,330.1542435416666,,331.787631917,332.83090970800004,331.7573425416665,,329.7099921670001,334.90549495799996,329.7099921670001,334.90549495799996,334.90549495799996,335.5697566250001,329.7099921670001,1,1,0.7974207910001496,reldom2_s009,001,2025-01-30_11h59.05.496,Aud-B-Scan_AC,2022.2.5,None,
28,First_Order,5.0,audwhat,stimulus/audwhat_stim/dummy.wav,stimulus/audwhat_stim/dummy.wav,stimulus/audwhat_stim/percussion xylophone_high-pitch_Ftri_loud.wav,stimulus/audwhat_stim/percussion mallet_low-pitch_F_loud.wav,stimulus/audwhat_stim/blank_white.png,stimulus/audwhat_stim/category_box.png,stimulus/audwhat_stim/category_yes.png,stimulus/audwhat_stim/category_no.png,None,Category,None,Category,1,0.0,0,5.125,0,5.125,0,5.125,0,0.0,0.625,0,0,0,0,0,0,0,0,0,0.0,0,0.0,1,0.5,1,2.125,0,,,,,0,36,36,36,,,,,,,,,335.8318267499999,335.8318267499999,335.8318267499999,335.8318267499999,335.8318267499999,335.8318267499999,335.8318267499999,335.8318267499999,335.74428670833333,335.8318267499999,335.8318267499999,335.8318267499999,335.74428670833333,335.8318267499999,335.8318267499999,335.8318267499999,337.92637375000004,,335.8318267499999,335.8318267499999,341.0063142079998,335.8318267499999,335.8318267499999,335.8318267499999,335.8318267499999,336.308493042,337.3565753749999,336.27711633366675,337.3565753749999,337.92637375000004,338.97109062499976,337.8941264166667,,335.8318267499999,341.0063142079998,335.8318267499999,341.0063142079998,341.04808354199986,341.7148233749999,335.8318267499999,1,1,2.1207711659999404,reldom2_s009,001,2025-01-30_11h59.05.496,Aud-B-Scan_AC,2022.2.5,None,
0,0.0,None,fixation,stimulus/audwhat_stim/blank_white.png,stimulus/audwhat_stim/blank_white.png,stimulus/audwhere_stim/blank_white.png,stimulus/audwhere_stim/blank_white.png,stimulus/audwhat_stim/blank_white.png,stimulus/audwhat_stim/blank_white.png,stimulus/audwhat_stim/blank_white.png,stimulus/audwhat_stim/blank_white.png,0.0,0.0,0.0,0.0,0,0.0,0,0.0,0,0.0,0,0.0,0,0.0,0.0,0,0,0,0,0,0,0,0,0,0.0,0,0.0,0,0.0,0,0.0,8,,,,,0,37,37,37,,,,,,,,,341.9538532920001,341.9538532920001,341.9538532920001,341.9538532920001,341.9538532920001,341.9538532920001,341.9538532920001,341.9538532920001,341.84815670833325,341.9538532920001,341.9538532920001,341.9538532920001,341.84815670833325,341.9538532920001,341.9538532920001,341.9538532920001,341.9538532920001,341.9538532920001,341.9538532920001,341.9538532920001,341.9538532920001,341.9538532920001,341.9538532920001,341.9538532920001,341.9538532920001,341.9538532920001,341.9538532920001,341.89815670833326,341.9538532920001,341.9538532920001,341.9538532920001,341.89815670833326,341.9538532920001,341.9538532920001,341.9538532920001,341.9538532920001,341.9538532920001,347.1737173749998,347.1737173749998,350.100438208,None,0,,reldom2_s009,001,2025-01-30_11h59.05.496,Aud-B-Scan_AC,2022.2.5,None,
29,Second_Order,5.0,audwhat,stimulus/audwhat_stim/string viola_low-pitch_Dtri_loud.wav,stimulus/audwhat_stim/percussion mallet_low-pitch_Dtri_loud.wav,stimulus/audwhat_stim/string viola_low-pitch_Dtri_loud.wav,stimulus/audwhat_stim/string cello_high-pitch_Ftri_loud.wav,stimulus/audwhat_stim/match_blank.png,stimulus/audwhat_stim/match_box.png,stimulus/audwhat_stim/match_yes.png,stimulus/audwhat_stim/match_no.png,2.0,Match,Pitch,Category,2,5.125,0,5.125,0,5.125,0,5.125,0,0.75,0.75,0,0,0,0,0,0,0,0,1,0.5,1,2.125,1,0.5,1,2.125,0,,,,,0,38,38,38,,,,,,,,,350.100438208,355.22453600000017,350.100438208,350.100438208,350.100438208,350.100438208,350.545807167,351.5442026249998,350.55826495866654,,352.1832651670002,353.180612958,352.1953820416668,353.18847804200004,355.22453600000017,356.05433812499996,358.1266707919999,362.0743273329999,356.05433812499996,356.05433812499996,361.2054002919999,356.05433812499996,356.05433812499996,356.05433812499996,356.05433812499996,356.5253419579999,357.56073266700014,356.4946999166666,,358.1266707919999,359.1675946669998,358.0956508746665,,356.05433812499996,361.2054002919999,356.05433812499996,361.2054002919999,361.2469874170001,,356.05433812499996,2,1,1.396727207999902,reldom2_s009,001,2025-01-30_11h59.05.496,Aud-B-Scan_AC,2022.2.5,None,
30,Second_Order,5.0,audwhat,stimulus/audwhat_stim/string viola_high-pitch_Ftri_loud.wav,stimulus/audwhat_stim/percussion xylophone_high-pitch_Ftri_loud.wav,stimulus/audwhat_stim/string viola_low-pitch_D_loud.wav,stimulus/audwhat_stim/percussion mallet_low-pitch_D_loud.wav,stimulus/audwhat_stim/match_blank.png,stimulus/audwhat_stim/match_box.png,stimulus/audwhat_stim/match_yes.png,stimulus/audwhat_stim/match_no.png,1.0,Match,Pitch,Pitch,1,5.125,0,5.125,0,5.125,0,5.125,0,0.625,0.625,0,0,0,0,0,0,0,0,1,0.5,1,2.125,1,0.5,1,2.125,0,,,,,0,39,39,39,,,,,,,,,362.0743273329999,367.19672337500015,362.0743273329999,362.0743273329999,362.0743273329999,362.0743273329999,362.5227548329999,363.5212621249998,362.5354633336667,,364.15615445799995,365.1455947919999,364.1596261246666,365.1584926669998,367.19672337500015,367.91360995800005,369.98471533300017,374.0425782080001,367.91360995800005,367.91360995800005,373.09666266700015,367.91360995800005,367.91360995800005,367.91360995800005,367.91360995800005,368.38360866699986,369.41883129200005,368.3529579166668,,369.98471533300017,371.0250920829999,369.9539280416668,,367.91360995800005,373.09666266700015,367.91360995800005,373.09666266700015,373.09666266700015,373.7611300829999,367.91360995800005,1,1,0.8954884579998179,reldom2_s009,001,2025-01-30_11h59.05.496,Aud-B-Scan_AC,2022.2.5,None,
0,0.0,None,fixation,stimulus/audwhat_stim/blank_white.png,stimulus/audwhat_stim/blank_white.png,stimulus/audwhere_stim/blank_white.png,stimulus/audwhere_stim/blank_white.png,stimulus/audwhat_stim/blank_white.png,stimulus/audwhat_stim/blank_white.png,stimulus/audwhat_stim/blank_white.png,stimulus/audwhat_stim/blank_white.png,0.0,0.0,0.0,0.0,0,0.0,0,0.0,0,0.0,0,0.0,0,0.0,0.0,0,0,0,0,0,0,0,0,0,0.0,0,0.0,0,0.0,0,0.0,9,,,,,0,40,40,40,,,,,,,,,374.0425782080001,374.0425782080001,374.0425782080001,374.0425782080001,374.0425782080001,374.0425782080001,374.0425782080001,374.0425782080001,373.9358392913333,374.0425782080001,374.0425782080001,374.0425782080001,373.9358392913333,374.0425782080001,374.0425782080001,374.0425782080001,374.0425782080001,374.0425782080001,374.0425782080001,374.0425782080001,374.0425782080001,374.0425782080001,374.0425782080001,374.0425782080001,374.0425782080001,374.0425782080001,374.0425782080001,374.002505958,374.0425782080001,374.0425782080001,374.0425782080001,374.002505958,374.0425782080001,374.0425782080001,374.0425782080001,374.0425782080001,374.0425782080001,379.2524579579999,379.2524579579999,383.3005468749998,None,0,,reldom2_s009,001,2025-01-30_11h59.05.496,Aud-B-Scan_AC,2022.2.5,None,
31,First_Order,6.0,audwhat,stimulus/audwhat_stim/dummy.wav,stimulus/audwhat_stim/dummy.wav,stimulus/audwhat_stim/string viola_low-pitch_D_loud.wav,stimulus/audwhat_stim/percussion mallet_low-pitch_D_loud.wav,stimulus/audwhat_stim/blank_white.png,stimulus/audwhat_stim/category_box.png,stimulus/audwhat_stim/category_yes.png,stimulus/audwhat_stim/category_no.png,None,Category,None,Pitch,2,0.0,0,5.125,0,5.125,0,5.125,0,0.0,0.625,0,0,0,0,0,0,0,0,0,0.0,0,0.0,1,0.5,1,2.125,0,,,,,0,41,41,41,,,,,,,,,383.3005468749998,383.3005468749998,383.3005468749998,383.3005468749998,383.3005468749998,383.3005468749998,383.3005468749998,383.3005468749998,383.2237300416665,383.3005468749998,383.3005468749998,383.3005468749998,383.2237300416665,383.3005468749998,383.3005468749998,383.3005468749998,385.3891194580001,,383.3005468749998,383.3005468749998,388.4791222499998,383.3005468749998,383.3005468749998,383.3005468749998,383.3005468749998,383.77381587499985,384.82157045799977,383.74296854166664,,385.3891194580001,386.4349740419998,385.3580053746666,,383.3005468749998,388.4791222499998,383.3005468749998,388.4791222499998,388.5208014579998,389.1878970419998,383.3005468749998,2,1,1.141381082999942,reldom2_s009,001,2025-01-30_11h59.05.496,Aud-B-Scan_AC,2022.2.5,None,
32,First_Order,6.0,audwhat,stimulus/audwhat_stim/dummy.wav,stimulus/audwhat_stim/dummy.wav,stimulus/audwhat_stim/percussion mallet_high-pitch_Dtri_loud.wav,stimulus/audwhat_stim/string viola_high-pitch_Dtri_loud.wav,stimulus/audwhat_stim/blank_white.png,stimulus/audwhat_stim/pitch_box.png,stimulus/audwhat_stim/pitch_yes.png,stimulus/audwhat_stim/pitch_no.png,None,Pitch,None,Pitch,1,0.0,0,5.125,0,5.125,0,5.125,0,0.0,0.625,0,0,0,0,0,0,0,0,0,0.0,0,0.0,1,0.5,1,2.125,0,,,,,0,42,42,42,,,,,,,,,389.40609637499983,389.40609637499983,389.40609637499983,389.40609637499983,389.40609637499983,389.40609637499983,389.40609637499983,389.40609637499983,389.32123037533313,389.40609637499983,389.40609637499983,389.40609637499983,389.32123037533313,389.40609637499983,389.40609637499983,389.40609637499983,391.48494437499994,395.526408792,389.40609637499983,389.40609637499983,394.602064833,389.40609637499983,389.40609637499983,389.40609637499983,389.40609637499983,389.8798341249999,390.92004962500005,389.8489949586667,,391.48494437499994,392.52834404199984,391.4544415416665,,389.40609637499983,394.602064833,389.40609637499983,394.602064833,394.602064833,395.26802124999995,389.40609637499983,1,1,0.7626204580001286,reldom2_s009,001,2025-01-30_11h59.05.496,Aud-B-Scan_AC,2022.2.5,None,
33,First_Order,6.0,audwhat,stimulus/audwhat_stim/dummy.wav,stimulus/audwhat_stim/dummy.wav,stimulus/audwhat_stim/string cello_high-pitch_D_loud.wav,stimulus/audwhat_stim/string viola_low-pitch_F_loud.wav,stimulus/audwhat_stim/blank_white.png,stimulus/audwhat_stim/pitch_box.png,stimulus/audwhat_stim/pitch_yes.png,stimulus/audwhat_stim/pitch_no.png,None,Pitch,None,Category,2,0.0,0,5.125,0,5.125,0,5.125,0,0.0,0.625,0,0,0,0,0,0,0,0,0,0.0,0,0.0,1,0.5,1,2.125,0,,,,,0,43,43,43,,,,,,,,,395.526408792,395.526408792,395.526408792,395.526408792,395.526408792,395.526408792,395.526408792,395.526408792,395.44241645833347,395.526408792,395.526408792,395.526408792,395.44241645833347,395.526408792,395.526408792,395.526408792,397.6063706249997,401.64437070799977,395.526408792,395.526408792,400.6810976669999,395.526408792,395.526408792,395.526408792,395.526408792,395.99954662499977,397.03901095799984,395.9686530416668,,397.6063706249997,398.6497412079998,397.57445687466657,,395.526408792,400.6810976669999,395.526408792,400.6810976669999,400.722711375,401.38636595800017,395.526408792,2,1,0.7201039990000027,reldom2_s009,001,2025-01-30_11h59.05.496,Aud-B-Scan_AC,2022.2.5,None,
34,First_Order,6.0,audwhat,stimulus/audwhat_stim/dummy.wav,stimulus/audwhat_stim/dummy.wav,stimulus/audwhat_stim/percussion mallet_low-pitch_F_loud.wav,stimulus/audwhat_stim/string viola_low-pitch_F_loud.wav,stimulus/audwhat_stim/blank_white.png,stimulus/audwhat_stim/category_box.png,stimulus/audwhat_stim/category_yes.png,stimulus/audwhat_stim/category_no.png,None,Category,None,Pitch,2,0.0,0,5.125,0,5.125,0,5.125,0,0.0,0.625,0,0,0,0,0,0,0,0,0,0.0,0,0.0,1,0.5,1,2.125,0,,,,,0,44,44,44,,,,,,,,,401.64437070799977,401.64437070799977,401.64437070799977,401.64437070799977,401.64437070799977,401.64437070799977,401.64437070799977,401.64437070799977,401.5608016663333,401.64437070799977,401.64437070799977,401.64437070799977,401.5608016663333,401.64437070799977,401.64437070799977,401.64437070799977,403.73154999999997,,401.64437070799977,401.64437070799977,406.81357454199997,401.64437070799977,401.64437070799977,401.64437070799977,401.64437070799977,402.120356333,403.1640755829999,402.08945374966675,,403.73154999999997,404.7787490830001,403.7004227496666,,401.64437070799977,406.81357454199997,401.64437070799977,406.81357454199997,406.85534604199984,407.52313675000005,401.64437070799977,2,1,0.9839934579999863,reldom2_s009,001,2025-01-30_11h59.05.496,Aud-B-Scan_AC,2022.2.5,None,
0,0.0,None,fixation,stimulus/audwhat_stim/blank_white.png,stimulus/audwhat_stim/blank_white.png,stimulus/audwhere_stim/blank_white.png,stimulus/audwhere_stim/blank_white.png,stimulus/audwhat_stim/blank_white.png,stimulus/audwhat_stim/blank_white.png,stimulus/audwhat_stim/blank_white.png,stimulus/audwhat_stim/blank_white.png,0.0,0.0,0.0,0.0,0,0.0,0,0.0,0,0.0,0,0.0,0,0.0,0.0,0,0,0,0,0,0,0,0,0,0.0,0,0.0,0,0.0,0,0.0,9,,,,,0,45,45,45,,,,,,,,,407.7621153330001,407.7621153330001,407.7621153330001,407.7621153330001,407.7621153330001,407.7621153330001,407.7621153330001,407.7621153330001,407.6564700833334,407.7621153330001,407.7621153330001,407.7621153330001,407.6564700833334,407.7621153330001,407.7621153330001,407.7621153330001,407.7621153330001,407.7621153330001,407.7621153330001,407.7621153330001,407.7621153330001,407.7621153330001,407.7621153330001,407.7621153330001,407.7621153330001,407.7621153330001,407.7621153330001,407.72313675000004,407.7621153330001,407.7621153330001,407.7621153330001,407.72313675000004,407.7621153330001,407.7621153330001,407.7621153330001,407.7621153330001,407.7621153330001,412.99576991699996,412.99576991699996,416.9038371249999,None,0,,reldom2_s009,001,2025-01-30_11h59.05.496,Aud-B-Scan_AC,2022.2.5,None,
35,Second_Order,6.0,audwhat,stimulus/audwhat_stim/string cello_low-pitch_D_loud.wav,stimulus/audwhat_stim/percussion mallet_low-pitch_D_loud.wav,stimulus/audwhat_stim/percussion mallet_low-pitch_D_loud.wav,stimulus/audwhat_stim/percussion xylophone_high-pitch_Ftri_loud.wav,stimulus/audwhat_stim/match_blank.png,stimulus/audwhat_stim/match_box.png,stimulus/audwhat_stim/match_yes.png,stimulus/audwhat_stim/match_no.png,2.0,Match,Pitch,Category,2,5.125,0,5.125,0,5.125,0,5.125,0,0.75,0.75,0,0,0,0,0,0,0,0,1,0.5,1,2.125,1,0.5,1,2.125,0,,,,,0,46,46,46,,,,,,,,,416.9038371249999,422.02719179199994,416.9038371249999,416.9038371249999,416.9038371249999,416.9038371249999,417.3496037499999,418.34763483300003,417.3622716246666,,418.98729208299983,419.98501904199975,418.9994794996667,419.9927753329998,422.02719179199994,422.858523333,424.9354746250001,428.87951220800005,422.858523333,422.858523333,428.00941320799984,422.858523333,422.858523333,422.858523333,422.858523333,423.3306998329999,424.3695600000001,423.30024729166666,,424.9354746250001,425.98126491699986,424.90447745866663,425.98126491699986,422.858523333,428.00941320799984,422.858523333,428.00941320799984,428.0512749999998,,422.858523333,2,1,2.0790279579996422,reldom2_s009,001,2025-01-30_11h59.05.496,Aud-B-Scan_AC,2022.2.5,None,
36,Second_Order,6.0,audwhat,stimulus/audwhat_stim/string cello_low-pitch_Dtri_loud.wav,stimulus/audwhat_stim/percussion mallet_low-pitch_Dtri_loud.wav,stimulus/audwhat_stim/string viola_high-pitch_F_loud.wav,stimulus/audwhat_stim/percussion xylophone_high-pitch_F_loud.wav,stimulus/audwhat_stim/match_blank.png,stimulus/audwhat_stim/match_box.png,stimulus/audwhat_stim/match_yes.png,stimulus/audwhat_stim/match_no.png,1.0,Match,Pitch,Pitch,1,5.125,0,5.125,0,5.125,0,5.125,0,0.625,0.625,0,0,0,0,0,0,0,0,1,0.5,1,2.125,1,0.5,1,2.125,0,,,,,0,47,47,47,,,,,,,,,428.87951220800005,434.000776333,428.87951220800005,428.87951220800005,428.87951220800005,428.87951220800005,429.3270398750001,430.32528579200016,429.3395443336665,,430.9601149169998,431.94873933300005,430.96390912466654,431.9624059580001,434.000776333,434.718070208,436.791168792,440.8561092499999,434.718070208,434.718070208,439.9107751669999,434.718070208,434.718070208,434.718070208,434.718070208,435.188739917,436.2272586670001,435.1583572496668,,436.791168792,437.8398367079999,436.7604232086667,437.8398367079999,434.718070208,439.9107751669999,434.718070208,439.9107751669999,439.9107751669999,440.5760275829998,434.718070208,1,1,0.8046482909999213,reldom2_s009,001,2025-01-30_11h59.05.496,Aud-B-Scan_AC,2022.2.5,None,
0,0.0,None,fixation,stimulus/audwhat_stim/blank_white.png,stimulus/audwhat_stim/blank_white.png,stimulus/audwhere_stim/blank_white.png,stimulus/audwhere_stim/blank_white.png,stimulus/audwhat_stim/blank_white.png,stimulus/audwhat_stim/blank_white.png,stimulus/audwhat_stim/blank_white.png,stimulus/audwhat_stim/blank_white.png,0.0,0.0,0.0,0.0,0,0.0,0,0.0,0,0.0,0,0.0,0,0.0,0.0,0,0,0,0,0,0,0,0,0,0.0,0,0.0,0,0.0,0,0.0,10,,,,,0,48,48,48,,,,,,,,,440.8561092499999,440.8561092499999,440.8561092499999,440.8561092499999,440.8561092499999,440.8561092499999,440.8561092499999,440.8561092499999,440.75086612533335,440.8561092499999,440.8561092499999,440.8561092499999,440.75086612533335,440.8561092499999,440.8561092499999,440.8561092499999,440.8561092499999,440.8561092499999,440.8561092499999,440.8561092499999,440.8561092499999,440.8561092499999,440.8561092499999,440.8561092499999,440.8561092499999,440.8561092499999,440.8561092499999,440.817532792,440.8561092499999,440.8561092499999,440.8561092499999,440.817532792,440.8561092499999,440.8561092499999,440.8561092499999,440.8561092499999,440.8561092499999,446.0627621670001,446.0627621670001,451.135778417,None,0,,reldom2_s009,001,2025-01-30_11h59.05.496,Aud-B-Scan_AC,2022.2.5,None,
37,First_Order,7.0,audwhere,stimulus/audwhere_stim/dummy.wav,stimulus/audwhere_stim/dummy.wav,stimulus/audwhere_stim/right_toward_300h.wav,stimulus/audwhere_stim/left_toward_290h.wav,stimulus/audwhere_stim/blank_white.png,stimulus/audwhere_stim/direction_box.png,stimulus/audwhere_stim/direction_yes.png,stimulus/audwhere_stim/direction_no.png,None,Direction,None,Direction,1,0.0,0,5.125,0,5.125,0,5.125,0,0.0,0.625,0,0,0,0,0,0,0,0,0,0.0,0,0.0,1,0.5,1,2.125,0,,,,,0,49,49,49,,,,,,,,,451.135778417,451.135778417,451.135778417,451.135778417,451.135778417,451.135778417,451.135778417,451.135778417,451.05768741666645,451.135778417,451.135778417,451.135778417,451.05768741666645,451.135778417,451.135778417,451.135778417,453.22475133299986,,451.135778417,451.135778417,456.31058374999975,451.135778417,451.135778417,451.135778417,451.135778417,451.61001154199994,452.6550614580001,451.5792974996664,,453.22475133299986,454.2758978329998,453.1941583746668,454.2285454580001,451.135778417,456.31058374999975,451.135778417,456.31058374999975,456.35245091700017,457.02332824999985,451.135778417,1,1,1.510909416999766,reldom2_s009,001,2025-01-30_11h59.05.496,Aud-B-Scan_AC,2022.2.5,None,
38,First_Order,7.0,audwhere,stimulus/audwhere_stim/dummy.wav,stimulus/audwhere_stim/dummy.wav,stimulus/audwhere_stim/right_toward_290h.wav,stimulus/audwhere_stim/right_away_270h.wav,stimulus/audwhere_stim/blank_white.png,stimulus/audwhere_stim/side_box.png,stimulus/audwhere_stim/side_yes.png,stimulus/audwhere_stim/side_no.png,None,Side,None,Side,1,0.0,0,5.125,0,5.125,0,5.125,0,0.0,0.625,0,0,0,0,0,0,0,0,0,0.0,0,0.0,1,0.5,1,2.125,0,,,,,0,50,50,50,,,,,,,,,457.24148154199975,457.24148154199975,457.24148154199975,457.24148154199975,457.24148154199975,457.24148154199975,457.24148154199975,457.24148154199975,457.1566615833332,457.24148154199975,457.24148154199975,457.24148154199975,457.1566615833332,457.24148154199975,457.24148154199975,457.24148154199975,459.3172145829999,,457.24148154199975,457.24148154199975,462.431206708,457.24148154199975,457.24148154199975,457.24148154199975,457.24148154199975,457.71405049999976,458.752346625,457.6835585416668,,459.3172145829999,460.35518783299995,459.2866373746667,,457.24148154199975,462.431206708,457.24148154199975,462.431206708,462.431206708,463.09507004199986,457.24148154199975,1,1,1.3311096659999748,reldom2_s009,001,2025-01-30_11h59.05.496,Aud-B-Scan_AC,2022.2.5,None,
39,First_Order,7.0,audwhere,stimulus/audwhere_stim/dummy.wav,stimulus/audwhere_stim/dummy.wav,stimulus/audwhere_stim/left_away_290h.wav,stimulus/audwhere_stim/left_toward_290h.wav,stimulus/audwhere_stim/blank_white.png,stimulus/audwhere_stim/direction_box.png,stimulus/audwhere_stim/direction_yes.png,stimulus/audwhere_stim/direction_no.png,None,Direction,None,Side,2,0.0,0,5.125,0,5.125,0,5.125,0,0.0,0.625,0,0,0,0,0,0,0,0,0,0.0,0,0.0,1,0.5,1,2.125,0,,,,,0,51,51,51,,,,,,,,,463.35424520800007,463.35424520800007,463.35424520800007,463.35424520800007,463.35424520800007,463.35424520800007,463.35424520800007,463.35424520800007,463.2698361253334,463.35424520800007,463.35424520800007,463.35424520800007,463.2698361253334,463.35424520800007,463.35424520800007,463.35424520800007,465.4492023329999,,463.35424520800007,463.35424520800007,468.53775837500007,463.35424520800007,463.35424520800007,463.35424520800007,463.35424520800007,463.8294276249999,464.88069270799997,463.79882341666666,464.83354837499974,465.4492023329999,466.49993700000005,465.41824274966643,466.45264425000005,463.35424520800007,468.53775837500007,463.35424520800007,468.53775837500007,468.57929212499994,469.2459655829998,463.35424520800007,2,1,1.4959693329997208,reldom2_s009,001,2025-01-30_11h59.05.496,Aud-B-Scan_AC,2022.2.5,None,
40,First_Order,7.0,audwhere,stimulus/audwhere_stim/dummy.wav,stimulus/audwhere_stim/dummy.wav,stimulus/audwhere_stim/right_away_280h.wav,stimulus/audwhere_stim/right_toward_290h.wav,stimulus/audwhere_stim/blank_white.png,stimulus/audwhere_stim/direction_box.png,stimulus/audwhere_stim/direction_yes.png,stimulus/audwhere_stim/direction_no.png,None,Direction,None,Side,2,0.0,0,5.125,0,5.125,0,5.125,0,0.0,0.625,0,0,0,0,0,0,0,0,0,0.0,0,0.0,1,0.5,1,2.125,0,,,,,0,52,52,52,,,,,,,,,469.46246295799983,469.46246295799983,469.46246295799983,469.46246295799983,469.46246295799983,469.46246295799983,469.46246295799983,469.46246295799983,469.37929891633314,469.46246295799983,469.46246295799983,469.46246295799983,469.37929891633314,469.46246295799983,469.46246295799983,469.46246295799983,471.5503832919999,,469.46246295799983,469.46246295799983,474.63998979200005,469.46246295799983,469.46246295799983,469.46246295799983,469.46246295799983,469.93905808299996,470.98262487500006,469.9077024996666,,471.5503832919999,472.60228474999985,471.5192513336667,472.5550961250001,469.46246295799983,474.63998979200005,469.46246295799983,474.63998979200005,474.68199349999986,475.34916133299976,469.46246295799983,2,1,1.4086609579999276,reldom2_s009,001,2025-01-30_11h59.05.496,Aud-B-Scan_AC,2022.2.5,None,
0,0.0,None,fixation,stimulus/audwhat_stim/blank_white.png,stimulus/audwhat_stim/blank_white.png,stimulus/audwhere_stim/blank_white.png,stimulus/audwhere_stim/blank_white.png,stimulus/audwhat_stim/blank_white.png,stimulus/audwhat_stim/blank_white.png,stimulus/audwhat_stim/blank_white.png,stimulus/audwhat_stim/blank_white.png,0.0,0.0,0.0,0.0,0,0.0,0,0.0,0,0.0,0,0.0,0,0.0,0.0,0,0,0,0,0,0,0,0,0,0.0,0,0.0,0,0.0,0,0.0,8,,,,,0,53,53,53,,,,,,,,,475.58743374999995,475.58743374999995,475.58743374999995,475.58743374999995,475.58743374999995,475.58743374999995,475.58743374999995,475.58743374999995,475.4824946663331,475.58743374999995,475.58743374999995,475.58743374999995,475.4824946663331,475.58743374999995,475.58743374999995,475.58743374999995,475.58743374999995,475.58743374999995,475.58743374999995,475.58743374999995,475.58743374999995,475.58743374999995,475.58743374999995,475.58743374999995,475.58743374999995,475.58743374999995,475.58743374999995,475.5324946663331,475.58743374999995,475.58743374999995,475.58743374999995,475.5324946663331,475.58743374999995,475.58743374999995,475.58743374999995,475.58743374999995,475.58743374999995,480.818959875,480.818959875,483.74411383300003,None,0,,reldom2_s009,001,2025-01-30_11h59.05.496,Aud-B-Scan_AC,2022.2.5,None,
41,Second_Order,7.0,audwhere,stimulus/audwhere_stim/left_toward_300h.wav,stimulus/audwhere_stim/right_toward_280h.wav,stimulus/audwhere_stim/right_toward_270h.wav,stimulus/audwhere_stim/right_away_290h.wav,stimulus/audwhat_stim/match_blank.png,stimulus/audwhat_stim/match_box.png,stimulus/audwhat_stim/match_yes.png,stimulus/audwhat_stim/match_no.png,2.0,Match,Direction,Side,2,5.125,0,5.125,0,5.125,0,5.125,0,0.75,0.75,0,0,0,0,0,0,0,0,1,0.5,1,2.125,1,0.5,1,2.125,0,,,,,0,54,54,54,,,,,,,,,483.74411383300003,488.86493674999974,483.74411383300003,483.74411383300003,483.74411383300003,483.74411383300003,484.20309529199994,485.18913266699974,484.2161787916664,485.2101265000001,485.82536070800006,486.8222236669999,485.83697749966655,486.830266208,488.86493674999974,489.69692720800003,491.774337458,495.71747583299975,489.69692720800003,489.69692720800003,494.8909817079998,489.69692720800003,489.69692720800003,489.69692720800003,489.69692720800003,490.1713559169998,491.2088181670001,490.1404791246666,,491.774337458,492.8153188749998,491.7439057916665,,489.69692720800003,494.8909817079998,489.69692720800003,494.8909817079998,494.8909817079998,,489.69692720800003,2,1,1.8621772909996253,reldom2_s009,001,2025-01-30_11h59.05.496,Aud-B-Scan_AC,2022.2.5,None,
42,Second_Order,7.0,audwhere,stimulus/audwhere_stim/right_toward_290h.wav,stimulus/audwhere_stim/left_toward_270h.wav,stimulus/audwhere_stim/left_toward_290h.wav,stimulus/audwhere_stim/left_away_280h.wav,stimulus/audwhat_stim/match_blank.png,stimulus/audwhat_stim/match_box.png,stimulus/audwhat_stim/match_yes.png,stimulus/audwhat_stim/match_no.png,2.0,Match,Direction,Side,2,5.125,0,5.125,0,5.125,0,5.125,0,0.625,0.625,0,0,0,0,0,0,0,0,1,0.5,1,2.125,1,0.5,1,2.125,0,,,,,0,55,55,55,,,,,,,,,495.71747583299975,500.83814708299997,495.71747583299975,495.71747583299975,495.71747583299975,495.71747583299975,496.1774896249999,497.16607183299993,496.18071645866644,497.17953616700015,497.80265929200004,498.80004712499976,497.8147162496664,498.80776400000013,500.83814708299997,501.55378220800003,503.62479533299984,507.68127479199984,501.55378220800003,501.55378220800003,506.73746916699974,501.55378220800003,501.55378220800003,501.55378220800003,501.55378220800003,502.0261516669998,503.06196454200017,501.9952291246666,,503.62479533299984,504.6664747499999,503.5945760416664,,501.55378220800003,506.73746916699974,501.55378220800003,506.73746916699974,506.73746916699974,507.40164983299974,501.55378220800003,2,1,1.47933008300015,reldom2_s009,001,2025-01-30_11h59.05.496,Aud-B-Scan_AC,2022.2.5,None,
0,0.0,None,fixation,stimulus/audwhat_stim/blank_white.png,stimulus/audwhat_stim/blank_white.png,stimulus/audwhere_stim/blank_white.png,stimulus/audwhere_stim/blank_white.png,stimulus/audwhat_stim/blank_white.png,stimulus/audwhat_stim/blank_white.png,stimulus/audwhat_stim/blank_white.png,stimulus/audwhat_stim/blank_white.png,0.0,0.0,0.0,0.0,0,0.0,0,0.0,0,0.0,0,0.0,0,0.0,0.0,0,0,0,0,0,0,0,0,0,0.0,0,0.0,0,0.0,0,0.0,10,,,,,0,56,56,56,,,,,,,,,507.68127479199984,507.68127479199984,507.68127479199984,507.68127479199984,507.68127479199984,507.68127479199984,507.68127479199984,507.68127479199984,507.57666862533335,507.68127479199984,507.68127479199984,507.68127479199984,507.57666862533335,507.68127479199984,507.68127479199984,507.68127479199984,507.68127479199984,507.68127479199984,507.68127479199984,507.68127479199984,507.68127479199984,507.68127479199984,507.68127479199984,507.68127479199984,507.68127479199984,507.68127479199984,507.68127479199984,507.62666862533337,507.68127479199984,507.68127479199984,507.68127479199984,507.62666862533337,507.68127479199984,507.68127479199984,507.68127479199984,507.68127479199984,507.68127479199984,512.8935164169998,512.8935164169998,517.9155619170001,None,0,,reldom2_s009,001,2025-01-30_11h59.05.496,Aud-B-Scan_AC,2022.2.5,None,
43,First_Order,8.0,audwhere,stimulus/audwhere_stim/dummy.wav,stimulus/audwhere_stim/dummy.wav,stimulus/audwhere_stim/right_toward_270h.wav,stimulus/audwhere_stim/left_toward_300h.wav,stimulus/audwhere_stim/blank_white.png,stimulus/audwhere_stim/side_box.png,stimulus/audwhere_stim/side_yes.png,stimulus/audwhere_stim/side_no.png,None,Side,None,Direction,2,0.0,0,5.125,0,5.125,0,5.125,0,0.0,0.625,0,0,0,0,0,0,0,0,0,0.0,0,0.0,1,0.5,1,2.125,0,,,,,0,57,57,57,,,,,,,,,517.9155619170001,517.9155619170001,517.9155619170001,517.9155619170001,517.9155619170001,517.9155619170001,517.9155619170001,517.9155619170001,517.8378331246664,517.9155619170001,517.9155619170001,517.9155619170001,517.8378331246664,517.9155619170001,517.9155619170001,517.9155619170001,519.9887011249998,,517.9155619170001,517.9155619170001,523.1000744170001,517.9155619170001,517.9155619170001,517.9155619170001,517.9155619170001,518.3876654999999,519.422982,518.3572788746667,,519.9887011249998,521.0279422079998,519.9578565416666,,517.9155619170001,523.1000744170001,517.9155619170001,523.1000744170001,523.1418979169998,523.8074043329998,517.9155619170001,2,1,1.5961321659997338,reldom2_s009,001,2025-01-30_11h59.05.496,Aud-B-Scan_AC,2022.2.5,None,
44,First_Order,8.0,audwhere,stimulus/audwhere_stim/dummy.wav,stimulus/audwhere_stim/dummy.wav,stimulus/audwhere_stim/right_toward_270h.wav,stimulus/audwhere_stim/left_toward_280h.wav,stimulus/audwhere_stim/blank_white.png,stimulus/audwhere_stim/side_box.png,stimulus/audwhere_stim/side_yes.png,stimulus/audwhere_stim/side_no.png,None,Side,None,Direction,2,0.0,0,5.125,0,5.125,0,5.125,0,0.0,0.625,0,0,0,0,0,0,0,0,0,0.0,0,0.0,1,0.5,1,2.125,0,,,,,0,58,58,58,,,,,,,,,524.0249538329999,524.0249538329999,524.0249538329999,524.0249538329999,524.0249538329999,524.0249538329999,524.0249538329999,524.0249538329999,523.9407376663331,524.0249538329999,524.0249538329999,524.0249538329999,523.9407376663331,524.0249538329999,524.0249538329999,524.0249538329999,526.0998489580002,,524.0249538329999,524.0249538329999,529.2097597080001,524.0249538329999,524.0249538329999,524.0249538329999,524.0249538329999,524.4969478749999,525.5334048330001,524.4665787496667,,526.0998489580002,527.13731775,526.0691749996665,,524.0249538329999,529.2097597080001,524.0249538329999,529.2097597080001,529.2516532079999,529.916778583,524.0249538329999,2,1,1.8892739990001246,reldom2_s009,001,2025-01-30_11h59.05.496,Aud-B-Scan_AC,2022.2.5,None,
45,First_Order,8.0,audwhere,stimulus/audwhere_stim/dummy.wav,stimulus/audwhere_stim/dummy.wav,stimulus/audwhere_stim/right_toward_270h.wav,stimulus/audwhere_stim/left_toward_290h.wav,stimulus/audwhere_stim/blank_white.png,stimulus/audwhere_stim/direction_box.png,stimulus/audwhere_stim/direction_yes.png,stimulus/audwhere_stim/direction_no.png,None,Direction,None,Direction,1,0.0,0,5.125,0,5.125,0,5.125,0,0.0,0.625,0,0,0,0,0,0,0,0,0,0.0,0,0.0,1,0.5,1,2.125,0,,,,,0,59,59,59,,,,,,,,,530.1327625419999,530.1327625419999,530.1327625419999,530.1327625419999,530.1327625419999,530.1327625419999,530.1327625419999,530.1327625419999,530.0501119163333,530.1327625419999,530.1327625419999,530.1327625419999,530.0501119163333,530.1327625419999,530.1327625419999,530.1327625419999,532.2243537079999,536.2614561669998,530.1327625419999,530.1327625419999,535.294402083,530.1327625419999,530.1327625419999,530.1327625419999,530.1327625419999,530.6091282920002,531.653828083,530.5780102496667,,532.2243537079999,533.2664574579999,532.1936438336668,,530.1327625419999,535.294402083,530.1327625419999,535.294402083,535.3358244579999,536.0032167499999,530.1327625419999,1,1,1.96226466600001,reldom2_s009,001,2025-01-30_11h59.05.496,Aud-B-Scan_AC,2022.2.5,None,
46,First_Order,8.0,audwhere,stimulus/audwhere_stim/dummy.wav,stimulus/audwhere_stim/dummy.wav,stimulus/audwhere_stim/left_away_300h.wav,stimulus/audwhere_stim/left_toward_300h.wav,stimulus/audwhere_stim/blank_white.png,stimulus/audwhere_stim/side_box.png,stimulus/audwhere_stim/side_yes.png,stimulus/audwhere_stim/side_no.png,None,Side,None,Side,1,0.0,0,5.125,0,5.125,0,5.125,0,0.0,0.625,0,0,0,0,0,0,0,0,0,0.0,0,0.0,1,0.5,1,2.125,0,,,,,0,60,60,60,,,,,,,,,536.2614561669998,536.2614561669998,536.2614561669998,536.2614561669998,536.2614561669998,536.2614561669998,536.2614561669998,536.2614561669998,536.1784036663331,536.2614561669998,536.2614561669998,536.2614561669998,536.1784036663331,536.2614561669998,536.2614561669998,536.2614561669998,538.3370879579998,,536.2614561669998,536.2614561669998,541.4494114169997,536.2614561669998,536.2614561669998,536.2614561669998,536.2614561669998,536.7334510420001,537.7701677079999,536.7030332496668,,538.3370879579998,539.374942292,538.3065356246668,,536.2614561669998,541.4494114169997,536.2614561669998,541.4494114169997,541.4910347079999,542.158242,536.2614561669998,1,1,1.4267288749997533,reldom2_s009,001,2025-01-30_11h59.05.496,Aud-B-Scan_AC,2022.2.5,None,
0,0.0,None,fixation,stimulus/audwhat_stim/blank_white.png,stimulus/audwhat_stim/blank_white.png,stimulus/audwhere_stim/blank_white.png,stimulus/audwhere_stim/blank_white.png,stimulus/audwhat_stim/blank_white.png,stimulus/audwhat_stim/blank_white.png,stimulus/audwhat_stim/blank_white.png,stimulus/audwhat_stim/blank_white.png,0.0,0.0,0.0,0.0,0,0.0,0,0.0,0,0.0,0,0.0,0,0.0,0.0,0,0,0,0,0,0,0,0,0,0.0,0,0.0,0,0.0,0,0.0,9,,,,,0,61,61,61,,,,,,,,,542.3963869169997,542.3963869169997,542.3963869169997,542.3963869169997,542.3963869169997,542.3963869169997,542.3963869169997,542.3963869169997,542.2915753333333,542.3963869169997,542.3963869169997,542.3963869169997,542.2915753333333,542.3963869169997,542.3963869169997,542.3963869169997,542.3963869169997,542.3963869169997,542.3963869169997,542.3963869169997,542.3963869169997,542.3963869169997,542.3963869169997,542.3963869169997,542.3963869169997,542.3963869169997,542.3963869169997,542.3415753333333,542.3963869169997,542.3963869169997,542.3963869169997,542.3415753333333,542.3963869169997,542.3963869169997,542.3963869169997,542.3963869169997,542.3963869169997,547.61056775,547.61056775,551.5633022080001,None,0,,reldom2_s009,001,2025-01-30_11h59.05.496,Aud-B-Scan_AC,2022.2.5,None,
47,Second_Order,8.0,audwhere,stimulus/audwhere_stim/right_away_300h.wav,stimulus/audwhere_stim/right_toward_270h.wav,stimulus/audwhere_stim/left_away_280h.wav,stimulus/audwhere_stim/left_toward_270h.wav,stimulus/audwhat_stim/match_blank.png,stimulus/audwhat_stim/match_box.png,stimulus/audwhat_stim/match_yes.png,stimulus/audwhat_stim/match_no.png,1.0,Match,Side,Side,1,5.125,0,5.125,0,5.125,0,5.125,0,0.75,0.75,0,0,0,0,0,0,0,0,1,0.5,1,2.125,1,0.5,1,2.125,0,,,,,0,62,62,62,,,,,,,,,551.5633022080001,556.687784625,551.5633022080001,551.5633022080001,551.5633022080001,551.5633022080001,552.0105280829998,553.0082122919998,552.0230220416668,553.015584792,553.6483027919999,554.6453639169999,553.6599968746666,554.6532715419999,556.687784625,557.517805125,559.5961765419997,563.5359478330001,557.517805125,557.517805125,562.7108404579999,557.517805125,557.517805125,557.517805125,557.517805125,557.9921826669997,559.0303785000001,557.9613665836666,,559.5961765419997,560.6370630830002,559.5661457086665,,557.517805125,562.7108404579999,557.517805125,562.7108404579999,562.7108404579999,,557.517805125,1,1,1.18940716599991,reldom2_s009,001,2025-01-30_11h59.05.496,Aud-B-Scan_AC,2022.2.5,None,
48,Second_Order,8.0,audwhere,stimulus/audwhere_stim/right_toward_270h.wav,stimulus/audwhere_stim/right_away_270h.wav,stimulus/audwhere_stim/left_away_280h.wav,stimulus/audwhere_stim/left_toward_290h.wav,stimulus/audwhat_stim/match_blank.png,stimulus/audwhat_stim/match_box.png,stimulus/audwhat_stim/match_yes.png,stimulus/audwhat_stim/match_no.png,1.0,Match,Side,Side,1,5.125,0,5.125,0,5.125,0,5.125,0,0.625,0.625,0,0,0,0,0,0,0,0,1,0.5,1,2.125,1,0.5,1,2.125,0,,,,,0,63,63,63,,,,,,,,,563.5359478330001,568.6491231669997,563.5359478330001,563.5359478330001,563.5359478330001,563.5359478330001,563.9876117919998,564.9862592919999,564.0005190836666,564.9942215830001,565.620737833,566.6147610829998,565.6240610836664,566.6147610829998,568.6491231669997,569.358813667,571.430383458,575.490972,569.358813667,569.358813667,574.545330375,569.358813667,569.358813667,569.358813667,569.358813667,569.829688625,570.8656192079998,569.7988509166664,,571.430383458,572.4711528749999,571.3996609586668,,569.358813667,574.545330375,569.358813667,574.545330375,574.545330375,575.210237583,569.358813667,1,1,1.1544179170000461,reldom2_s009,001,2025-01-30_11h59.05.496,Aud-B-Scan_AC,2022.2.5,None,
0,0.0,None,fixation,stimulus/audwhat_stim/blank_white.png,stimulus/audwhat_stim/blank_white.png,stimulus/audwhere_stim/blank_white.png,stimulus/audwhere_stim/blank_white.png,stimulus/audwhat_stim/blank_white.png,stimulus/audwhat_stim/blank_white.png,stimulus/audwhat_stim/blank_white.png,stimulus/audwhat_stim/blank_white.png,0.0,0.0,0.0,0.0,0,0.0,0,0.0,0,0.0,0,0.0,0,0.0,0.0,0,0,0,0,0,0,0,0,0,0.0,0,0.0,0,0.0,0,0.0,16,,,,,0,64,64,64,,,,,,,,,575.490972,575.490972,575.490972,575.490972,575.490972,575.490972,575.490972,575.490972,575.3852180413334,575.490972,575.490972,575.490972,575.3852180413334,575.490972,575.490972,575.490972,575.490972,575.490972,575.490972,575.490972,575.490972,575.490972,575.490972,575.490972,575.490972,575.490972,575.490972,575.451884708,575.490972,575.490972,575.490972,575.451884708,575.490972,575.490972,575.490972,575.490972,575.490972,580.706559583,580.706559583,591.6532484579998,None,0,,reldom2_s009,001,2025-01-30_11h59.05.496,Aud-B-Scan_AC,2022.2.5,None,
