Trial,Order,Block,Type,Stimuli_File1,Stimuli_File2,Stimuli_File3,Stimuli_File4,Cue_File1,Cue_File2,Response_File_Yes,Response_File_No,Match,Cue_Dimension,Pair1_Dimension,Pair2_Dimension,Key,Cue1_Duration,Cue1_Onset,Cue2_Duration,Cue2_Onset,ResponseYes_Duration,ResponseYes_Onset,ResponseNo_Duration,ResponseNo_Onset,ITI_Within,ITI_Between,Image1_Duration,Image1_Onset,Image2_Duration,Image2_Onset,Image3_Duration,Image3_Onset,Image4_Duration,Image4_Onset,Sound1_Duration,Sound1_Onset,Sound2_Duration,Sound2_Onset,Sound3_Duration,Sound3_Onset,Sound4_Duration,Sound4_Onset,Fixation_Duration,trials_2.thisRepN,trials_2.thisTrialN,trials_2.thisN,trials_2.thisIndex,trials.thisRepN,trials.thisTrialN,trials.thisN,trials.thisIndex,text_start.started,key_resp_start.started,key_resp_start.keys,key_resp_start.rt,text2.started,key_resp_2.started,key_resp_2.keys,key_resp_2.rt,cue_file1.started,cue_file1.stopped,image_1.started,image_1.stopped,image_2.started,image_2.stopped,sound_icon1.started,sound_icon1.stopped,sound_1.started,sound_1.stopped,sound_icon2.started,sound_icon2.stopped,sound_2.started,sound_2.stopped,image_blank_1.started,image_blank_1.stopped,key_press.started,key_press.stopped,fixation_text.started,cue_file2.started,cue_file2.stopped,image_3.started,image_3.stopped,image_4.started,image_4.stopped,sound_icon3.started,sound_icon3.stopped,sound_3.started,sound_3.stopped,sound_icon4.started,sound_icon4.stopped,sound_4.started,sound_4.stopped,response_yes.started,response_yes.stopped,response_no.started,response_no.stopped,iti_blank.started,iti_blank.stopped,fixation_text.stopped,key_press.keys,key_press.corr,key_press.rt,participant,session,date,expName,psychopyVersion,frameRate,
,,,,,,,,,,,,,,,,,,,,,,,,,,,,,,,,,,,,,,,,,,,,,,,,,,,,8.95656583300024,8.95656583300024,2,1.1674383750000743,,,,,,,,,,,,,,,,,,,,,,,,,,,,,,,,,,,,,,,,,,,,,,,,reldom2_s009,001,2025-01-30_11h47.56.681,Where-B-Scan_AC,2022.2.5,None,
,,,,,,,,,,,,,,,,,,,,,,,,,,,,,,,,,,,,,,,,,,,,0,0,0,0,,,,,,,,,10.154549541000051,10.154549541000051,5,18.230857874999856,,,,,,,,,,,,,,,,,,,,,,,,,,,,,,,,,,,,,,,,,,,,reldom2_s009,001,2025-01-30_11h47.56.681,Where-B-Scan_AC,2022.2.5,None,
,,,,,,,,,,,,,,,,,,,,,,,,,,,,,,,,,,,,,,,,,,,,1,0,1,0,,,,,,,,,28.399795750000067,28.399795750000067,5,1.9837600839996412,,,,,,,,,,,,,,,,,,,,,,,,,,,,,,,,,,,,,,,,,,,,reldom2_s009,001,2025-01-30_11h47.56.681,Where-B-Scan_AC,2022.2.5,None,
,,,,,,,,,,,,,,,,,,,,,,,,,,,,,,,,,,,,,,,,,,,,2,0,2,0,,,,,,,,,30.394588833000398,30.394588833000398,5,1.988164374999542,,,,,,,,,,,,,,,,,,,,,,,,,,,,,,,,,,,,,,,,,,,,reldom2_s009,001,2025-01-30_11h47.56.681,Where-B-Scan_AC,2022.2.5,None,
,,,,,,,,,,,,,,,,,,,,,,,,,,,,,,,,,,,,,,,,,,,,3,0,3,0,,,,,,,,,32.39743762500029,32.39743762500029,5,1.986268249999739,,,,,,,,,,,,,,,,,,,,,,,,,,,,,,,,,,,,,,,,,,,,reldom2_s009,001,2025-01-30_11h47.56.681,Where-B-Scan_AC,2022.2.5,None,
0,0.0,None,fixation,stimulus/audwhere_stim/blank_white.png,stimulus/audwhere_stim/blank_white.png,stimulus/viswhere_stim/blank_white.png,stimulus/viswhere_stim/blank_white.png,stimulus/audwhere_stim/blank_white.png,stimulus/audwhere_stim/blank_white.png,stimulus/audwhere_stim/blank_white.png,stimulus/audwhere_stim/blank_white.png,0.0,0.0,0.0,0.0,0,0.0,0,0.0,0,0.0,0,0.0,0,0.0,0.0,0,0.0,0,0.0,0,0.0,0,0.0,0,0.0,0,0.0,0,0.0,0,0.0,16,,,,,0,0,0,0,,,,,,,,,34.57524829100021,34.57524829100021,34.57524829100021,34.57524829100021,34.57524829100021,34.57524829100021,34.57524829100021,34.57524829100021,34.48419095800009,34.57524829100021,34.57524829100021,34.57524829100021,34.48419095800009,34.57524829100021,34.57524829100021,34.57524829100021,34.57524829100021,34.57524829100021,34.57524829100021,34.57524829100021,34.57524829100021,34.57524829100021,34.57524829100021,34.57524829100021,34.57524829100021,34.57524829100021,34.57524829100021,34.53419095800009,34.57524829100021,34.57524829100021,34.57524829100021,34.53419095800009,34.57524829100021,34.57524829100021,34.57524829100021,34.57524829100021,34.57524829100021,39.764411250000194,39.764411250000194,50.80604395800037,None,0,,reldom2_s009,001,2025-01-30_11h47.56.681,Where-B-Scan_AC,2022.2.5,None,
1,First_Order,1.0,audwhere,stimulus/audwhere_stim/dummy.wav,stimulus/audwhere_stim/dummy.wav,stimulus/audwhere_stim/right_away_290h.wav,stimulus/audwhere_stim/right_toward_300h.wav,stimulus/audwhere_stim/blank_white.png,stimulus/audwhere_stim/direction_box.png,stimulus/audwhere_stim/direction_yes.png,stimulus/audwhere_stim/direction_no.png,None,Direction,None,Side,2,0.0,0,5.125,0,5.125,0,5.125,0,0.0,0.625,0,0.0,0,0.0,0,0.0,0,0.0,0,0.0,0,0.0,1,0.5,1,2.125,0,,,,,0,1,1,1,,,,,,,,,50.80604395800037,50.80604395800037,50.80604395800037,50.80604395800037,50.80604395800037,50.80604395800037,50.80604395800037,50.80604395800037,50.72826687500028,50.80604395800037,50.80604395800037,50.80604395800037,50.72826687500028,50.80604395800037,50.80604395800037,50.80604395800037,52.889092249999976,,50.80604395800037,50.80604395800037,55.96902545800003,50.80604395800037,50.80604395800037,50.80604395800037,50.80604395800037,51.26075933300035,52.30111412500037,51.232164166666976,,52.889092249999976,53.93281324999998,52.86035241666674,,50.80604395800037,55.96902545800003,50.80604395800037,55.96902545800003,56.00883016600028,56.68640591600024,50.80604395800037,2,1,2.0259555829998135,reldom2_s009,001,2025-01-30_11h47.56.681,Where-B-Scan_AC,2022.2.5,None,
2,First_Order,1.0,audwhere,stimulus/audwhere_stim/dummy.wav,stimulus/audwhere_stim/dummy.wav,stimulus/audwhere_stim/left_toward_290h.wav,stimulus/audwhere_stim/right_toward_280h.wav,stimulus/audwhere_stim/blank_white.png,stimulus/audwhere_stim/side_box.png,stimulus/audwhere_stim/side_yes.png,stimulus/audwhere_stim/side_no.png,None,Side,None,Direction,2,0.0,0,5.125,0,5.125,0,5.125,0,0.0,0.625,0,0.0,0,0.0,0,0.0,0,0.0,0,0.0,0,0.0,1,0.5,1,2.125,0,,,,,0,2,2,2,,,,,,,,,56.8960903330003,56.8960903330003,56.8960903330003,56.8960903330003,56.8960903330003,56.8960903330003,56.8960903330003,56.8960903330003,56.81973924933357,56.8960903330003,56.8960903330003,56.8960903330003,56.81973924933357,56.8960903330003,56.8960903330003,56.8960903330003,58.97089495800037,63.01153679100025,56.8960903330003,56.8960903330003,62.04579637500001,56.8960903330003,56.8960903330003,56.8960903330003,56.8960903330003,57.348342208000304,58.38546700000006,57.31942658266668,,58.97089495800037,60.01166716600028,58.942403874666766,,56.8960903330003,62.04579637500001,56.8960903330003,62.04579637500001,62.08562891600013,62.763717457999974,56.8960903330003,2,1,1.8419488749996162,reldom2_s009,001,2025-01-30_11h47.56.681,Where-B-Scan_AC,2022.2.5,None,
3,First_Order,1.0,audwhere,stimulus/audwhere_stim/dummy.wav,stimulus/audwhere_stim/dummy.wav,stimulus/audwhere_stim/right_toward_280h.wav,stimulus/audwhere_stim/right_away_300h.wav,stimulus/audwhere_stim/blank_white.png,stimulus/audwhere_stim/direction_box.png,stimulus/audwhere_stim/direction_yes.png,stimulus/audwhere_stim/direction_no.png,None,Direction,None,Side,2,0.0,0,5.125,0,5.125,0,5.125,0,0.0,0.625,0,0.0,0,0.0,0,0.0,0,0.0,0,0.0,0,0.0,1,0.5,1,2.125,0,,,,,0,3,3,3,,,,,,,,,63.01153679100025,63.01153679100025,63.01153679100025,63.01153679100025,63.01153679100025,63.01153679100025,63.01153679100025,63.01153679100025,62.93655129133334,63.01153679100025,63.01153679100025,63.01153679100025,62.93655129133334,63.01153679100025,63.01153679100025,63.01153679100025,65.11715729100024,,63.01153679100025,63.01153679100025,68.18149229100027,63.01153679100025,63.01153679100025,63.01153679100025,63.01153679100025,63.46802779100017,64.52398770800028,63.43858445766706,64.47853908300021,65.11715729100024,66.17348579100008,65.08737949966668,,63.01153679100025,68.18149229100027,63.01153679100025,68.18149229100027,68.22169837500041,68.90382195800021,63.01153679100025,2,1,1.9105969170000208,reldom2_s009,001,2025-01-30_11h47.56.681,Where-B-Scan_AC,2022.2.5,None,
4,First_Order,1.0,audwhere,stimulus/audwhere_stim/dummy.wav,stimulus/audwhere_stim/dummy.wav,stimulus/audwhere_stim/left_toward_270h.wav,stimulus/audwhere_stim/right_toward_300h.wav,stimulus/audwhere_stim/blank_white.png,stimulus/audwhere_stim/direction_box.png,stimulus/audwhere_stim/direction_yes.png,stimulus/audwhere_stim/direction_no.png,None,Direction,None,Direction,1,0.0,0,5.125,0,5.125,0,5.125,0,0.0,0.625,0,0.0,0,0.0,0,0.0,0,0.0,0,0.0,0,0.0,1,0.5,1,2.125,0,,,,,0,4,4,4,,,,,,,,,69.11434820800014,69.11434820800014,69.11434820800014,69.11434820800014,69.11434820800014,69.11434820800014,69.11434820800014,69.11434820800014,69.03715529133353,69.11434820800014,69.11434820800014,69.11434820800014,69.03715529133353,69.11434820800014,69.11434820800014,69.11434820800014,71.22552541599998,75.25726645800023,69.11434820800014,69.11434820800014,74.29760895800018,69.11434820800014,69.11434820800014,69.11434820800014,69.11434820800014,69.57168820800007,70.62891512500028,69.54232574966706,,71.22552541599998,72.28190966600005,71.19592549966707,,69.11434820800014,74.29760895800018,69.11434820800014,74.29760895800018,74.33762937500023,74.9860401660003,69.11434820800014,1,1,1.7129364170000372,reldom2_s009,001,2025-01-30_11h47.56.681,Where-B-Scan_AC,2022.2.5,None,
0,0.0,None,fixation,stimulus/audwhere_stim/blank_white.png,stimulus/audwhere_stim/blank_white.png,stimulus/viswhere_stim/blank_white.png,stimulus/viswhere_stim/blank_white.png,stimulus/audwhere_stim/blank_white.png,stimulus/audwhere_stim/blank_white.png,stimulus/audwhere_stim/blank_white.png,stimulus/audwhere_stim/blank_white.png,0.0,0.0,0.0,0.0,0,0.0,0,0.0,0,0.0,0,0.0,0,0.0,0.0,0,0.0,0,0.0,0,0.0,0,0.0,0,0.0,0,0.0,0,0.0,0,0.0,10,,,,,0,5,5,5,,,,,,,,,75.25726645800023,75.25726645800023,75.25726645800023,75.25726645800023,75.25726645800023,75.25726645800023,75.25726645800023,75.25726645800023,75.15980949933339,75.25726645800023,75.25726645800023,75.25726645800023,75.15980949933339,75.25726645800023,75.25726645800023,75.25726645800023,75.25726645800023,75.25726645800023,75.25726645800023,75.25726645800023,75.25726645800023,75.25726645800023,75.25726645800023,75.25726645800023,75.25726645800023,75.25726645800023,75.25726645800023,75.2098094993334,75.25726645800023,75.25726645800023,75.25726645800023,75.2098094993334,75.25726645800023,75.25726645800023,75.25726645800023,75.25726645800023,75.25726645800023,80.47645875000035,80.47645875000035,85.43508579100035,None,0,,reldom2_s009,001,2025-01-30_11h47.56.681,Where-B-Scan_AC,2022.2.5,None,
5,Second_Order,1.0,audwhere,stimulus/audwhere_stim/right_toward_300h.wav,stimulus/audwhere_stim/left_toward_280h.wav,stimulus/audwhere_stim/right_toward_280h.wav,stimulus/audwhere_stim/right_away_280h.wav,stimulus/audwhere_stim/match_blank.png,stimulus/audwhere_stim/match_box.png,stimulus/audwhere_stim/match_yes.png,stimulus/audwhere_stim/match_no.png,2.0,Match,Direction,Side,2,5.125,0,5.125,0,5.125,0,5.125,0,0.75,0.75,0,0.0,0,0.0,0,0.0,0,0.0,1,0.5,1,2.125,1,0.5,1,2.125,0,,,,,0,6,6,6,,,,,,,,,85.43508579100035,90.54836400000022,85.43508579100035,85.43508579100035,85.43508579100035,85.43508579100035,85.8869702080001,86.88475333300039,85.89949549966674,86.89280075000033,87.5079833750001,88.50551391600038,87.51999941666669,88.51310479100039,90.54836400000022,91.39543412500007,93.45723375000034,,91.39543412500007,91.39543412500007,96.58209158300042,91.39543412500007,91.39543412500007,91.39543412500007,91.39543412500007,91.85291833300016,92.90923425000028,91.82351737466685,,93.45723375000034,94.514324708,93.42848666666693,,91.39543412500007,96.58209158300042,91.39543412500007,96.58209158300042,96.58209158300042,,91.39543412500007,2,1,1.6087856249996548,reldom2_s009,001,2025-01-30_11h47.56.681,Where-B-Scan_AC,2022.2.5,None,
6,Second_Order,1.0,audwhere,stimulus/audwhere_stim/right_toward_270h.wav,stimulus/audwhere_stim/right_away_290h.wav,stimulus/audwhere_stim/left_toward_300h.wav,stimulus/audwhere_stim/left_away_290h.wav,stimulus/audwhere_stim/match_blank.png,stimulus/audwhere_stim/match_box.png,stimulus/audwhere_stim/match_yes.png,stimulus/audwhere_stim/match_no.png,1.0,Match,Side,Side,1,5.125,0,5.125,0,5.125,0,5.125,0,0.625,0.625,0,0.0,0,0.0,0,0.0,0,0.0,1,0.5,1,2.125,1,0.5,1,2.125,0,,,,,0,7,7,7,,,,,,,,,97.3846654580002,102.5096436660001,97.3846654580002,97.3846654580002,97.3846654580002,97.3846654580002,97.84341904100029,98.83710879099999,97.84635433266682,98.83710879099999,99.46857450000016,100.46632391600042,99.48057808266664,100.47414316599998,102.5096436660001,103.2196777500003,105.27709600000026,109.35509304100015,103.2196777500003,103.2196777500003,108.39687008300007,103.2196777500003,103.2196777500003,103.2196777500003,103.2196777500003,103.67488075000028,104.72987495799998,103.6459182076667,104.68474162500024,105.27709600000026,106.33288425,105.24783170766683,106.28658870800018,103.2196777500003,108.39687008300007,103.2196777500003,108.39687008300007,108.4372765410003,109.12429425000028,103.2196777500003,1,1,1.8205320419997406,reldom2_s009,001,2025-01-30_11h47.56.681,Where-B-Scan_AC,2022.2.5,None,
0,0.0,None,fixation,stimulus/audwhere_stim/blank_white.png,stimulus/audwhere_stim/blank_white.png,stimulus/viswhere_stim/blank_white.png,stimulus/viswhere_stim/blank_white.png,stimulus/audwhere_stim/blank_white.png,stimulus/audwhere_stim/blank_white.png,stimulus/audwhere_stim/blank_white.png,stimulus/audwhere_stim/blank_white.png,0.0,0.0,0.0,0.0,0,0.0,0,0.0,0,0.0,0,0.0,0,0.0,0.0,0,0.0,0,0.0,0,0.0,0,0.0,0,0.0,0,0.0,0,0.0,0,0.0,9,,,,,0,8,8,8,,,,,,,,,109.35509304100015,109.35509304100015,109.35509304100015,109.35509304100015,109.35509304100015,109.35509304100015,109.35509304100015,109.35509304100015,109.2576275833336,109.35509304100015,109.35509304100015,109.35509304100015,109.2576275833336,109.35509304100015,109.35509304100015,109.35509304100015,109.35509304100015,109.35509304100015,109.35509304100015,109.35509304100015,109.35509304100015,109.35509304100015,109.35509304100015,109.35509304100015,109.35509304100015,109.35509304100015,109.35509304100015,109.30762758333361,109.35509304100015,109.35509304100015,109.35509304100015,109.30762758333361,109.35509304100015,109.35509304100015,109.35509304100015,109.35509304100015,109.35509304100015,114.58283195800004,114.58283195800004,118.62504908300025,None,0,,reldom2_s009,001,2025-01-30_11h47.56.681,Where-B-Scan_AC,2022.2.5,None,
7,First_Order,2.0,audwhere,stimulus/audwhere_stim/dummy.wav,stimulus/audwhere_stim/dummy.wav,stimulus/audwhere_stim/left_toward_270h.wav,stimulus/audwhere_stim/right_toward_270h.wav,stimulus/audwhere_stim/blank_white.png,stimulus/audwhere_stim/direction_box.png,stimulus/audwhere_stim/direction_yes.png,stimulus/audwhere_stim/direction_no.png,None,Direction,None,Direction,1,0.0,0,5.125,0,5.125,0,5.125,0,0.0,0.625,0,0.0,0,0.0,0,0.0,0,0.0,0,0.0,0,0.0,1,0.5,1,2.125,0,,,,,0,9,9,9,,,,,,,,,118.62504908300025,118.62504908300025,118.62504908300025,118.62504908300025,118.62504908300025,118.62504908300025,118.62504908300025,118.62504908300025,118.55149737466688,118.62504908300025,118.62504908300025,118.62504908300025,118.55149737466688,118.62504908300025,118.62504908300025,118.62504908300025,120.72572345800018,124.75367062500027,118.62504908300025,118.62504908300025,123.80125058300018,118.62504908300025,118.62504908300025,118.62504908300025,118.62504908300025,119.09228925000025,120.1642729160003,119.06197370766701,,120.72572345800018,121.79663770800016,120.69533958266699,,118.62504908300025,123.80125058300018,118.62504908300025,123.80125058300018,123.84232245800013,124.498265791,118.62504908300025,1,1,1.6662770829998408,reldom2_s009,001,2025-01-30_11h47.56.681,Where-B-Scan_AC,2022.2.5,None,
8,First_Order,2.0,audwhere,stimulus/audwhere_stim/dummy.wav,stimulus/audwhere_stim/dummy.wav,stimulus/audwhere_stim/left_toward_280h.wav,stimulus/audwhere_stim/right_toward_290h.wav,stimulus/audwhere_stim/blank_white.png,stimulus/audwhere_stim/side_box.png,stimulus/audwhere_stim/side_yes.png,stimulus/audwhere_stim/side_no.png,None,Side,None,Direction,2,0.0,0,5.125,0,5.125,0,5.125,0,0.0,0.625,0,0.0,0,0.0,0,0.0,0,0.0,0,0.0,0,0.0,1,0.5,1,2.125,0,,,,,0,10,10,10,,,,,,,,,124.75367062500027,124.75367062500027,124.75367062500027,124.75367062500027,124.75367062500027,124.75367062500027,124.75367062500027,124.75367062500027,124.67222570833349,124.75367062500027,124.75367062500027,124.75367062500027,124.67222570833349,124.75367062500027,124.75367062500027,124.75367062500027,126.8450452080001,,124.75367062500027,124.75367062500027,129.90909154100018,124.75367062500027,124.75367062500027,124.75367062500027,124.75367062500027,125.21630420800011,126.28795537500037,125.18663391666702,,126.8450452080001,127.91176258300038,126.81523912466697,,124.75367062500027,129.90909154100018,124.75367062500027,129.90909154100018,129.94981058300027,130.60709579100012,124.75367062500027,2,1,1.4062855000001946,reldom2_s009,001,2025-01-30_11h47.56.681,Where-B-Scan_AC,2022.2.5,None,
9,First_Order,2.0,audwhere,stimulus/audwhere_stim/dummy.wav,stimulus/audwhere_stim/dummy.wav,stimulus/audwhere_stim/left_away_270h.wav,stimulus/audwhere_stim/left_toward_290h.wav,stimulus/audwhere_stim/blank_white.png,stimulus/audwhere_stim/side_box.png,stimulus/audwhere_stim/side_yes.png,stimulus/audwhere_stim/side_no.png,None,Side,None,Side,1,0.0,0,5.125,0,5.125,0,5.125,0,0.0,0.625,0,0.0,0,0.0,0,0.0,0,0.0,0,0.0,0,0.0,1,0.5,1,2.125,0,,,,,0,11,11,11,,,,,,,,,130.862915875,130.862915875,130.862915875,130.862915875,130.862915875,130.862915875,130.862915875,130.862915875,130.7804867913334,130.862915875,130.862915875,130.862915875,130.7804867913334,130.862915875,130.862915875,130.862915875,132.9585991660001,136.98521150000033,130.862915875,130.862915875,136.030323125,130.862915875,130.862915875,130.862915875,130.862915875,131.327589041,132.39881300000025,131.29762962466683,,132.9585991660001,134.0308582910002,132.92816233266674,,130.862915875,136.030323125,130.862915875,136.030323125,136.0717829580003,136.729425041,130.862915875,1,1,1.505062917000032,reldom2_s009,001,2025-01-30_11h47.56.681,Where-B-Scan_AC,2022.2.5,None,
10,First_Order,2.0,audwhere,stimulus/audwhere_stim/dummy.wav,stimulus/audwhere_stim/dummy.wav,stimulus/audwhere_stim/right_away_290h.wav,stimulus/audwhere_stim/right_toward_290h.wav,stimulus/audwhere_stim/blank_white.png,stimulus/audwhere_stim/side_box.png,stimulus/audwhere_stim/side_yes.png,stimulus/audwhere_stim/side_no.png,None,Side,None,Side,1,0.0,0,5.125,0,5.125,0,5.125,0,0.0,0.625,0,0.0,0,0.0,0,0.0,0,0.0,0,0.0,0,0.0,1,0.5,1,2.125,0,,,,,0,12,12,12,,,,,,,,,136.98521150000033,136.98521150000033,136.98521150000033,136.98521150000033,136.98521150000033,136.98521150000033,136.98521150000033,136.98521150000033,136.90369733333333,136.98521150000033,136.98521150000033,136.98521150000033,136.90369733333333,136.98521150000033,136.98521150000033,136.98521150000033,139.08140491600034,,136.98521150000033,136.98521150000033,142.16226537500006,136.98521150000033,136.98521150000033,136.98521150000033,136.98521150000033,137.44905283300022,138.5221780830002,137.41862062466706,,139.08140491600034,140.11210929100025,139.0514278326671,,136.98521150000033,142.16226537500006,136.98521150000033,142.16226537500006,142.203231083,142.86460450000004,136.98521150000033,1,1,1.5631855409997115,reldom2_s009,001,2025-01-30_11h47.56.681,Where-B-Scan_AC,2022.2.5,None,
0,0.0,None,fixation,stimulus/audwhere_stim/blank_white.png,stimulus/audwhere_stim/blank_white.png,stimulus/viswhere_stim/blank_white.png,stimulus/viswhere_stim/blank_white.png,stimulus/audwhere_stim/blank_white.png,stimulus/audwhere_stim/blank_white.png,stimulus/audwhere_stim/blank_white.png,stimulus/audwhere_stim/blank_white.png,0.0,0.0,0.0,0.0,0,0.0,0,0.0,0,0.0,0,0.0,0,0.0,0.0,0,0.0,0,0.0,0,0.0,0,0.0,0,0.0,0,0.0,0,0.0,0,0.0,9,,,,,0,13,13,13,,,,,,,,,143.09838104100027,143.09838104100027,143.09838104100027,143.09838104100027,143.09838104100027,143.09838104100027,143.09838104100027,143.09838104100027,142.9979378333334,143.09838104100027,143.09838104100027,143.09838104100027,142.9979378333334,143.09838104100027,143.09838104100027,143.09838104100027,143.09838104100027,143.09838104100027,143.09838104100027,143.09838104100027,143.09838104100027,143.09838104100027,143.09838104100027,143.09838104100027,143.09838104100027,143.09838104100027,143.09838104100027,143.04793783333338,143.09838104100027,143.09838104100027,143.09838104100027,143.04793783333338,143.09838104100027,143.09838104100027,143.09838104100027,143.09838104100027,143.09838104100027,148.31755887500003,148.31755887500003,152.23513670800003,None,0,,reldom2_s009,001,2025-01-30_11h47.56.681,Where-B-Scan_AC,2022.2.5,None,
11,Second_Order,2.0,audwhere,stimulus/audwhere_stim/left_toward_280h.wav,stimulus/audwhere_stim/left_away_290h.wav,stimulus/audwhere_stim/left_away_290h.wav,stimulus/audwhere_stim/right_away_280h.wav,stimulus/audwhere_stim/match_blank.png,stimulus/audwhere_stim/match_box.png,stimulus/audwhere_stim/match_yes.png,stimulus/audwhere_stim/match_no.png,2.0,Match,Side,Direction,2,5.125,0,5.125,0,5.125,0,5.125,0,0.75,0.75,0,0.0,0,0.0,0,0.0,0,0.0,1,0.5,1,2.125,1,0.5,1,2.125,0,,,,,0,14,14,14,,,,,,,,,152.23513670800003,157.35271337500035,152.23513670800003,152.23513670800003,152.23513670800003,152.23513670800003,152.69102383300014,153.68878162500005,152.70370166666706,153.69722170800014,154.31195970800036,155.3092742910003,154.32406216666666,155.3172012910004,157.35271337500035,158.1800196250001,160.27456845799998,164.2037830410004,158.1800196250001,158.1800196250001,163.34827883300022,158.1800196250001,158.1800196250001,158.1800196250001,158.1800196250001,158.647528083,159.71845708299998,158.61782358266672,,160.27456845799998,161.34701925000036,160.24494379166688,,158.1800196250001,163.34827883300022,158.1800196250001,163.34827883300022,163.38962820799998,,158.1800196250001,2,1,1.541729750000286,reldom2_s009,001,2025-01-30_11h47.56.681,Where-B-Scan_AC,2022.2.5,None,
12,Second_Order,2.0,audwhere,stimulus/audwhere_stim/left_away_270h.wav,stimulus/audwhere_stim/left_toward_280h.wav,stimulus/audwhere_stim/right_away_280h.wav,stimulus/audwhere_stim/right_toward_300h.wav,stimulus/audwhere_stim/match_blank.png,stimulus/audwhere_stim/match_box.png,stimulus/audwhere_stim/match_yes.png,stimulus/audwhere_stim/match_no.png,1.0,Match,Side,Side,1,5.125,0,5.125,0,5.125,0,5.125,0,0.625,0.625,0,0.0,0,0.0,0,0.0,0,0.0,1,0.5,1,2.125,1,0.5,1,2.125,0,,,,,0,15,15,15,,,,,,,,,164.2037830410004,169.32517833300017,164.2037830410004,164.2037830410004,164.2037830410004,164.2037830410004,164.66422358300042,165.65881004100038,164.6674676246669,165.65881004100038,166.28939258300034,167.28686600000037,166.30145512466677,167.2946186250001,169.32517833300017,170.038341125,172.1197006250004,,170.038341125,170.038341125,175.22977795800034,170.038341125,170.038341125,170.038341125,170.038341125,170.5023838750003,171.56554937500005,170.47252574966686,,172.1197006250004,173.18945220800015,172.08941699966707,,170.038341125,175.22977795800034,170.038341125,175.22977795800034,175.22977795800034,175.88247645800038,170.038341125,1,1,1.5076142079997226,reldom2_s009,001,2025-01-30_11h47.56.681,Where-B-Scan_AC,2022.2.5,None,
0,0.0,None,fixation,stimulus/audwhere_stim/blank_white.png,stimulus/audwhere_stim/blank_white.png,stimulus/viswhere_stim/blank_white.png,stimulus/viswhere_stim/blank_white.png,stimulus/audwhere_stim/blank_white.png,stimulus/audwhere_stim/blank_white.png,stimulus/audwhere_stim/blank_white.png,stimulus/audwhere_stim/blank_white.png,0.0,0.0,0.0,0.0,0,0.0,0,0.0,0,0.0,0,0.0,0,0.0,0.0,0,0.0,0,0.0,0,0.0,0,0.0,0,0.0,0,0.0,0,0.0,0,0.0,8,,,,,0,16,16,16,,,,,,,,,176.16045574999998,176.16045574999998,176.16045574999998,176.16045574999998,176.16045574999998,176.16045574999998,176.16045574999998,176.16045574999998,176.05662087433362,176.16045574999998,176.16045574999998,176.16045574999998,176.05662087433362,176.16045574999998,176.16045574999998,176.16045574999998,176.16045574999998,176.16045574999998,176.16045574999998,176.16045574999998,176.16045574999998,176.16045574999998,176.16045574999998,176.16045574999998,176.16045574999998,176.16045574999998,176.16045574999998,176.1066208743336,176.16045574999998,176.16045574999998,176.16045574999998,176.1066208743336,176.16045574999998,176.16045574999998,176.16045574999998,176.16045574999998,176.16045574999998,181.3491162080004,181.3491162080004,184.38697045800018,None,0,,reldom2_s009,001,2025-01-30_11h47.56.681,Where-B-Scan_AC,2022.2.5,None,
13,First_Order,3.0,viswhere,stimulus/viswhere_stim/blank_white.png,stimulus/viswhere_stim/blank_white.png,stimulus/viswhere_stim/150-deg_dot-left_seagreen.png,stimulus/viswhere_stim/150-deg_dot-right_royalblue.png,stimulus/viswhere_stim/blank_white.png,stimulus/viswhere_stim/line_box.png,stimulus/viswhere_stim/line_yes.png,stimulus/viswhere_stim/line_no.png,None,Line,None,Line,1,0.0,0,5.125,0,5.125,0,5.125,0,0.0,0.625,0,0.0,0,0.0,1,0.5,1,2.125,0,0.0,0,0.0,0,0.0,0,0.0,0,,,,,0,17,17,17,,,,,,,,,184.38697045800018,184.38697045800018,184.38697045800018,184.38697045800018,184.38697045800018,184.38697045800018,184.38697045800018,184.38697045800018,184.359594416667,184.38697045800018,184.38697045800018,184.38697045800018,184.359594416667,184.38697045800018,184.38697045800018,184.38697045800018,186.48027595800022,190.4426523750003,184.38697045800018,184.38697045800018,189.51755466600025,184.85777133300007,185.87492525000016,186.48027595800022,187.50083862500014,184.38697045800018,184.38697045800018,184.37626108333365,184.38697045800018,184.38697045800018,184.38697045800018,184.37626108333365,184.38697045800018,184.38697045800018,189.51755466600025,184.38697045800018,189.51755466600025,189.60194016600008,190.23615729100038,184.38697045800018,1,1,1.5605670830000236,reldom2_s009,001,2025-01-30_11h47.56.681,Where-B-Scan_AC,2022.2.5,None,
14,First_Order,3.0,viswhere,stimulus/viswhere_stim/blank_white.png,stimulus/viswhere_stim/blank_white.png,stimulus/viswhere_stim/90-deg_dot-right_cyan.png,stimulus/viswhere_stim/90-deg_dot-left_turquoise.png,stimulus/viswhere_stim/blank_white.png,stimulus/viswhere_stim/line_box.png,stimulus/viswhere_stim/line_yes.png,stimulus/viswhere_stim/line_no.png,None,Line,None,Line,1,0.0,0,5.125,0,5.125,0,5.125,0,0.0,0.625,0,0.0,0,0.0,1,0.5,1,2.125,0,0.0,0,0.0,0,0.0,0,0.0,0,,,,,0,18,18,18,,,,,,,,,190.4426523750003,190.4426523750003,190.4426523750003,190.4426523750003,190.4426523750003,190.4426523750003,190.4426523750003,190.4426523750003,190.41698537433362,190.4426523750003,190.4426523750003,190.4426523750003,190.41698537433362,190.4426523750003,190.4426523750003,190.4426523750003,192.53772283300032,196.50819770800035,190.4426523750003,190.4426523750003,195.57474266600002,190.92742545800002,191.93641504100015,192.53772283300032,193.55268395800022,190.4426523750003,190.4426523750003,190.4336520410003,190.4426523750003,190.4426523750003,190.4426523750003,190.4336520410003,190.4426523750003,190.4426523750003,195.57474266600002,190.4426523750003,195.57474266600002,195.65993975000038,196.28650675000017,190.4426523750003,1,1,1.396090958000059,reldom2_s009,001,2025-01-30_11h47.56.681,Where-B-Scan_AC,2022.2.5,None,
15,First_Order,3.0,viswhere,stimulus/viswhere_stim/blank_white.png,stimulus/viswhere_stim/blank_white.png,stimulus/viswhere_stim/60-deg_dot-right_salmon.png,stimulus/viswhere_stim/150-deg_dot-right_turquoise.png,stimulus/viswhere_stim/blank_white.png,stimulus/viswhere_stim/dot_box.png,stimulus/viswhere_stim/dot_yes.png,stimulus/viswhere_stim/dot_no.png,None,Dot,None,Dot,1,0.0,0,5.125,0,5.125,0,5.125,0,0.0,0.625,0,0.0,0,0.0,1,0.5,1,2.125,0,0.0,0,0.0,0,0.0,0,0.0,0,,,,,0,19,19,19,,,,,,,,,196.50819770800035,196.50819770800035,196.50819770800035,196.50819770800035,196.50819770800035,196.50819770800035,196.50819770800035,196.50819770800035,196.4821108333334,196.50819770800035,196.50819770800035,196.50819770800035,196.4821108333334,196.50819770800035,196.50819770800035,196.50819770800035,198.60490066600005,202.56870254100022,196.50819770800035,196.50819770800035,201.63720975000024,196.99363566600005,198.00355125000033,198.60490066600005,199.61735966600008,196.50819770800035,196.50819770800035,196.49877750000007,196.50819770800035,196.50819770800035,196.50819770800035,196.49877750000007,196.50819770800035,196.50819770800035,201.63720975000024,196.50819770800035,201.63720975000024,201.735072125,202.36150175000012,196.50819770800035,1,1,1.537818833000074,reldom2_s009,001,2025-01-30_11h47.56.681,Where-B-Scan_AC,2022.2.5,None,
16,First_Order,3.0,viswhere,stimulus/viswhere_stim/blank_white.png,stimulus/viswhere_stim/blank_white.png,stimulus/viswhere_stim/120-deg_dot-left_peru.png,stimulus/viswhere_stim/120-deg_dot-right_royalblue.png,stimulus/viswhere_stim/blank_white.png,stimulus/viswhere_stim/dot_box.png,stimulus/viswhere_stim/dot_yes.png,stimulus/viswhere_stim/dot_no.png,None,Dot,None,Line,2,0.0,0,5.125,0,5.125,0,5.125,0,0.0,0.625,0,0.0,0,0.0,1,0.5,1,2.125,0,0.0,0,0.0,0,0.0,0,0.0,0,,,,,0,20,20,20,,,,,,,,,202.56870254100022,202.56870254100022,202.56870254100022,202.56870254100022,202.56870254100022,202.56870254100022,202.56870254100022,202.56870254100022,202.5446477083336,202.56870254100022,202.56870254100022,202.56870254100022,202.5446477083336,202.56870254100022,202.56870254100022,202.56870254100022,204.67003599999998,208.70974991600042,202.56870254100022,202.56870254100022,207.7030858330004,203.05081966600028,204.05237637500022,204.67003599999998,205.67633270800025,202.56870254100022,202.56870254100022,202.56131437500028,202.56870254100022,202.56870254100022,202.56870254100022,202.56131437500028,202.56870254100022,202.56870254100022,207.7030858330004,202.56870254100022,207.7030858330004,207.7872184160001,208.41445758300006,202.56870254100022,2,1,1.0733710829995289,reldom2_s009,001,2025-01-30_11h47.56.681,Where-B-Scan_AC,2022.2.5,None,
0,0.0,None,fixation,stimulus/audwhere_stim/blank_white.png,stimulus/audwhere_stim/blank_white.png,stimulus/viswhere_stim/blank_white.png,stimulus/viswhere_stim/blank_white.png,stimulus/audwhere_stim/blank_white.png,stimulus/audwhere_stim/blank_white.png,stimulus/audwhere_stim/blank_white.png,stimulus/audwhere_stim/blank_white.png,0.0,0.0,0.0,0.0,0,0.0,0,0.0,0,0.0,0,0.0,0,0.0,0.0,0,0.0,0,0.0,0,0.0,0,0.0,0,0.0,0,0.0,0,0.0,0,0.0,10,,,,,0,21,21,21,,,,,,,,,208.70974991600042,208.70974991600042,208.70974991600042,208.70974991600042,208.70974991600042,208.70974991600042,208.70974991600042,208.70974991600042,208.60858833333336,208.70974991600042,208.70974991600042,208.70974991600042,208.60858833333336,208.70974991600042,208.70974991600042,208.70974991600042,208.70974991600042,208.70974991600042,208.70974991600042,208.70974991600042,208.70974991600042,208.70974991600042,208.70974991600042,208.70974991600042,208.70974991600042,208.70974991600042,208.70974991600042,208.65858833333337,208.70974991600042,208.70974991600042,208.70974991600042,208.65858833333337,208.70974991600042,208.70974991600042,208.70974991600042,208.70974991600042,208.70974991600042,213.9158166250004,213.9158166250004,218.86572041600039,None,0,,reldom2_s009,001,2025-01-30_11h47.56.681,Where-B-Scan_AC,2022.2.5,None,
17,Second_Order,3.0,viswhere,stimulus/viswhere_stim/90-deg_dot-left_lightsseagreen.png,stimulus/viswhere_stim/90-deg_dot-right_lightsseagreen.png,stimulus/viswhere_stim/120-deg_dot-right_cyan.png,stimulus/viswhere_stim/60-deg_dot-right_royalblue.png,stimulus/audwhere_stim/match_blank.png,stimulus/audwhere_stim/match_box.png,stimulus/audwhere_stim/match_yes.png,stimulus/audwhere_stim/match_no.png,2.0,Match,Line,Dot,2,5.125,0,5.125,0,5.125,0,5.125,0,0.75,0.75,1,0.5,1,2.125,1,0.5,1,2.125,0,0.0,0,0.0,0,0.0,0,0.0,0,,,,,0,22,22,22,,,,,,,,,218.86572041600039,223.98930833300028,219.34453679100034,220.3431028750001,220.9657994160002,221.96315200000026,218.86572041600039,218.86572041600039,218.87722504133367,218.86572041600039,218.86572041600039,218.86572041600039,218.87722504133367,218.86572041600039,223.98930833300028,224.76813000000038,226.86173341600033,230.75577466599998,224.76813000000038,224.76813000000038,229.89092933300026,225.23207737500024,226.23928875000001,226.86173341600033,227.87453408300007,224.76813000000038,224.76813000000038,224.75607812433333,224.76813000000038,224.76813000000038,224.76813000000038,224.75607812433333,224.76813000000038,224.76813000000038,229.89092933300026,224.76813000000038,229.89092933300026,229.97506375000012,230.75577466599998,224.76813000000038,2,1,1.2920342499996877,reldom2_s009,001,2025-01-30_11h47.56.681,Where-B-Scan_AC,2022.2.5,None,
18,Second_Order,3.0,viswhere,stimulus/viswhere_stim/90-deg_dot-left_lightsseagreen.png,stimulus/viswhere_stim/60-deg_dot-left_mediumslateblue.png,stimulus/viswhere_stim/60-deg_dot-right_lightsseagreen.png,stimulus/viswhere_stim/30-deg_dot-right_goldenrod.png,stimulus/audwhere_stim/match_blank.png,stimulus/audwhere_stim/match_box.png,stimulus/audwhere_stim/match_yes.png,stimulus/audwhere_stim/match_no.png,1.0,Match,Dot,Dot,1,5.125,0,5.125,0,5.125,0,5.125,0,0.625,0.625,1,0.5,1,2.125,1,0.5,1,2.125,0,0.0,0,0.0,0,0.0,0,0.0,0,,,,,0,23,23,23,,,,,,,,,230.75577466599998,235.8787569580004,231.23867741599997,232.23675700000013,232.85929520800028,233.8573630830001,230.75577466599998,230.75577466599998,230.76835283300016,230.75577466599998,230.75577466599998,230.75577466599998,230.76835283300016,230.75577466599998,235.8787569580004,236.54033750000008,238.63338141600025,242.66837991600005,236.54033750000008,236.54033750000008,241.66444300000012,237.005578583,238.01212775000022,238.63338141600025,239.6454543330001,236.54033750000008,236.54033750000008,236.53000791633355,236.54033750000008,236.54033750000008,236.54033750000008,236.53000791633355,236.54033750000008,236.54033750000008,241.66444300000012,236.54033750000008,241.66444300000012,241.7523180000003,242.37840995800025,236.54033750000008,1,1,1.3432154999995873,reldom2_s009,001,2025-01-30_11h47.56.681,Where-B-Scan_AC,2022.2.5,None,
0,0.0,None,fixation,stimulus/audwhere_stim/blank_white.png,stimulus/audwhere_stim/blank_white.png,stimulus/viswhere_stim/blank_white.png,stimulus/viswhere_stim/blank_white.png,stimulus/audwhere_stim/blank_white.png,stimulus/audwhere_stim/blank_white.png,stimulus/audwhere_stim/blank_white.png,stimulus/audwhere_stim/blank_white.png,0.0,0.0,0.0,0.0,0,0.0,0,0.0,0,0.0,0,0.0,0,0.0,0.0,0,0.0,0,0.0,0,0.0,0,0.0,0,0.0,0,0.0,0,0.0,0,0.0,9,,,,,0,24,24,24,,,,,,,,,242.66837991600005,242.66837991600005,242.66837991600005,242.66837991600005,242.66837991600005,242.66837991600005,242.66837991600005,242.66837991600005,242.56438133333344,242.66837991600005,242.66837991600005,242.66837991600005,242.56438133333344,242.66837991600005,242.66837991600005,242.66837991600005,242.66837991600005,242.66837991600005,242.66837991600005,242.66837991600005,242.66837991600005,242.66837991600005,242.66837991600005,242.66837991600005,242.66837991600005,242.66837991600005,242.66837991600005,242.61438133333345,242.66837991600005,242.66837991600005,242.66837991600005,242.61438133333345,242.66837991600005,242.66837991600005,242.66837991600005,242.66837991600005,242.66837991600005,247.85319316599998,247.85319316599998,251.88282404100028,None,0,,reldom2_s009,001,2025-01-30_11h47.56.681,Where-B-Scan_AC,2022.2.5,None,
19,First_Order,4.0,viswhere,stimulus/viswhere_stim/blank_white.png,stimulus/viswhere_stim/blank_white.png,stimulus/viswhere_stim/90-deg_dot-left_seagreen.png,stimulus/viswhere_stim/150-deg_dot-left_lightsseagreen.png,stimulus/viswhere_stim/blank_white.png,stimulus/viswhere_stim/dot_box.png,stimulus/viswhere_stim/dot_yes.png,stimulus/viswhere_stim/dot_no.png,None,Dot,None,Dot,1,0.0,0,5.125,0,5.125,0,5.125,0,0.0,0.625,0,0.0,0,0.0,1,0.5,1,2.125,0,0.0,0,0.0,0,0.0,0,0.0,0,,,,,0,25,25,25,,,,,,,,,251.88282404100028,251.88282404100028,251.88282404100028,251.88282404100028,251.88282404100028,251.88282404100028,251.88282404100028,251.88282404100028,251.85935049966673,251.88282404100028,251.88282404100028,251.88282404100028,251.85935049966673,251.88282404100028,251.88282404100028,251.88282404100028,253.98716162500023,257.9494864160001,251.88282404100028,251.88282404100028,257.02668825,252.35137970800042,253.36506179100024,253.98716162500023,255.00413341600006,251.88282404100028,251.88282404100028,251.87601716633338,251.88282404100028,251.88282404100028,251.88282404100028,251.87601716633338,251.88282404100028,251.88282404100028,257.02668825,251.88282404100028,257.02668825,257.0990463750004,257.730542541,251.88282404100028,1,1,1.3103957500002252,reldom2_s009,001,2025-01-30_11h47.56.681,Where-B-Scan_AC,2022.2.5,None,
20,First_Order,4.0,viswhere,stimulus/viswhere_stim/blank_white.png,stimulus/viswhere_stim/blank_white.png,stimulus/viswhere_stim/30-deg_dot-left_peru.png,stimulus/viswhere_stim/30-deg_dot-right_salmon.png,stimulus/viswhere_stim/blank_white.png,stimulus/viswhere_stim/dot_box.png,stimulus/viswhere_stim/dot_yes.png,stimulus/viswhere_stim/dot_no.png,None,Dot,None,Line,2,0.0,0,5.125,0,5.125,0,5.125,0,0.0,0.625,0,0.0,0,0.0,1,0.5,1,2.125,0,0.0,0,0.0,0,0.0,0,0.0,0,,,,,0,26,26,26,,,,,,,,,257.9494864160001,257.9494864160001,257.9494864160001,257.9494864160001,257.9494864160001,257.9494864160001,257.9494864160001,257.9494864160001,257.92554166633346,257.9494864160001,257.9494864160001,257.9494864160001,257.92554166633346,257.9494864160001,257.9494864160001,257.9494864160001,260.0572359160001,264.013173416,257.9494864160001,257.9494864160001,263.0839970410002,258.4347439160001,259.4393351660001,260.0572359160001,261.07123141600005,257.9494864160001,257.9494864160001,257.9422083330001,257.9494864160001,257.9494864160001,257.9494864160001,257.9422083330001,257.9494864160001,257.9494864160001,263.0839970410002,257.9494864160001,263.0839970410002,263.168604166,263.79471404100013,257.9494864160001,2,1,0.9685669999998936,reldom2_s009,001,2025-01-30_11h47.56.681,Where-B-Scan_AC,2022.2.5,None,
21,First_Order,4.0,viswhere,stimulus/viswhere_stim/blank_white.png,stimulus/viswhere_stim/blank_white.png,stimulus/viswhere_stim/60-deg_dot-left_lightsseagreen.png,stimulus/viswhere_stim/30-deg_dot-left_slateblue.png,stimulus/viswhere_stim/blank_white.png,stimulus/viswhere_stim/line_box.png,stimulus/viswhere_stim/line_yes.png,stimulus/viswhere_stim/line_no.png,None,Line,None,Dot,2,0.0,0,5.125,0,5.125,0,5.125,0,0.0,0.625,0,0.0,0,0.0,1,0.5,1,2.125,0,0.0,0,0.0,0,0.0,0,0.0,0,,,,,0,27,27,27,,,,,,,,,264.013173416,264.013173416,264.013173416,264.013173416,264.013173416,264.013173416,264.013173416,264.013173416,263.98962062433367,264.013173416,264.013173416,264.013173416,263.98962062433367,264.013173416,264.013173416,264.013173416,266.11852579100014,270.07465604100025,264.013173416,264.013173416,269.145826125,264.5000412500003,265.5022627080002,266.11852579100014,267.1277910830004,264.013173416,264.013173416,264.0062872910003,264.013173416,264.013173416,264.013173416,264.0062872910003,264.013173416,264.013173416,269.145826125,264.013173416,269.145826125,269.2295948330002,269.8561097910001,264.013173416,2,1,1.2471412499999133,reldom2_s009,001,2025-01-30_11h47.56.681,Where-B-Scan_AC,2022.2.5,None,
22,First_Order,4.0,viswhere,stimulus/viswhere_stim/blank_white.png,stimulus/viswhere_stim/blank_white.png,stimulus/viswhere_stim/120-deg_dot-right_peru.png,stimulus/viswhere_stim/150-deg_dot-right_peru.png,stimulus/viswhere_stim/blank_white.png,stimulus/viswhere_stim/line_box.png,stimulus/viswhere_stim/line_yes.png,stimulus/viswhere_stim/line_no.png,None,Line,None,Dot,2,0.0,0,5.125,0,5.125,0,5.125,0,0.0,0.625,0,0.0,0,0.0,1,0.5,1,2.125,0,0.0,0,0.0,0,0.0,0,0.0,0,,,,,0,28,28,28,,,,,,,,,270.07465604100025,270.07465604100025,270.07465604100025,270.07465604100025,270.07465604100025,270.07465604100025,270.07465604100025,270.07465604100025,270.0503389993335,270.07465604100025,270.07465604100025,270.07465604100025,270.0503389993335,270.07465604100025,270.07465604100025,270.07465604100025,272.1768386660001,276.2176084580001,270.07465604100025,270.07465604100025,275.2086343750002,270.5624989580001,271.57498408300034,272.1768386660001,273.19714645800013,270.07465604100025,270.07465604100025,270.06700566600017,270.07465604100025,270.07465604100025,270.07465604100025,270.06700566600017,270.07465604100025,270.07465604100025,275.2086343750002,270.07465604100025,275.2086343750002,275.2936970830001,275.9202297080001,270.07465604100025,2,1,1.8442271249996338,reldom2_s009,001,2025-01-30_11h47.56.681,Where-B-Scan_AC,2022.2.5,None,
0,0.0,None,fixation,stimulus/audwhere_stim/blank_white.png,stimulus/audwhere_stim/blank_white.png,stimulus/viswhere_stim/blank_white.png,stimulus/viswhere_stim/blank_white.png,stimulus/audwhere_stim/blank_white.png,stimulus/audwhere_stim/blank_white.png,stimulus/audwhere_stim/blank_white.png,stimulus/audwhere_stim/blank_white.png,0.0,0.0,0.0,0.0,0,0.0,0,0.0,0,0.0,0,0.0,0,0.0,0.0,0,0.0,0,0.0,0,0.0,0,0.0,0,0.0,0,0.0,0,0.0,0,0.0,10,,,,,0,29,29,29,,,,,,,,,276.2176084580001,276.2176084580001,276.2176084580001,276.2176084580001,276.2176084580001,276.2176084580001,276.2176084580001,276.2176084580001,276.11434795833367,276.2176084580001,276.2176084580001,276.2176084580001,276.11434795833367,276.2176084580001,276.2176084580001,276.2176084580001,276.2176084580001,276.2176084580001,276.2176084580001,276.2176084580001,276.2176084580001,276.2176084580001,276.2176084580001,276.2176084580001,276.2176084580001,276.2176084580001,276.2176084580001,276.1643479583337,276.2176084580001,276.2176084580001,276.2176084580001,276.1643479583337,276.2176084580001,276.2176084580001,276.2176084580001,276.2176084580001,276.2176084580001,281.43650133300025,281.43650133300025,286.3365643330003,None,0,,reldom2_s009,001,2025-01-30_11h47.56.681,Where-B-Scan_AC,2022.2.5,None,
23,Second_Order,4.0,viswhere,stimulus/viswhere_stim/60-deg_dot-right_peru.png,stimulus/viswhere_stim/60-deg_dot-left_royalblue.png,stimulus/viswhere_stim/90-deg_dot-left_slateblue.png,stimulus/viswhere_stim/90-deg_dot-right_royalblue.png,stimulus/audwhere_stim/match_blank.png,stimulus/audwhere_stim/match_box.png,stimulus/audwhere_stim/match_yes.png,stimulus/audwhere_stim/match_no.png,1.0,Match,Line,Line,1,5.125,0,5.125,0,5.125,0,5.125,0,0.75,0.75,1,0.5,1,2.125,1,0.5,1,2.125,0,0.0,0,0.0,0,0.0,0,0.0,0,,,,,0,30,30,30,,,,,,,,,286.3365643330003,291.462045666,286.81639079100023,287.81525037500023,288.4373410830003,289.43566750000036,286.3365643330003,286.3365643330003,286.3474790413335,286.3365643330003,286.3365643330003,286.3365643330003,286.3474790413335,286.3365643330003,291.462045666,292.24021925000034,294.3296965000004,298.2234386660002,292.24021925000034,292.24021925000034,297.3631612500003,292.71052987500025,293.7263237500001,294.3296965000004,295.3502375410003,292.24021925000034,292.24021925000034,292.2286376663337,292.24021925000034,292.24021925000034,292.24021925000034,292.2286376663337,292.24021925000034,292.24021925000034,297.3631612500003,292.24021925000034,297.3631612500003,297.4477675410003,298.2234386660002,292.24021925000034,1,1,1.3150124589997176,reldom2_s009,001,2025-01-30_11h47.56.681,Where-B-Scan_AC,2022.2.5,None,
24,Second_Order,4.0,viswhere,stimulus/viswhere_stim/120-deg_dot-left_peru.png,stimulus/viswhere_stim/120-deg_dot-right_peru.png,stimulus/viswhere_stim/30-deg_dot-right_peru.png,stimulus/viswhere_stim/30-deg_dot-left_lightsseagreen.png,stimulus/audwhere_stim/match_blank.png,stimulus/audwhere_stim/match_box.png,stimulus/audwhere_stim/match_yes.png,stimulus/audwhere_stim/match_no.png,1.0,Match,Line,Line,1,5.125,0,5.125,0,5.125,0,5.125,0,0.625,0.625,1,0.5,1,2.125,1,0.5,1,2.125,0,0.0,0,0.0,0,0.0,0,0.0,0,,,,,0,31,31,31,,,,,,,,,298.2234386660002,303.33979908300034,298.707046041,299.69636133300037,300.33177383300017,301.3294180410003,298.2234386660002,298.2234386660002,298.23552283300006,298.2234386660002,298.2234386660002,298.2234386660002,298.23552283300006,298.2234386660002,303.33979908300034,303.9938632080002,306.09454975000017,310.13413208300017,303.9938632080002,303.9938632080002,309.1180725830004,304.4615851660001,305.47408300000006,306.09454975000017,307.11235783300026,303.9938632080002,303.9938632080002,303.98556520833336,303.9938632080002,303.9938632080002,303.9938632080002,303.98556520833336,303.9938632080002,303.9938632080002,309.1180725830004,303.9938632080002,309.1180725830004,309.2079543750001,309.8340725830003,303.9938632080002,1,1,1.61750499999971,reldom2_s009,001,2025-01-30_11h47.56.681,Where-B-Scan_AC,2022.2.5,None,
0,0.0,None,fixation,stimulus/audwhere_stim/blank_white.png,stimulus/audwhere_stim/blank_white.png,stimulus/viswhere_stim/blank_white.png,stimulus/viswhere_stim/blank_white.png,stimulus/audwhere_stim/blank_white.png,stimulus/audwhere_stim/blank_white.png,stimulus/audwhere_stim/blank_white.png,stimulus/audwhere_stim/blank_white.png,0.0,0.0,0.0,0.0,0,0.0,0,0.0,0,0.0,0,0.0,0,0.0,0.0,0,0.0,0,0.0,0,0.0,0,0.0,0,0.0,0,0.0,0,0.0,0,0.0,9,,,,,0,32,32,32,,,,,,,,,310.13413208300017,310.13413208300017,310.13413208300017,310.13413208300017,310.13413208300017,310.13413208300017,310.13413208300017,310.13413208300017,310.0287234583337,310.13413208300017,310.13413208300017,310.13413208300017,310.0287234583337,310.13413208300017,310.13413208300017,310.13413208300017,310.13413208300017,310.13413208300017,310.13413208300017,310.13413208300017,310.13413208300017,310.13413208300017,310.13413208300017,310.13413208300017,310.13413208300017,310.13413208300017,310.13413208300017,310.0787234583337,310.13413208300017,310.13413208300017,310.13413208300017,310.0787234583337,310.13413208300017,310.13413208300017,310.13413208300017,310.13413208300017,310.13413208300017,315.34277250000014,315.34277250000014,319.38995175000036,None,0,,reldom2_s009,001,2025-01-30_11h47.56.681,Where-B-Scan_AC,2022.2.5,None,
25,First_Order,5.0,audwhere,stimulus/audwhere_stim/dummy.wav,stimulus/audwhere_stim/dummy.wav,stimulus/audwhere_stim/right_toward_280h.wav,stimulus/audwhere_stim/right_away_290h.wav,stimulus/audwhere_stim/blank_white.png,stimulus/audwhere_stim/side_box.png,stimulus/audwhere_stim/side_yes.png,stimulus/audwhere_stim/side_no.png,None,Side,None,Side,1,0.0,0,5.125,0,5.125,0,5.125,0,0.0,0.625,0,0.0,0,0.0,0,0.0,0,0.0,0,0.0,0,0.0,1,0.5,1,2.125,0,,,,,0,33,33,33,,,,,,,,,319.38995175000036,319.38995175000036,319.38995175000036,319.38995175000036,319.38995175000036,319.38995175000036,319.38995175000036,319.38995175000036,319.30950520766703,319.38995175000036,319.38995175000036,319.38995175000036,319.30950520766703,319.38995175000036,319.38995175000036,319.38995175000036,321.4618817080004,,319.38995175000036,319.38995175000036,324.56951208300006,319.38995175000036,319.38995175000036,319.38995175000036,319.38995175000036,319.8615025410004,320.8977623750002,319.8311232916669,,321.4618817080004,322.49988783300023,321.43094499966696,,319.38995175000036,324.56951208300006,319.38995175000036,324.56951208300006,324.61111416600033,325.2744777080002,319.38995175000036,1,1,1.6091685840001446,reldom2_s009,001,2025-01-30_11h47.56.681,Where-B-Scan_AC,2022.2.5,None,
26,First_Order,5.0,audwhere,stimulus/audwhere_stim/dummy.wav,stimulus/audwhere_stim/dummy.wav,stimulus/audwhere_stim/right_toward_300h.wav,stimulus/audwhere_stim/left_toward_270h.wav,stimulus/audwhere_stim/blank_white.png,stimulus/audwhere_stim/direction_box.png,stimulus/audwhere_stim/direction_yes.png,stimulus/audwhere_stim/direction_no.png,None,Direction,None,Direction,1,0.0,0,5.125,0,5.125,0,5.125,0,0.0,0.625,0,0.0,0,0.0,0,0.0,0,0.0,0,0.0,0,0.0,1,0.5,1,2.125,0,,,,,0,34,34,34,,,,,,,,,325.4936956250003,325.4936956250003,325.4936956250003,325.4936956250003,325.4936956250003,325.4936956250003,325.4936956250003,325.4936956250003,325.4078110413335,325.4936956250003,325.4936956250003,325.4936956250003,325.4078110413335,325.4936956250003,325.4936956250003,325.4936956250003,327.5799175000002,,325.4936956250003,325.4936956250003,330.6664510830001,325.4936956250003,325.4936956250003,325.4936956250003,325.4936956250003,325.96891395800003,327.01171675000023,325.93775695766703,,327.5799175000002,328.6299116660002,327.54884508266673,328.58285458299997,325.4936956250003,330.6664510830001,325.4936956250003,330.6664510830001,330.70817375000024,331.37395329100036,325.4936956250003,1,1,1.6564914159998807,reldom2_s009,001,2025-01-30_11h47.56.681,Where-B-Scan_AC,2022.2.5,None,
27,First_Order,5.0,audwhere,stimulus/audwhere_stim/dummy.wav,stimulus/audwhere_stim/dummy.wav,stimulus/audwhere_stim/left_toward_290h.wav,stimulus/audwhere_stim/left_away_300h.wav,stimulus/audwhere_stim/blank_white.png,stimulus/audwhere_stim/direction_box.png,stimulus/audwhere_stim/direction_yes.png,stimulus/audwhere_stim/direction_no.png,None,Direction,None,Side,2,0.0,0,5.125,0,5.125,0,5.125,0,0.0,0.625,0,0.0,0,0.0,0,0.0,0,0.0,0,0.0,0,0.0,1,0.5,1,2.125,0,,,,,0,35,35,35,,,,,,,,,331.5929725410001,331.5929725410001,331.5929725410001,331.5929725410001,331.5929725410001,331.5929725410001,331.5929725410001,331.5929725410001,331.5072866243337,331.5929725410001,331.5929725410001,331.5929725410001,331.5072866243337,331.5929725410001,331.5929725410001,331.5929725410001,333.67882587500026,,331.5929725410001,331.5929725410001,336.7588793750001,331.5929725410001,331.5929725410001,331.5929725410001,331.5929725410001,332.0660586250001,333.1110616660003,332.03537666666693,,333.67882587500026,334.7240266660001,333.6477234166666,,331.5929725410001,336.7588793750001,331.5929725410001,336.7588793750001,336.8009456660002,337.4670935000004,331.5929725410001,2,1,1.324673208999684,reldom2_s009,001,2025-01-30_11h47.56.681,Where-B-Scan_AC,2022.2.5,None,
28,First_Order,5.0,audwhere,stimulus/audwhere_stim/dummy.wav,stimulus/audwhere_stim/dummy.wav,stimulus/audwhere_stim/right_away_300h.wav,stimulus/audwhere_stim/right_toward_290h.wav,stimulus/audwhere_stim/blank_white.png,stimulus/audwhere_stim/direction_box.png,stimulus/audwhere_stim/direction_yes.png,stimulus/audwhere_stim/direction_no.png,None,Direction,None,Side,2,0.0,0,5.125,0,5.125,0,5.125,0,0.0,0.625,0,0.0,0,0.0,0,0.0,0,0.0,0,0.0,0,0.0,1,0.5,1,2.125,0,,,,,0,36,36,36,,,,,,,,,337.6870817500003,337.6870817500003,337.6870817500003,337.6870817500003,337.6870817500003,337.6870817500003,337.6870817500003,337.6870817500003,337.6004268333337,337.6870817500003,337.6870817500003,337.6870817500003,337.6004268333337,337.6870817500003,337.6870817500003,337.6870817500003,339.77209629100025,,337.6870817500003,337.6870817500003,342.8713162910003,337.6870817500003,337.6870817500003,337.6870817500003,337.6870817500003,338.16041520800036,339.2034377910004,338.1296565416667,,339.77209629100025,340.836067791,339.741082207667,,337.6870817500003,342.8713162910003,337.6870817500003,342.8713162910003,342.91295633300024,343.57995233300016,337.6870817500003,2,1,1.3542065420001563,reldom2_s009,001,2025-01-30_11h47.56.681,Where-B-Scan_AC,2022.2.5,None,
0,0.0,None,fixation,stimulus/audwhere_stim/blank_white.png,stimulus/audwhere_stim/blank_white.png,stimulus/viswhere_stim/blank_white.png,stimulus/viswhere_stim/blank_white.png,stimulus/audwhere_stim/blank_white.png,stimulus/audwhere_stim/blank_white.png,stimulus/audwhere_stim/blank_white.png,stimulus/audwhere_stim/blank_white.png,0.0,0.0,0.0,0.0,0,0.0,0,0.0,0,0.0,0,0.0,0,0.0,0.0,0,0.0,0,0.0,0,0.0,0,0.0,0,0.0,0,0.0,0,0.0,0,0.0,10,,,,,0,37,37,37,,,,,,,,,343.81823858300004,343.81823858300004,343.81823858300004,343.81823858300004,343.81823858300004,343.81823858300004,343.81823858300004,343.81823858300004,343.7132856663335,343.81823858300004,343.81823858300004,343.81823858300004,343.7132856663335,343.81823858300004,343.81823858300004,343.81823858300004,343.81823858300004,343.81823858300004,343.81823858300004,343.81823858300004,343.81823858300004,343.81823858300004,343.81823858300004,343.81823858300004,343.81823858300004,343.81823858300004,343.81823858300004,343.7632856663335,343.81823858300004,343.81823858300004,343.81823858300004,343.7632856663335,343.81823858300004,343.81823858300004,343.81823858300004,343.81823858300004,343.81823858300004,349.0483803330003,349.0483803330003,353.9920345830001,None,0,,reldom2_s009,001,2025-01-30_11h47.56.681,Where-B-Scan_AC,2022.2.5,None,
29,Second_Order,5.0,audwhere,stimulus/audwhere_stim/right_toward_270h.wav,stimulus/audwhere_stim/right_away_280h.wav,stimulus/audwhere_stim/left_away_270h.wav,stimulus/audwhere_stim/right_away_300h.wav,stimulus/audwhere_stim/match_blank.png,stimulus/audwhere_stim/match_box.png,stimulus/audwhere_stim/match_yes.png,stimulus/audwhere_stim/match_no.png,2.0,Match,Side,Direction,2,5.125,0,5.125,0,5.125,0,5.125,0,0.75,0.75,0,0.0,0,0.0,0,0.0,0,0.0,1,0.5,1,2.125,1,0.5,1,2.125,0,,,,,0,38,38,38,,,,,,,,,353.9920345830001,359.11330720800015,353.9920345830001,353.9920345830001,353.9920345830001,353.9920345830001,354.43877850000035,355.4245889580002,354.452246874667,355.4455303750001,356.0725698330002,357.0615824160004,356.0761961246669,357.0745226250001,359.11330720800015,359.9491196250001,362.021434666,365.9608849160004,359.9491196250001,359.9491196250001,365.13605016600013,359.9491196250001,359.9491196250001,359.9491196250001,359.9491196250001,360.4224528750001,361.45725837500004,360.3903369996667,,362.021434666,363.06028695800023,361.99053570766705,,359.9491196250001,365.13605016600013,359.9491196250001,365.13605016600013,365.13605016600013,,359.9491196250001,2,1,1.3965306659997623,reldom2_s009,001,2025-01-30_11h47.56.681,Where-B-Scan_AC,2022.2.5,None,
30,Second_Order,5.0,audwhere,stimulus/audwhere_stim/right_away_300h.wav,stimulus/audwhere_stim/right_toward_300h.wav,stimulus/audwhere_stim/left_toward_290h.wav,stimulus/audwhere_stim/left_away_270h.wav,stimulus/audwhere_stim/match_blank.png,stimulus/audwhere_stim/match_box.png,stimulus/audwhere_stim/match_yes.png,stimulus/audwhere_stim/match_no.png,1.0,Match,Side,Side,1,5.125,0,5.125,0,5.125,0,5.125,0,0.625,0.625,0,0.0,0,0.0,0,0.0,0,0.0,1,0.5,1,2.125,1,0.5,1,2.125,0,,,,,0,39,39,39,,,,,,,,,365.9608849160004,371.0786575000002,365.9608849160004,365.9608849160004,365.9608849160004,365.9608849160004,366.41757133300007,367.415166625,366.430206249667,367.4235654160002,368.0392481660001,369.03577079100023,368.05055920766677,369.04331770800036,371.0786575000002,371.789939708,373.85307312500026,,371.789939708,371.789939708,376.9547324580003,371.789939708,371.789939708,371.789939708,371.789939708,372.256952875,373.28968191600006,372.2268171666667,,373.85307312500026,374.8890260000003,373.8222374996669,,371.789939708,376.9547324580003,371.789939708,376.9547324580003,376.9962786660003,377.6558392080001,371.789939708,1,1,1.5927997079998022,reldom2_s009,001,2025-01-30_11h47.56.681,Where-B-Scan_AC,2022.2.5,None,
0,0.0,None,fixation,stimulus/audwhere_stim/blank_white.png,stimulus/audwhere_stim/blank_white.png,stimulus/viswhere_stim/blank_white.png,stimulus/viswhere_stim/blank_white.png,stimulus/audwhere_stim/blank_white.png,stimulus/audwhere_stim/blank_white.png,stimulus/audwhere_stim/blank_white.png,stimulus/audwhere_stim/blank_white.png,0.0,0.0,0.0,0.0,0,0.0,0,0.0,0,0.0,0,0.0,0,0.0,0.0,0,0.0,0,0.0,0,0.0,0,0.0,0,0.0,0,0.0,0,0.0,0,0.0,8,,,,,0,40,40,40,,,,,,,,,377.8945802080002,377.8945802080002,377.8945802080002,377.8945802080002,377.8945802080002,377.8945802080002,377.8945802080002,377.8945802080002,377.7891725413334,377.8945802080002,377.8945802080002,377.8945802080002,377.7891725413334,377.8945802080002,377.8945802080002,377.8945802080002,377.8945802080002,377.8945802080002,377.8945802080002,377.8945802080002,377.8945802080002,377.8945802080002,377.8945802080002,377.8945802080002,377.8945802080002,377.8945802080002,377.8945802080002,377.8558392080001,377.8945802080002,377.8945802080002,377.8945802080002,377.8558392080001,377.8945802080002,377.8945802080002,377.8945802080002,377.8945802080002,377.8945802080002,383.09897950000004,383.09897950000004,386.16226133300006,None,0,,reldom2_s009,001,2025-01-30_11h47.56.681,Where-B-Scan_AC,2022.2.5,None,
31,First_Order,6.0,audwhere,stimulus/audwhere_stim/dummy.wav,stimulus/audwhere_stim/dummy.wav,stimulus/audwhere_stim/left_toward_270h.wav,stimulus/audwhere_stim/right_toward_280h.wav,stimulus/audwhere_stim/blank_white.png,stimulus/audwhere_stim/side_box.png,stimulus/audwhere_stim/side_yes.png,stimulus/audwhere_stim/side_no.png,None,Side,None,Direction,2,0.0,0,5.125,0,5.125,0,5.125,0,0.0,0.625,0,0.0,0,0.0,0,0.0,0,0.0,0,0.0,0,0.0,1,0.5,1,2.125,0,,,,,0,41,41,41,,,,,,,,,386.16226133300006,386.16226133300006,386.16226133300006,386.16226133300006,386.16226133300006,386.16226133300006,386.16226133300006,386.16226133300006,386.085310791667,386.16226133300006,386.16226133300006,386.16226133300006,386.085310791667,386.16226133300006,386.16226133300006,386.16226133300006,388.23581945800015,,386.16226133300006,386.16226133300006,391.3439827500001,386.16226133300006,386.16226133300006,386.16226133300006,386.16226133300006,386.636350708,387.6723785000004,386.60575949966665,,388.23581945800015,389.2740895830002,388.2050791666668,,386.16226133300006,391.3439827500001,386.16226133300006,391.3439827500001,391.38577483300014,392.0480130000001,386.16226133300006,2,1,1.4804824589996315,reldom2_s009,001,2025-01-30_11h47.56.681,Where-B-Scan_AC,2022.2.5,None,
32,First_Order,6.0,audwhere,stimulus/audwhere_stim/dummy.wav,stimulus/audwhere_stim/dummy.wav,stimulus/audwhere_stim/right_toward_280h.wav,stimulus/audwhere_stim/left_toward_290h.wav,stimulus/audwhere_stim/blank_white.png,stimulus/audwhere_stim/direction_box.png,stimulus/audwhere_stim/direction_yes.png,stimulus/audwhere_stim/direction_no.png,None,Direction,None,Direction,1,0.0,0,5.125,0,5.125,0,5.125,0,0.0,0.625,0,0.0,0,0.0,0,0.0,0,0.0,0,0.0,0,0.0,1,0.5,1,2.125,0,,,,,0,42,42,42,,,,,,,,,392.268922791,392.268922791,392.268922791,392.268922791,392.268922791,392.268922791,392.268922791,392.268922791,392.1813463333334,392.268922791,392.268922791,392.268922791,392.1813463333334,392.268922791,392.268922791,392.268922791,394.35640245800005,,392.268922791,392.268922791,397.4352596660001,392.268922791,392.268922791,392.268922791,392.268922791,392.74636445800024,393.7894733330004,392.71517162466694,,394.35640245800005,395.39997837500005,394.3254277076669,,392.268922791,397.4352596660001,392.268922791,397.4352596660001,397.4772245830004,398.1455795410002,392.268922791,1,1,1.6881429589998334,reldom2_s009,001,2025-01-30_11h47.56.681,Where-B-Scan_AC,2022.2.5,None,
33,First_Order,6.0,audwhere,stimulus/audwhere_stim/dummy.wav,stimulus/audwhere_stim/dummy.wav,stimulus/audwhere_stim/left_toward_270h.wav,stimulus/audwhere_stim/left_away_300h.wav,stimulus/audwhere_stim/blank_white.png,stimulus/audwhere_stim/side_box.png,stimulus/audwhere_stim/side_yes.png,stimulus/audwhere_stim/side_no.png,None,Side,None,Side,1,0.0,0,5.125,0,5.125,0,5.125,0,0.0,0.625,0,0.0,0,0.0,0,0.0,0,0.0,0,0.0,0,0.0,1,0.5,1,2.125,0,,,,,0,43,43,43,,,,,,,,,398.3629190830002,398.3629190830002,398.3629190830002,398.3629190830002,398.3629190830002,398.3629190830002,398.3629190830002,398.3629190830002,398.2789128743335,398.3629190830002,398.3629190830002,398.3629190830002,398.2789128743335,398.3629190830002,398.3629190830002,398.3629190830002,400.4376328750004,,398.3629190830002,398.3629190830002,403.54437925,398.3629190830002,398.3629190830002,398.3629190830002,398.3629190830002,398.83660854100026,399.8719160410001,398.8057953326668,,400.4376328750004,401.4755905000002,400.4062817076667,,398.3629190830002,403.54437925,398.3629190830002,403.54437925,403.58590737500026,404.251910208,398.3629190830002,1,1,1.4602682909999203,reldom2_s009,001,2025-01-30_11h47.56.681,Where-B-Scan_AC,2022.2.5,None,
34,First_Order,6.0,audwhere,stimulus/audwhere_stim/dummy.wav,stimulus/audwhere_stim/dummy.wav,stimulus/audwhere_stim/right_toward_300h.wav,stimulus/audwhere_stim/left_toward_290h.wav,stimulus/audwhere_stim/blank_white.png,stimulus/audwhere_stim/side_box.png,stimulus/audwhere_stim/side_yes.png,stimulus/audwhere_stim/side_no.png,None,Side,None,Direction,2,0.0,0,5.125,0,5.125,0,5.125,0,0.0,0.625,0,0.0,0,0.0,0,0.0,0,0.0,0,0.0,0,0.0,1,0.5,1,2.125,0,,,,,0,44,44,44,,,,,,,,,404.46962354100015,404.46962354100015,404.46962354100015,404.46962354100015,404.46962354100015,404.46962354100015,404.46962354100015,404.46962354100015,404.38524354133335,404.46962354100015,404.46962354100015,404.46962354100015,404.38524354133335,404.46962354100015,404.46962354100015,404.46962354100015,406.54440220800007,,404.46962354100015,404.46962354100015,409.65120562500033,404.46962354100015,404.46962354100015,404.46962354100015,404.46962354100015,404.94104366600004,405.9769500000002,404.9105022916667,,406.54440220800007,407.5820315830001,406.51297287466673,,404.46962354100015,409.65120562500033,404.46962354100015,409.65120562500033,409.6936920410003,410.35832825000034,404.46962354100015,2,1,1.579637916000138,reldom2_s009,001,2025-01-30_11h47.56.681,Where-B-Scan_AC,2022.2.5,None,
0,0.0,None,fixation,stimulus/audwhere_stim/blank_white.png,stimulus/audwhere_stim/blank_white.png,stimulus/viswhere_stim/blank_white.png,stimulus/viswhere_stim/blank_white.png,stimulus/audwhere_stim/blank_white.png,stimulus/audwhere_stim/blank_white.png,stimulus/audwhere_stim/blank_white.png,stimulus/audwhere_stim/blank_white.png,0.0,0.0,0.0,0.0,0,0.0,0,0.0,0,0.0,0,0.0,0,0.0,0.0,0,0.0,0,0.0,0,0.0,0,0.0,0,0.0,0,0.0,0,0.0,0,0.0,8,,,,,0,45,45,45,,,,,,,,,410.598521333,410.598521333,410.598521333,410.598521333,410.598521333,410.598521333,410.598521333,410.598521333,410.49166158333367,410.598521333,410.598521333,410.598521333,410.49166158333367,410.598521333,410.598521333,410.598521333,410.598521333,410.598521333,410.598521333,410.598521333,410.598521333,410.598521333,410.598521333,410.598521333,410.598521333,410.598521333,410.598521333,410.55832825000033,410.598521333,410.598521333,410.598521333,410.55832825000033,410.598521333,410.598521333,410.598521333,410.598521333,410.598521333,415.8188156250003,415.8188156250003,418.74184029100024,None,0,,reldom2_s009,001,2025-01-30_11h47.56.681,Where-B-Scan_AC,2022.2.5,None,
35,Second_Order,6.0,audwhere,stimulus/audwhere_stim/left_toward_280h.wav,stimulus/audwhere_stim/right_toward_270h.wav,stimulus/audwhere_stim/left_away_300h.wav,stimulus/audwhere_stim/right_away_280h.wav,stimulus/audwhere_stim/match_blank.png,stimulus/audwhere_stim/match_box.png,stimulus/audwhere_stim/match_yes.png,stimulus/audwhere_stim/match_no.png,1.0,Match,Direction,Direction,1,5.125,0,5.125,0,5.125,0,5.125,0,0.75,0.75,0,0.0,0,0.0,0,0.0,0,0.0,1,0.5,1,2.125,1,0.5,1,2.125,0,,,,,0,46,46,46,,,,,,,,,418.74184029100024,423.86257883300004,418.74184029100024,418.74184029100024,418.74184029100024,418.74184029100024,419.18836825000017,420.1867715000003,419.20133491666707,420.1949107080004,420.822089708,421.81224820800026,420.82548724966705,421.8240592080001,423.86257883300004,424.6955282500003,426.76768825,,424.6955282500003,424.6955282500003,429.8734977080003,424.6955282500003,424.6955282500003,424.6955282500003,424.6955282500003,425.16572783300035,426.20095870800014,425.1353493326667,,426.76768825,427.805470625,426.73723470766686,,424.6955282500003,429.8734977080003,424.6955282500003,429.8734977080003,429.8734977080003,,424.6955282500003,1,1,1.6326331249997565,reldom2_s009,001,2025-01-30_11h47.56.681,Where-B-Scan_AC,2022.2.5,None,
36,Second_Order,6.0,audwhere,stimulus/audwhere_stim/left_toward_300h.wav,stimulus/audwhere_stim/right_toward_280h.wav,stimulus/audwhere_stim/left_away_300h.wav,stimulus/audwhere_stim/right_away_300h.wav,stimulus/audwhere_stim/match_blank.png,stimulus/audwhere_stim/match_box.png,stimulus/audwhere_stim/match_yes.png,stimulus/audwhere_stim/match_no.png,1.0,Match,Direction,Direction,1,5.125,0,5.125,0,5.125,0,5.125,0,0.625,0.625,0,0.0,0,0.0,0,0.0,0,0.0,1,0.5,1,2.125,1,0.5,1,2.125,0,,,,,0,47,47,47,,,,,,,,,430.69945454100025,435.8130717500003,430.69945454100025,430.69945454100025,430.69945454100025,430.69945454100025,431.15004320800017,432.148090958,431.1625169166671,432.15643287500006,432.7826030000001,433.7719590830002,432.78632608266685,433.7850464580001,435.8130717500003,436.51898900000015,438.58445466600006,,436.51898900000015,436.51898900000015,441.684697916,436.51898900000015,436.51898900000015,436.51898900000015,436.51898900000015,436.98822445800033,438.02194637499997,436.95771945766705,,438.58445466600006,439.6197566660003,438.554732082667,,436.51898900000015,441.684697916,436.51898900000015,441.684697916,441.7258676250003,442.3880655410003,436.51898900000015,1,1,1.5210222089995113,reldom2_s009,001,2025-01-30_11h47.56.681,Where-B-Scan_AC,2022.2.5,None,
0,0.0,None,fixation,stimulus/audwhere_stim/blank_white.png,stimulus/audwhere_stim/blank_white.png,stimulus/viswhere_stim/blank_white.png,stimulus/viswhere_stim/blank_white.png,stimulus/audwhere_stim/blank_white.png,stimulus/audwhere_stim/blank_white.png,stimulus/audwhere_stim/blank_white.png,stimulus/audwhere_stim/blank_white.png,0.0,0.0,0.0,0.0,0,0.0,0,0.0,0,0.0,0,0.0,0,0.0,0.0,0,0.0,0,0.0,0,0.0,0,0.0,0,0.0,0,0.0,0,0.0,0,0.0,10,,,,,0,48,48,48,,,,,,,,,442.6306264580003,442.6306264580003,442.6306264580003,442.6306264580003,442.6306264580003,442.6306264580003,442.6306264580003,442.6306264580003,442.5213988743336,442.6306264580003,442.6306264580003,442.6306264580003,442.5213988743336,442.6306264580003,442.6306264580003,442.6306264580003,442.6306264580003,442.6306264580003,442.6306264580003,442.6306264580003,442.6306264580003,442.6306264580003,442.6306264580003,442.6306264580003,442.6306264580003,442.6306264580003,442.6306264580003,442.5880655410003,442.6306264580003,442.6306264580003,442.6306264580003,442.5880655410003,442.6306264580003,442.6306264580003,442.6306264580003,442.6306264580003,442.6306264580003,447.82968558300036,447.82968558300036,452.8513713750003,None,0,,reldom2_s009,001,2025-01-30_11h47.56.681,Where-B-Scan_AC,2022.2.5,None,
37,First_Order,7.0,viswhere,stimulus/viswhere_stim/blank_white.png,stimulus/viswhere_stim/blank_white.png,stimulus/viswhere_stim/150-deg_dot-left_turquoise.png,stimulus/viswhere_stim/120-deg_dot-left_mediumslateblue.png,stimulus/viswhere_stim/blank_white.png,stimulus/viswhere_stim/line_box.png,stimulus/viswhere_stim/line_yes.png,stimulus/viswhere_stim/line_no.png,None,Line,None,Dot,2,0.0,0,5.125,0,5.125,0,5.125,0,0.0,0.625,0,0.0,0,0.0,1,0.5,1,2.125,0,0.0,0,0.0,0,0.0,0,0.0,0,,,,,0,49,49,49,,,,,,,,,452.8513713750003,452.8513713750003,452.8513713750003,452.8513713750003,452.8513713750003,452.8513713750003,452.8513713750003,452.8513713750003,452.8233899576668,452.8513713750003,452.8513713750003,452.8513713750003,452.8233899576668,452.8513713750003,452.8513713750003,452.8513713750003,454.9541958330001,458.909424166,452.8513713750003,452.8513713750003,457.9755902080001,453.31880524999997,454.3310929160002,454.9541958330001,455.9696089160002,452.8513713750003,452.8513713750003,452.8400566243335,452.8513713750003,452.8513713750003,452.8513713750003,452.8400566243335,452.8513713750003,452.8513713750003,457.9755902080001,452.8513713750003,457.9755902080001,458.07384600000023,458.7027295830003,452.8513713750003,2,1,1.4223396669999602,reldom2_s009,001,2025-01-30_11h47.56.681,Where-B-Scan_AC,2022.2.5,None,
38,First_Order,7.0,viswhere,stimulus/viswhere_stim/blank_white.png,stimulus/viswhere_stim/blank_white.png,stimulus/viswhere_stim/120-deg_dot-left_mediumslateblue.png,stimulus/viswhere_stim/120-deg_dot-right_seagreen.png,stimulus/viswhere_stim/blank_white.png,stimulus/viswhere_stim/dot_box.png,stimulus/viswhere_stim/dot_yes.png,stimulus/viswhere_stim/dot_no.png,None,Dot,None,Line,2,0.0,0,5.125,0,5.125,0,5.125,0,0.0,0.625,0,0.0,0,0.0,1,0.5,1,2.125,0,0.0,0,0.0,0,0.0,0,0.0,0,,,,,0,50,50,50,,,,,,,,,458.909424166,458.909424166,458.909424166,458.909424166,458.909424166,458.909424166,458.909424166,458.909424166,458.8830262913337,458.909424166,458.909424166,458.909424166,458.8830262913337,458.909424166,458.909424166,458.909424166,461.01492258300004,464.97045429100035,458.909424166,458.909424166,464.0331781250002,459.39298216600037,460.39814370800013,461.01492258300004,462.0229778750004,458.909424166,458.909424166,458.89969295800034,458.909424166,458.909424166,458.909424166,458.89969295800034,458.909424166,458.909424166,464.0331781250002,458.909424166,464.0331781250002,464.1349975000003,464.7664020000002,458.909424166,2,1,1.4055798750000577,reldom2_s009,001,2025-01-30_11h47.56.681,Where-B-Scan_AC,2022.2.5,None,
39,First_Order,7.0,viswhere,stimulus/viswhere_stim/blank_white.png,stimulus/viswhere_stim/blank_white.png,stimulus/viswhere_stim/60-deg_dot-right_salmon.png,stimulus/viswhere_stim/60-deg_dot-left_peru.png,stimulus/viswhere_stim/blank_white.png,stimulus/viswhere_stim/line_box.png,stimulus/viswhere_stim/line_yes.png,stimulus/viswhere_stim/line_no.png,None,Line,None,Line,1,0.0,0,5.125,0,5.125,0,5.125,0,0.0,0.625,0,0.0,0,0.0,1,0.5,1,2.125,0,0.0,0,0.0,0,0.0,0,0.0,0,,,,,0,51,51,51,,,,,,,,,464.97045429100035,464.97045429100035,464.97045429100035,464.97045429100035,464.97045429100035,464.97045429100035,464.97045429100035,464.97045429100035,464.9466658743334,464.97045429100035,464.97045429100035,464.97045429100035,464.9466658743334,464.97045429100035,464.97045429100035,464.97045429100035,467.0865744160001,471.03819920800015,464.97045429100035,464.97045429100035,470.0960038330004,465.45509900000025,466.46391729100014,467.0865744160001,468.09812716600027,464.97045429100035,464.97045429100035,464.96333254100006,464.97045429100035,464.97045429100035,464.97045429100035,464.96333254100006,464.97045429100035,464.97045429100035,470.0960038330004,464.97045429100035,470.0960038330004,470.1930123750003,470.819717416,464.97045429100035,1,1,1.1584222500000578,reldom2_s009,001,2025-01-30_11h47.56.681,Where-B-Scan_AC,2022.2.5,None,
40,First_Order,7.0,viswhere,stimulus/viswhere_stim/blank_white.png,stimulus/viswhere_stim/blank_white.png,stimulus/viswhere_stim/60-deg_dot-right_slateblue.png,stimulus/viswhere_stim/90-deg_dot-right_royalblue.png,stimulus/viswhere_stim/blank_white.png,stimulus/viswhere_stim/dot_box.png,stimulus/viswhere_stim/dot_yes.png,stimulus/viswhere_stim/dot_no.png,None,Dot,None,Dot,1,0.0,0,5.125,0,5.125,0,5.125,0,0.0,0.625,0,0.0,0,0.0,1,0.5,1,2.125,0,0.0,0,0.0,0,0.0,0,0.0,0,,,,,0,52,52,52,,,,,,,,,471.03819920800015,471.03819920800015,471.03819920800015,471.03819920800015,471.03819920800015,471.03819920800015,471.03819920800015,471.03819920800015,471.0138487493335,471.03819920800015,471.03819920800015,471.03819920800015,471.0138487493335,471.03819920800015,471.03819920800015,471.03819920800015,473.1539549160002,477.182617208,471.03819920800015,471.03819920800015,476.17028025000036,471.5236560410003,472.53509083300014,473.1539549160002,474.1678927910002,471.03819920800015,471.03819920800015,471.0305154160001,471.03819920800015,471.03819920800015,471.03819920800015,471.0305154160001,471.03819920800015,471.03819920800015,476.17028025000036,471.03819920800015,476.17028025000036,476.26811916600036,476.8975219580002,471.03819920800015,1,1,1.299978167000063,reldom2_s009,001,2025-01-30_11h47.56.681,Where-B-Scan_AC,2022.2.5,None,
0,0.0,None,fixation,stimulus/audwhere_stim/blank_white.png,stimulus/audwhere_stim/blank_white.png,stimulus/viswhere_stim/blank_white.png,stimulus/viswhere_stim/blank_white.png,stimulus/audwhere_stim/blank_white.png,stimulus/audwhere_stim/blank_white.png,stimulus/audwhere_stim/blank_white.png,stimulus/audwhere_stim/blank_white.png,0.0,0.0,0.0,0.0,0,0.0,0,0.0,0,0.0,0,0.0,0,0.0,0.0,0,0.0,0,0.0,0,0.0,0,0.0,0,0.0,0,0.0,0,0.0,0,0.0,8,,,,,0,53,53,53,,,,,,,,,477.182617208,477.182617208,477.182617208,477.182617208,477.182617208,477.182617208,477.182617208,477.182617208,477.07770241633335,477.182617208,477.182617208,477.182617208,477.07770241633335,477.182617208,477.182617208,477.182617208,477.182617208,477.182617208,477.182617208,477.182617208,477.182617208,477.182617208,477.182617208,477.182617208,477.182617208,477.182617208,477.182617208,477.12770241633336,477.182617208,477.182617208,477.182617208,477.12770241633336,477.182617208,477.182617208,477.182617208,477.182617208,477.182617208,482.4100480410002,482.4100480410002,485.31010104100005,None,0,,reldom2_s009,001,2025-01-30_11h47.56.681,Where-B-Scan_AC,2022.2.5,None,
41,Second_Order,7.0,viswhere,stimulus/viswhere_stim/60-deg_dot-right_seagreen.png,stimulus/viswhere_stim/30-deg_dot-right_mediumslateblue.png,stimulus/viswhere_stim/60-deg_dot-left_mediumslateblue.png,stimulus/viswhere_stim/150-deg_dot-left_salmon.png,stimulus/audwhere_stim/match_blank.png,stimulus/audwhere_stim/match_box.png,stimulus/audwhere_stim/match_yes.png,stimulus/audwhere_stim/match_no.png,1.0,Match,Dot,Dot,1,5.125,0,5.125,0,5.125,0,5.125,0,0.75,0.75,1,0.5,1,2.125,1,0.5,1,2.125,0,0.0,0,0.0,0,0.0,0,0.0,0,,,,,0,54,54,54,,,,,,,,,485.31010104100005,490.43236512500016,485.79241012500006,486.7906285410004,487.41364004100024,488.411058875,485.31010104100005,485.31010104100005,485.32166379133344,485.31010104100005,485.31010104100005,485.31010104100005,485.32166379133344,485.31010104100005,490.43236512500016,491.2149998750001,493.30977520800025,497.19908058300007,491.2149998750001,491.2149998750001,496.3476950000004,491.68496591600024,492.70456066600036,493.30977520800025,494.3301676660003,491.2149998750001,491.2149998750001,491.20082762433367,491.2149998750001,491.2149998750001,491.2149998750001,491.20082762433367,491.2149998750001,491.2149998750001,496.3476950000004,491.2149998750001,496.3476950000004,496.4191107910001,497.19908058300007,491.2149998750001,1,1,1.3262717920001705,reldom2_s009,001,2025-01-30_11h47.56.681,Where-B-Scan_AC,2022.2.5,None,
42,Second_Order,7.0,viswhere,stimulus/viswhere_stim/90-deg_dot-right_goldenrod.png,stimulus/viswhere_stim/120-deg_dot-right_mediumslateblue.png,stimulus/viswhere_stim/60-deg_dot-right_peru.png,stimulus/viswhere_stim/60-deg_dot-left_mediumslateblue.png,stimulus/audwhere_stim/match_blank.png,stimulus/audwhere_stim/match_box.png,stimulus/audwhere_stim/match_yes.png,stimulus/audwhere_stim/match_no.png,2.0,Match,Dot,Line,2,5.125,0,5.125,0,5.125,0,5.125,0,0.625,0.625,1,0.5,1,2.125,1,0.5,1,2.125,0,0.0,0,0.0,0,0.0,0,0.0,0,,,,,0,55,55,55,,,,,,,,,497.19908058300007,502.31467220800005,497.68238150000025,498.67147550000027,499.308484916,500.30553587500026,497.19908058300007,497.19908058300007,497.2109378330004,497.19908058300007,497.19908058300007,497.19908058300007,497.2109378330004,497.19908058300007,502.31467220800005,502.971225583,505.0703745830001,509.1025380830001,502.971225583,502.971225583,508.10572545800005,503.4372692080001,504.4494492910003,505.0703745830001,506.0825790830004,502.971225583,502.971225583,502.9615860833337,502.971225583,502.971225583,502.971225583,502.9615860833337,502.971225583,502.971225583,508.10572545800005,502.971225583,508.10572545800005,508.18923112500033,508.81821312500006,502.971225583,2,1,1.4490394169997671,reldom2_s009,001,2025-01-30_11h47.56.681,Where-B-Scan_AC,2022.2.5,None,
0,0.0,None,fixation,stimulus/audwhere_stim/blank_white.png,stimulus/audwhere_stim/blank_white.png,stimulus/viswhere_stim/blank_white.png,stimulus/viswhere_stim/blank_white.png,stimulus/audwhere_stim/blank_white.png,stimulus/audwhere_stim/blank_white.png,stimulus/audwhere_stim/blank_white.png,stimulus/audwhere_stim/blank_white.png,0.0,0.0,0.0,0.0,0,0.0,0,0.0,0,0.0,0,0.0,0,0.0,0.0,0,0.0,0,0.0,0,0.0,0,0.0,0,0.0,0,0.0,0,0.0,0,0.0,8,,,,,0,56,56,56,,,,,,,,,509.1025380830001,509.1025380830001,509.1025380830001,509.1025380830001,509.1025380830001,509.1025380830001,509.1025380830001,509.1025380830001,508.9984183333334,509.1025380830001,509.1025380830001,509.1025380830001,508.9984183333334,509.1025380830001,509.1025380830001,509.1025380830001,509.1025380830001,509.1025380830001,509.1025380830001,509.1025380830001,509.1025380830001,509.1025380830001,509.1025380830001,509.1025380830001,509.1025380830001,509.1025380830001,509.1025380830001,509.0484183333334,509.1025380830001,509.1025380830001,509.1025380830001,509.0484183333334,509.1025380830001,509.1025380830001,509.1025380830001,509.1025380830001,509.1025380830001,514.3155100000004,514.3155100000004,517.2833183750004,None,0,,reldom2_s009,001,2025-01-30_11h47.56.681,Where-B-Scan_AC,2022.2.5,None,
43,First_Order,8.0,viswhere,stimulus/viswhere_stim/blank_white.png,stimulus/viswhere_stim/blank_white.png,stimulus/viswhere_stim/120-deg_dot-left_lightsseagreen.png,stimulus/viswhere_stim/120-deg_dot-right_royalblue.png,stimulus/viswhere_stim/blank_white.png,stimulus/viswhere_stim/line_box.png,stimulus/viswhere_stim/line_yes.png,stimulus/viswhere_stim/line_no.png,None,Line,None,Line,1,0.0,0,5.125,0,5.125,0,5.125,0,0.0,0.625,0,0.0,0,0.0,1,0.5,1,2.125,0,0.0,0,0.0,0,0.0,0,0.0,0,,,,,0,57,57,57,,,,,,,,,517.2833183750004,517.2833183750004,517.2833183750004,517.2833183750004,517.2833183750004,517.2833183750004,517.2833183750004,517.2833183750004,517.257477457667,517.2833183750004,517.2833183750004,517.2833183750004,517.257477457667,517.2833183750004,517.2833183750004,517.2833183750004,519.3951762910001,523.3476665000003,517.2833183750004,517.2833183750004,522.4056041660001,517.7680513750001,518.7770837500002,519.3951762910001,520.4076298330001,517.2833183750004,517.2833183750004,517.2741441243337,517.2833183750004,517.2833183750004,517.2833183750004,517.2741441243337,517.2833183750004,517.2833183750004,522.4056041660001,517.2833183750004,522.4056041660001,522.502833125,523.1282706660004,517.2833183750004,1,1,1.830745583999942,reldom2_s009,001,2025-01-30_11h47.56.681,Where-B-Scan_AC,2022.2.5,None,
44,First_Order,8.0,viswhere,stimulus/viswhere_stim/blank_white.png,stimulus/viswhere_stim/blank_white.png,stimulus/viswhere_stim/60-deg_dot-right_peru.png,stimulus/viswhere_stim/90-deg_dot-right_turquoise.png,stimulus/viswhere_stim/blank_white.png,stimulus/viswhere_stim/dot_box.png,stimulus/viswhere_stim/dot_yes.png,stimulus/viswhere_stim/dot_no.png,None,Dot,None,Dot,1,0.0,0,5.125,0,5.125,0,5.125,0,0.0,0.625,0,0.0,0,0.0,1,0.5,1,2.125,0,0.0,0,0.0,0,0.0,0,0.0,0,,,,,0,58,58,58,,,,,,,,,523.3476665000003,523.3476665000003,523.3476665000003,523.3476665000003,523.3476665000003,523.3476665000003,523.3476665000003,523.3476665000003,523.3239401663335,523.3476665000003,523.3476665000003,523.3476665000003,523.3239401663335,523.3476665000003,523.3476665000003,523.3476665000003,525.4454651660003,529.4157185410004,523.3476665000003,523.3476665000003,528.4860637080001,523.8338210000002,524.8455022500002,525.4454651660003,526.4622159160003,523.3476665000003,523.3476665000003,523.3406068330002,523.3476665000003,523.3476665000003,523.3476665000003,523.3406068330002,523.3476665000003,523.3476665000003,528.4860637080001,523.3476665000003,528.4860637080001,528.5694583330001,529.1961322500001,523.3476665000003,1,1,0.9307178750000276,reldom2_s009,001,2025-01-30_11h47.56.681,Where-B-Scan_AC,2022.2.5,None,
45,First_Order,8.0,viswhere,stimulus/viswhere_stim/blank_white.png,stimulus/viswhere_stim/blank_white.png,stimulus/viswhere_stim/150-deg_dot-right_lightsseagreen.png,stimulus/viswhere_stim/150-deg_dot-left_royalblue.png,stimulus/viswhere_stim/blank_white.png,stimulus/viswhere_stim/dot_box.png,stimulus/viswhere_stim/dot_yes.png,stimulus/viswhere_stim/dot_no.png,None,Dot,None,Line,2,0.0,0,5.125,0,5.125,0,5.125,0,0.0,0.625,0,0.0,0,0.0,1,0.5,1,2.125,0,0.0,0,0.0,0,0.0,0,0.0,0,,,,,0,59,59,59,,,,,,,,,529.4157185410004,529.4157185410004,529.4157185410004,529.4157185410004,529.4157185410004,529.4157185410004,529.4157185410004,529.4157185410004,529.3903405833333,529.4157185410004,529.4157185410004,529.4157185410004,529.3903405833333,529.4157185410004,529.4157185410004,529.4157185410004,531.515595416,535.4849839580002,529.4157185410004,529.4157185410004,534.5472183330003,529.9057149580003,530.9093155830001,531.515595416,532.52320925,529.4157185410004,529.4157185410004,529.40700725,529.4157185410004,529.4157185410004,529.4157185410004,529.40700725,529.4157185410004,529.4157185410004,534.5472183330003,529.4157185410004,534.5472183330003,534.6504595830002,535.2740155830002,529.4157185410004,2,1,1.1506417909995434,reldom2_s009,001,2025-01-30_11h47.56.681,Where-B-Scan_AC,2022.2.5,None,
46,First_Order,8.0,viswhere,stimulus/viswhere_stim/blank_white.png,stimulus/viswhere_stim/blank_white.png,stimulus/viswhere_stim/30-deg_dot-left_salmon.png,stimulus/viswhere_stim/150-deg_dot-left_turquoise.png,stimulus/viswhere_stim/blank_white.png,stimulus/viswhere_stim/line_box.png,stimulus/viswhere_stim/line_yes.png,stimulus/viswhere_stim/line_no.png,None,Line,None,Dot,2,0.0,0,5.125,0,5.125,0,5.125,0,0.0,0.625,0,0.0,0,0.0,1,0.5,1,2.125,0,0.0,0,0.0,0,0.0,0,0.0,0,,,,,0,60,60,60,,,,,,,,,535.4849839580002,535.4849839580002,535.4849839580002,535.4849839580002,535.4849839580002,535.4849839580002,535.4849839580002,535.4849839580002,535.4607938743337,535.4849839580002,535.4849839580002,535.4849839580002,535.4607938743337,535.4849839580002,535.4849839580002,535.4849839580002,537.5828394160003,541.6290308750004,535.4849839580002,535.4849839580002,540.614238958,535.9751007910004,536.9959571660002,537.5828394160003,538.5898257080003,535.4849839580002,535.4849839580002,535.4774605410004,535.4849839580002,535.4849839580002,535.4849839580002,535.4774605410004,535.4849839580002,535.4849839580002,540.614238958,535.4849839580002,540.614238958,540.711406333,541.3464385000002,535.4849839580002,2,1,1.3516170419998161,reldom2_s009,001,2025-01-30_11h47.56.681,Where-B-Scan_AC,2022.2.5,None,
0,0.0,None,fixation,stimulus/audwhere_stim/blank_white.png,stimulus/audwhere_stim/blank_white.png,stimulus/viswhere_stim/blank_white.png,stimulus/viswhere_stim/blank_white.png,stimulus/audwhere_stim/blank_white.png,stimulus/audwhere_stim/blank_white.png,stimulus/audwhere_stim/blank_white.png,stimulus/audwhere_stim/blank_white.png,0.0,0.0,0.0,0.0,0,0.0,0,0.0,0,0.0,0,0.0,0,0.0,0.0,0,0.0,0,0.0,0,0.0,0,0.0,0,0.0,0,0.0,0,0.0,0,0.0,9,,,,,0,61,61,61,,,,,,,,,541.6290308750004,541.6290308750004,541.6290308750004,541.6290308750004,541.6290308750004,541.6290308750004,541.6290308750004,541.6290308750004,541.5266765833334,541.6290308750004,541.6290308750004,541.6290308750004,541.5266765833334,541.6290308750004,541.6290308750004,541.6290308750004,541.6290308750004,541.6290308750004,541.6290308750004,541.6290308750004,541.6290308750004,541.6290308750004,541.6290308750004,541.6290308750004,541.6290308750004,541.6290308750004,541.6290308750004,541.5766765833333,541.6290308750004,541.6290308750004,541.6290308750004,541.5766765833333,541.6290308750004,541.6290308750004,541.6290308750004,541.6290308750004,541.6290308750004,546.8550916660001,546.8550916660001,550.7864262910002,None,0,,reldom2_s009,001,2025-01-30_11h47.56.681,Where-B-Scan_AC,2022.2.5,None,
47,Second_Order,8.0,viswhere,stimulus/viswhere_stim/90-deg_dot-left_lightsseagreen.png,stimulus/viswhere_stim/120-deg_dot-left_royalblue.png,stimulus/viswhere_stim/30-deg_dot-right_mediumslateblue.png,stimulus/viswhere_stim/60-deg_dot-right_lightsseagreen.png,stimulus/audwhere_stim/match_blank.png,stimulus/audwhere_stim/match_box.png,stimulus/audwhere_stim/match_yes.png,stimulus/audwhere_stim/match_no.png,1.0,Match,Dot,Dot,1,5.125,0,5.125,0,5.125,0,5.125,0,0.75,0.75,1,0.5,1,2.125,1,0.5,1,2.125,0,0.0,0,0.0,0,0.0,0,0.0,0,,,,,0,62,62,62,,,,,,,,,550.7864262910002,555.9052446250003,551.2599627080003,552.258661375,552.8929792500003,553.8826199580003,550.7864262910002,550.7864262910002,550.7979675833336,550.7864262910002,550.7864262910002,550.7864262910002,550.7979675833336,550.7864262910002,555.9052446250003,556.6829098330004,558.7701407080003,562.6692017080004,556.6829098330004,556.6829098330004,561.8155565410002,557.150688875,558.1650797910002,558.7701407080003,559.7877932910001,556.6829098330004,556.6829098330004,556.6717669993336,556.6829098330004,556.6829098330004,556.6829098330004,556.6717669993336,556.6829098330004,556.6829098330004,561.8155565410002,556.6829098330004,561.8155565410002,561.8987942910003,562.6692017080004,556.6829098330004,1,1,1.3577230840000993,reldom2_s009,001,2025-01-30_11h47.56.681,Where-B-Scan_AC,2022.2.5,None,
48,Second_Order,8.0,viswhere,stimulus/viswhere_stim/60-deg_dot-left_seagreen.png,stimulus/viswhere_stim/90-deg_dot-left_peru.png,stimulus/viswhere_stim/30-deg_dot-right_turquoise.png,stimulus/viswhere_stim/30-deg_dot-left_lightsseagreen.png,stimulus/audwhere_stim/match_blank.png,stimulus/audwhere_stim/match_box.png,stimulus/audwhere_stim/match_yes.png,stimulus/audwhere_stim/match_no.png,2.0,Match,Dot,Line,2,5.125,0,5.125,0,5.125,0,5.125,0,0.625,0.625,1,0.5,1,2.125,1,0.5,1,2.125,0,0.0,0,0.0,0,0.0,0,0.0,0,,,,,0,63,63,63,,,,,,,,,562.6692017080004,567.7819531250002,563.1541528330004,564.152405458,564.776379166,565.773027875,562.6692017080004,562.6692017080004,562.6814846250002,562.6692017080004,562.6692017080004,562.6692017080004,562.6814846250002,562.6692017080004,567.7819531250002,568.4371862910002,570.5420131660003,574.5798843750003,568.4371862910002,568.4371862910002,573.5672066250004,568.904377625,569.9180025000001,570.5420131660003,571.5599649580004,568.4371862910002,568.4371862910002,568.4293962493334,568.4371862910002,568.4371862910002,568.4371862910002,568.4293962493334,568.4371862910002,568.4371862910002,573.5672066250004,568.4371862910002,573.5672066250004,573.6514503330004,574.277161041,568.4371862910002,2,1,1.0426727919998484,reldom2_s009,001,2025-01-30_11h47.56.681,Where-B-Scan_AC,2022.2.5,None,
0,0.0,None,fixation,stimulus/audwhere_stim/blank_white.png,stimulus/audwhere_stim/blank_white.png,stimulus/viswhere_stim/blank_white.png,stimulus/viswhere_stim/blank_white.png,stimulus/audwhere_stim/blank_white.png,stimulus/audwhere_stim/blank_white.png,stimulus/audwhere_stim/blank_white.png,stimulus/audwhere_stim/blank_white.png,0.0,0.0,0.0,0.0,0,0.0,0,0.0,0,0.0,0,0.0,0,0.0,0.0,0,0.0,0,0.0,0,0.0,0,0.0,0,0.0,0,0.0,0,0.0,0,0.0,16,,,,,0,64,64,64,,,,,,,,,574.5798843750003,574.5798843750003,574.5798843750003,574.5798843750003,574.5798843750003,574.5798843750003,574.5798843750003,574.5798843750003,574.4732870833335,574.5798843750003,574.5798843750003,574.5798843750003,574.4732870833335,574.5798843750003,574.5798843750003,574.5798843750003,574.5798843750003,574.5798843750003,574.5798843750003,574.5798843750003,574.5798843750003,574.5798843750003,574.5798843750003,574.5798843750003,574.5798843750003,574.5798843750003,574.5798843750003,574.5399537500001,574.5798843750003,574.5798843750003,574.5798843750003,574.5399537500001,574.5798843750003,574.5798843750003,574.5798843750003,574.5798843750003,574.5798843750003,579.796999875,579.796999875,590.7180601250002,None,0,,reldom2_s009,001,2025-01-30_11h47.56.681,Where-B-Scan_AC,2022.2.5,None,
