Trial,Order,Block,Type,Stimuli_File1,Stimuli_File2,Stimuli_File3,Stimuli_File4,Cue_File1,Cue_File2,Response_File_Yes,Response_File_No,Match,Cue_Dimension,Pair1_Dimension,Pair2_Dimension,Key,Cue1_Duration,Cue1_Onset,Cue2_Duration,Cue2_Onset,ResponseYes_Duration,ResponseYes_Onset,ResponseNo_Duration,ResponseNo_Onset,ITI_Within,ITI_Between,Image1_Duration,Image1_Onset,Image2_Duration,Image2_Onset,Image3_Duration,Image3_Onset,Image4_Duration,Image4_Onset,Sound1_Duration,Sound1_Onset,Sound2_Duration,Sound2_Onset,Sound3_Duration,Sound3_Onset,Sound4_Duration,Sound4_Onset,Fixation_Duration,trials_2.thisRepN,trials_2.thisTrialN,trials_2.thisN,trials_2.thisIndex,trials.thisRepN,trials.thisTrialN,trials.thisN,trials.thisIndex,text_start.started,key_resp_start.started,key_resp_start.keys,key_resp_start.rt,text2.started,key_resp_2.started,key_resp_2.keys,key_resp_2.rt,cue_file1.started,cue_file1.stopped,image_1.started,image_1.stopped,image_2.started,image_2.stopped,sound_icon1.started,sound_icon1.stopped,sound_1.started,sound_1.stopped,sound_icon2.started,sound_icon2.stopped,sound_2.started,sound_2.stopped,image_blank_1.started,image_blank_1.stopped,key_press.started,key_press.stopped,fixation_text.started,cue_file2.started,cue_file2.stopped,image_3.started,image_3.stopped,image_4.started,image_4.stopped,sound_icon3.started,sound_icon3.stopped,sound_3.started,sound_3.stopped,sound_icon4.started,sound_icon4.stopped,sound_4.started,sound_4.stopped,response_yes.started,response_yes.stopped,response_no.started,response_no.stopped,iti_blank.started,iti_blank.stopped,fixation_text.stopped,key_press.keys,key_press.corr,key_press.rt,participant,session,date,expName,psychopyVersion,frameRate,
,,,,,,,,,,,,,,,,,,,,,,,,,,,,,,,,,,,,,,,,,,,,,,,,,,,,8.716964499999904,8.716964499999904,2,1.1540047910002613,,,,,,,,,,,,,,,,,,,,,,,,,,,,,,,,,,,,,,,,,,,,,,,,reldom2_s009,001,2025-01-30_12h10.08.479,Vis-B-Scan_AC,2022.2.5,None,
,,,,,,,,,,,,,,,,,,,,,,,,,,,,,,,,,,,,,,,,,,,,0,0,0,0,,,,,,,,,9.89250554199998,9.89250554199998,5,18.911291040999913,,,,,,,,,,,,,,,,,,,,,,,,,,,,,,,,,,,,,,,,,,,,reldom2_s009,001,2025-01-30_12h10.08.479,Vis-B-Scan_AC,2022.2.5,None,
,,,,,,,,,,,,,,,,,,,,,,,,,,,,,,,,,,,,,,,,,,,,1,0,1,0,,,,,,,,,28.81839725000009,28.81839725000009,5,1.9841594989998157,,,,,,,,,,,,,,,,,,,,,,,,,,,,,,,,,,,,,,,,,,,,reldom2_s009,001,2025-01-30_12h10.08.479,Vis-B-Scan_AC,2022.2.5,None,
,,,,,,,,,,,,,,,,,,,,,,,,,,,,,,,,,,,,,,,,,,,,2,0,2,0,,,,,,,,,30.815044166999996,30.815044166999996,5,1.9873615409997,,,,,,,,,,,,,,,,,,,,,,,,,,,,,,,,,,,,,,,,,,,,reldom2_s009,001,2025-01-30_12h10.08.479,Vis-B-Scan_AC,2022.2.5,None,
,,,,,,,,,,,,,,,,,,,,,,,,,,,,,,,,,,,,,,,,,,,,3,0,3,0,,,,,,,,,32.81158054200023,32.81158054200023,5,1.9924132490000375,,,,,,,,,,,,,,,,,,,,,,,,,,,,,,,,,,,,,,,,,,,,reldom2_s009,001,2025-01-30_12h10.08.479,Vis-B-Scan_AC,2022.2.5,None,
0,0.0,None,fixation,stimulus/viswhere_stim/blank_white.png,stimulus/viswhere_stim/blank_white.png,stimulus/viswhat_stim/blank_white.png,stimulus/viswhat_stim/blank_white.png,stimulus/viswhere_stim/blank_white.png,stimulus/viswhere_stim/blank_white.png,stimulus/viswhere_stim/blank_white.png,stimulus/viswhere_stim/blank_white.png,0.0,0.0,0.0,0.0,0,0.0,0,0.0,0,0.0,0,0.0,0,0.0,0.0,0,0.0,0,0.0,0,0.0,0,0.0,0,0,0,0,0,0,0,0,16,,,,,0,0,0,0,,,,,,,,,35.00516445899984,35.00516445899984,35.00516445899984,35.00516445899984,35.00516445899984,35.00516445899984,35.00516445899984,35.00516445899984,34.9081525839998,35.00516445899984,35.00516445899984,35.00516445899984,34.9081525839998,35.00516445899984,35.00516445899984,35.00516445899984,35.00516445899984,35.00516445899984,35.00516445899984,35.00516445899984,35.00516445899984,35.00516445899984,35.00516445899984,35.00516445899984,35.00516445899984,35.00516445899984,35.00516445899984,34.9581525839998,35.00516445899984,35.00516445899984,35.00516445899984,34.9581525839998,35.00516445899984,35.00516445899984,35.00516445899984,35.00516445899984,35.00516445899984,40.17913279200002,40.17913279200002,51.18866708399992,None,0,,reldom2_s009,001,2025-01-30_12h10.08.479,Vis-B-Scan_AC,2022.2.5,None,
1,First_Order,1.0,viswhere,stimulus/viswhere_stim/blank_white.png,stimulus/viswhere_stim/blank_white.png,stimulus/viswhere_stim/150-deg_dot-left_royalblue.png,stimulus/viswhere_stim/150-deg_dot-right_peru.png,stimulus/viswhere_stim/blank_white.png,stimulus/viswhere_stim/dot_box.png,stimulus/viswhere_stim/dot_yes.png,stimulus/viswhere_stim/dot_no.png,None,Dot,None,Line,2,0.0,0,5.125,0,5.125,0,5.125,0,0.0,0.625,0,0.0,0,0.0,1,0.5,1,2.125,0,0,0,0,0,0,0,0,0,,,,,0,1,1,1,,,,,,,,,51.18866708399992,51.18866708399992,51.18866708399992,51.18866708399992,51.18866708399992,51.18866708399992,51.18866708399992,51.18866708399992,51.16508791700007,51.18866708399992,51.18866708399992,51.18866708399992,51.16508791700007,51.18866708399992,51.18866708399992,51.18866708399992,53.292669916999785,57.257496333999825,51.18866708399992,51.18866708399992,56.314039542000046,51.67222774999982,52.67505591700001,53.292669916999785,54.30045562499981,51.18866708399992,51.18866708399992,51.18175458366674,51.18866708399992,51.18866708399992,51.18866708399992,51.18175458366674,51.18866708399992,51.18866708399992,56.314039542000046,51.18866708399992,56.314039542000046,56.412299459000224,57.0421980000001,51.18866708399992,2,1,1.2404993320001267,reldom2_s009,001,2025-01-30_12h10.08.479,Vis-B-Scan_AC,2022.2.5,None,
2,First_Order,1.0,viswhere,stimulus/viswhere_stim/blank_white.png,stimulus/viswhere_stim/blank_white.png,stimulus/viswhere_stim/30-deg_dot-left_salmon.png,stimulus/viswhere_stim/30-deg_dot-right_seagreen.png,stimulus/viswhere_stim/blank_white.png,stimulus/viswhere_stim/dot_box.png,stimulus/viswhere_stim/dot_yes.png,stimulus/viswhere_stim/dot_no.png,None,Dot,None,Line,2,0.0,0,5.125,0,5.125,0,5.125,0,0.0,0.625,0,0.0,0,0.0,1,0.5,1,2.125,0,0,0,0,0,0,0,0,0,,,,,0,2,2,2,,,,,,,,,57.257496333999825,57.257496333999825,57.257496333999825,57.257496333999825,57.257496333999825,57.257496333999825,57.257496333999825,57.257496333999825,57.236313708333306,57.257496333999825,57.257496333999825,57.257496333999825,57.236313708333306,57.257496333999825,57.257496333999825,57.257496333999825,59.36283787499997,63.3251235419998,57.257496333999825,57.257496333999825,62.379879874999915,57.73583291700015,58.7492740419998,59.36283787499997,60.36446491700008,57.257496333999825,57.257496333999825,57.25298037499997,57.257496333999825,57.257496333999825,57.257496333999825,57.25298037499997,57.257496333999825,57.257496333999825,62.379879874999915,57.257496333999825,62.379879874999915,62.475649459000124,63.1085445839999,57.257496333999825,2,1,1.0289362499997878,reldom2_s009,001,2025-01-30_12h10.08.479,Vis-B-Scan_AC,2022.2.5,None,
3,First_Order,1.0,viswhere,stimulus/viswhere_stim/blank_white.png,stimulus/viswhere_stim/blank_white.png,stimulus/viswhere_stim/120-deg_dot-left_goldenrod.png,stimulus/viswhere_stim/30-deg_dot-left_slateblue.png,stimulus/viswhere_stim/blank_white.png,stimulus/viswhere_stim/dot_box.png,stimulus/viswhere_stim/dot_yes.png,stimulus/viswhere_stim/dot_no.png,None,Dot,None,Dot,1,0.0,0,5.125,0,5.125,0,5.125,0,0.0,0.625,0,0.0,0,0.0,1,0.5,1,2.125,0,0,0,0,0,0,0,0,0,,,,,0,3,3,3,,,,,,,,,63.3251235419998,63.3251235419998,63.3251235419998,63.3251235419998,63.3251235419998,63.3251235419998,63.3251235419998,63.3251235419998,63.303315167333345,63.3251235419998,63.3251235419998,63.3251235419998,63.303315167333345,63.3251235419998,63.3251235419998,63.3251235419998,65.4379910839998,69.39741999999978,63.3251235419998,63.3251235419998,68.46030574999986,63.80460200000016,64.82400899999993,65.4379910839998,66.44056425000008,63.3251235419998,63.3251235419998,63.31998183400001,63.3251235419998,63.3251235419998,63.3251235419998,63.31998183400001,63.3251235419998,63.3251235419998,68.46030574999986,63.3251235419998,68.46030574999986,68.54302704200018,69.177499292,63.3251235419998,1,1,1.003183123999861,reldom2_s009,001,2025-01-30_12h10.08.479,Vis-B-Scan_AC,2022.2.5,None,
4,First_Order,1.0,viswhere,stimulus/viswhere_stim/blank_white.png,stimulus/viswhere_stim/blank_white.png,stimulus/viswhere_stim/150-deg_dot-right_royalblue.png,stimulus/viswhere_stim/30-deg_dot-right_salmon.png,stimulus/viswhere_stim/blank_white.png,stimulus/viswhere_stim/line_box.png,stimulus/viswhere_stim/line_yes.png,stimulus/viswhere_stim/line_no.png,None,Line,None,Dot,2,0.0,0,5.125,0,5.125,0,5.125,0,0.0,0.625,0,0.0,0,0.0,1,0.5,1,2.125,0,0,0,0,0,0,0,0,0,,,,,0,4,4,4,,,,,,,,,69.39741999999978,69.39741999999978,69.39741999999978,69.39741999999978,69.39741999999978,69.39741999999978,69.39741999999978,69.39741999999978,69.37264270833323,69.39741999999978,69.39741999999978,69.39741999999978,69.37264270833323,69.39741999999978,69.39741999999978,69.39741999999978,71.49861312499979,75.53426524999986,69.39741999999978,69.39741999999978,74.5215740839999,69.88470629199992,70.89653429200007,71.49861312499979,72.51484941699982,69.39741999999978,69.39741999999978,69.3893093749999,69.39741999999978,69.39741999999978,69.39741999999978,69.3893093749999,69.39741999999978,69.39741999999978,74.5215740839999,69.39741999999978,74.5215740839999,74.61862533400017,75.25359724999998,69.39741999999978,2,1,1.2951279159997284,reldom2_s009,001,2025-01-30_12h10.08.479,Vis-B-Scan_AC,2022.2.5,None,
0,0.0,None,fixation,stimulus/viswhere_stim/blank_white.png,stimulus/viswhere_stim/blank_white.png,stimulus/viswhat_stim/blank_white.png,stimulus/viswhat_stim/blank_white.png,stimulus/viswhere_stim/blank_white.png,stimulus/viswhere_stim/blank_white.png,stimulus/viswhere_stim/blank_white.png,stimulus/viswhere_stim/blank_white.png,0.0,0.0,0.0,0.0,0,0.0,0,0.0,0,0.0,0,0.0,0,0.0,0.0,0,0.0,0,0.0,0,0.0,0,0.0,0,0,0,0,0,0,0,0,9,,,,,0,5,5,5,,,,,,,,,75.53426524999986,75.53426524999986,75.53426524999986,75.53426524999986,75.53426524999986,75.53426524999986,75.53426524999986,75.53426524999986,75.43421437533318,75.53426524999986,75.53426524999986,75.53426524999986,75.43421437533318,75.53426524999986,75.53426524999986,75.53426524999986,75.53426524999986,75.53426524999986,75.53426524999986,75.53426524999986,75.53426524999986,75.53426524999986,75.53426524999986,75.53426524999986,75.53426524999986,75.53426524999986,75.53426524999986,75.48421437533318,75.53426524999986,75.53426524999986,75.53426524999986,75.48421437533318,75.53426524999986,75.53426524999986,75.53426524999986,75.53426524999986,75.53426524999986,80.75311629199996,80.75311629199996,84.64519733399993,None,0,,reldom2_s009,001,2025-01-30_12h10.08.479,Vis-B-Scan_AC,2022.2.5,None,
5,Second_Order,1.0,viswhere,stimulus/viswhere_stim/90-deg_dot-left_mediumslateblue.png,stimulus/viswhere_stim/30-deg_dot-left_slateblue.png,stimulus/viswhere_stim/90-deg_dot-left_royalblue.png,stimulus/viswhere_stim/90-deg_dot-right_goldenrod.png,stimulus/viswhere_stim/match_blank.png,stimulus/viswhere_stim/match_box.png,stimulus/viswhere_stim/match_yes.png,stimulus/viswhere_stim/match_no.png,2.0,Match,Dot,Line,2,5.125,0,5.125,0,5.125,0,5.125,0,0.75,0.75,1,0.5,1,2.125,1,0.5,1,2.125,0,0,0,0,0,0,0,0,0,,,,,0,6,6,6,,,,,,,,,84.64519733399993,89.76873220900006,85.1287471669998,86.12671745899979,86.74978554200015,87.7472648339999,84.64519733399993,84.64519733399993,84.65662029233329,84.64519733399993,84.64519733399993,84.64519733399993,84.65662029233329,84.64519733399993,89.76873220900006,90.55256954200013,92.63351029200021,96.53159933400002,90.55256954200013,90.55256954200013,95.69810716700022,91.02122416700013,92.03221325000004,92.63351029200021,93.65349583399984,90.55256954200013,90.55256954200013,90.53699320833314,90.55256954200013,90.55256954200013,90.55256954200013,90.53699320833314,90.55256954200013,90.55256954200013,95.69810716700022,90.55256954200013,95.69810716700022,95.75622979199989,96.53159933400002,90.55256954200013,2,1,1.308129124000061,reldom2_s009,001,2025-01-30_12h10.08.479,Vis-B-Scan_AC,2022.2.5,None,
6,Second_Order,1.0,viswhere,stimulus/viswhere_stim/30-deg_dot-right_turquoise.png,stimulus/viswhere_stim/30-deg_dot-left_goldenrod.png,stimulus/viswhere_stim/60-deg_dot-left_salmon.png,stimulus/viswhere_stim/60-deg_dot-right_slateblue.png,stimulus/viswhere_stim/match_blank.png,stimulus/viswhere_stim/match_box.png,stimulus/viswhere_stim/match_yes.png,stimulus/viswhere_stim/match_no.png,1.0,Match,Line,Line,1,5.125,0,5.125,0,5.125,0,5.125,0,0.625,0.625,1,0.5,1,2.125,1,0.5,1,2.125,0,0,0,0,0,0,0,0,0,,,,,0,7,7,7,,,,,,,,,96.53159933400002,101.65136666699982,97.0060141670001,98.00393750000012,98.63911987500023,99.62796320899997,96.53159933400002,96.53159933400002,96.54386491699988,96.53159933400002,96.53159933400002,96.53159933400002,96.54386491699988,96.53159933400002,101.65136666699982,102.30697691700016,104.3948597919998,108.4339073340002,102.30697691700016,102.30697691700016,107.44517595900015,102.7701887090002,103.7772736249999,104.3948597919998,105.40725845899988,102.30697691700016,102.30697691700016,102.29739108333345,102.30697691700016,102.30697691700016,102.30697691700016,102.29739108333345,102.30697691700016,102.30697691700016,107.44517595900015,102.30697691700016,107.44517595900015,107.5193697499999,108.1507997499998,102.30697691700016,1,1,2.147555707000265,reldom2_s009,001,2025-01-30_12h10.08.479,Vis-B-Scan_AC,2022.2.5,None,
0,0.0,None,fixation,stimulus/viswhere_stim/blank_white.png,stimulus/viswhere_stim/blank_white.png,stimulus/viswhat_stim/blank_white.png,stimulus/viswhat_stim/blank_white.png,stimulus/viswhere_stim/blank_white.png,stimulus/viswhere_stim/blank_white.png,stimulus/viswhere_stim/blank_white.png,stimulus/viswhere_stim/blank_white.png,0.0,0.0,0.0,0.0,0,0.0,0,0.0,0,0.0,0,0.0,0,0.0,0.0,0,0.0,0,0.0,0,0.0,0,0.0,0,0,0,0,0,0,0,0,9,,,,,0,8,8,8,,,,,,,,,108.4339073340002,108.4339073340002,108.4339073340002,108.4339073340002,108.4339073340002,108.4339073340002,108.4339073340002,108.4339073340002,108.33122695833329,108.4339073340002,108.4339073340002,108.4339073340002,108.33122695833329,108.4339073340002,108.4339073340002,108.4339073340002,108.4339073340002,108.4339073340002,108.4339073340002,108.4339073340002,108.4339073340002,108.4339073340002,108.4339073340002,108.4339073340002,108.4339073340002,108.4339073340002,108.4339073340002,108.38122695833329,108.4339073340002,108.4339073340002,108.4339073340002,108.38122695833329,108.4339073340002,108.4339073340002,108.4339073340002,108.4339073340002,108.4339073340002,113.6611482090002,113.6611482090002,117.62608204199978,None,0,,reldom2_s009,001,2025-01-30_12h10.08.479,Vis-B-Scan_AC,2022.2.5,None,
7,First_Order,2.0,viswhere,stimulus/viswhere_stim/blank_white.png,stimulus/viswhere_stim/blank_white.png,stimulus/viswhere_stim/60-deg_dot-right_peru.png,stimulus/viswhere_stim/120-deg_dot-right_goldenrod.png,stimulus/viswhere_stim/blank_white.png,stimulus/viswhere_stim/line_box.png,stimulus/viswhere_stim/line_yes.png,stimulus/viswhere_stim/line_no.png,None,Line,None,Dot,2,0.0,0,5.125,0,5.125,0,5.125,0,0.0,0.625,0,0.0,0,0.0,1,0.5,1,2.125,0,0,0,0,0,0,0,0,0,,,,,0,9,9,9,,,,,,,,,117.62608204199978,117.62608204199978,117.62608204199978,117.62608204199978,117.62608204199978,117.62608204199978,117.62608204199978,117.62608204199978,117.60204254166653,117.62608204199978,117.62608204199978,117.62608204199978,117.60204254166653,117.62608204199978,117.62608204199978,117.62608204199978,119.73286766699994,123.6894716669999,117.62608204199978,117.62608204199978,122.75413062500002,118.1092122089999,119.11626216700006,119.73286766699994,120.74126724999996,117.62608204199978,117.62608204199978,117.6187092083332,117.62608204199978,117.62608204199978,117.62608204199978,117.6187092083332,117.62608204199978,117.62608204199978,122.75413062500002,117.62608204199978,122.75413062500002,122.84181970899999,123.47264025000004,117.62608204199978,2,1,1.1348515409995343,reldom2_s009,001,2025-01-30_12h10.08.479,Vis-B-Scan_AC,2022.2.5,None,
8,First_Order,2.0,viswhere,stimulus/viswhere_stim/blank_white.png,stimulus/viswhere_stim/blank_white.png,stimulus/viswhere_stim/90-deg_dot-left_turquoise.png,stimulus/viswhere_stim/90-deg_dot-right_peru.png,stimulus/viswhere_stim/blank_white.png,stimulus/viswhere_stim/line_box.png,stimulus/viswhere_stim/line_yes.png,stimulus/viswhere_stim/line_no.png,None,Line,None,Line,1,0.0,0,5.125,0,5.125,0,5.125,0,0.0,0.625,0,0.0,0,0.0,1,0.5,1,2.125,0,0,0,0,0,0,0,0,0,,,,,0,10,10,10,,,,,,,,,123.6894716669999,123.6894716669999,123.6894716669999,123.6894716669999,123.6894716669999,123.6894716669999,123.6894716669999,123.6894716669999,123.66645312533349,123.6894716669999,123.6894716669999,123.6894716669999,123.66645312533349,123.6894716669999,123.6894716669999,123.6894716669999,125.78902304199983,129.7584741249998,123.6894716669999,123.6894716669999,128.82962054200016,124.17459058399982,125.18774241700021,125.78902304199983,126.80586200000016,123.6894716669999,123.6894716669999,123.68311979200016,123.6894716669999,123.6894716669999,123.6894716669999,123.68311979200016,123.6894716669999,123.6894716669999,128.82962054200016,123.6894716669999,128.82962054200016,128.91315916700023,129.53970608400004,123.6894716669999,1,1,1.1832390829999895,reldom2_s009,001,2025-01-30_12h10.08.479,Vis-B-Scan_AC,2022.2.5,None,
9,First_Order,2.0,viswhere,stimulus/viswhere_stim/blank_white.png,stimulus/viswhere_stim/blank_white.png,stimulus/viswhere_stim/60-deg_dot-right_seagreen.png,stimulus/viswhere_stim/120-deg_dot-right_salmon.png,stimulus/viswhere_stim/blank_white.png,stimulus/viswhere_stim/dot_box.png,stimulus/viswhere_stim/dot_yes.png,stimulus/viswhere_stim/dot_no.png,None,Dot,None,Dot,1,0.0,0,5.125,0,5.125,0,5.125,0,0.0,0.625,0,0.0,0,0.0,1,0.5,1,2.125,0,0,0,0,0,0,0,0,0,,,,,0,11,11,11,,,,,,,,,129.7584741249998,129.7584741249998,129.7584741249998,129.7584741249998,129.7584741249998,129.7584741249998,129.7584741249998,129.7584741249998,129.73418683333315,129.7584741249998,129.7584741249998,129.7584741249998,129.73418683333315,129.7584741249998,129.7584741249998,129.7584741249998,131.86564454200015,135.83048387500003,129.7584741249998,129.7584741249998,134.88858762500013,130.24212145899992,131.24895112500008,131.86564454200015,132.8749039999998,129.7584741249998,129.7584741249998,129.75085349999983,129.7584741249998,129.7584741249998,129.7584741249998,129.75085349999983,129.7584741249998,129.7584741249998,134.88858762500013,129.7584741249998,134.88858762500013,134.9861111250002,135.61181850000003,129.7584741249998,1,1,1.3310225819996049,reldom2_s009,001,2025-01-30_12h10.08.479,Vis-B-Scan_AC,2022.2.5,None,
10,First_Order,2.0,viswhere,stimulus/viswhere_stim/blank_white.png,stimulus/viswhere_stim/blank_white.png,stimulus/viswhere_stim/120-deg_dot-right_cyan.png,stimulus/viswhere_stim/120-deg_dot-left_turquoise.png,stimulus/viswhere_stim/blank_white.png,stimulus/viswhere_stim/line_box.png,stimulus/viswhere_stim/line_yes.png,stimulus/viswhere_stim/line_no.png,None,Line,None,Line,1,0.0,0,5.125,0,5.125,0,5.125,0,0.0,0.625,0,0.0,0,0.0,1,0.5,1,2.125,0,0,0,0,0,0,0,0,0,,,,,0,12,12,12,,,,,,,,,135.83048387500003,135.83048387500003,135.83048387500003,135.83048387500003,135.83048387500003,135.83048387500003,135.83048387500003,135.83048387500003,135.80685262533356,135.83048387500003,135.83048387500003,135.83048387500003,135.80685262533356,135.83048387500003,135.83048387500003,135.83048387500003,137.942922792,141.97300604200018,135.83048387500003,135.83048387500003,140.95254729199996,136.31504770899983,137.32511424999984,137.942922792,138.95607791700013,135.83048387500003,135.83048387500003,135.82351929200024,135.83048387500003,135.83048387500003,135.83048387500003,135.82351929200024,135.83048387500003,135.83048387500003,140.95254729199996,135.83048387500003,140.95254729199996,141.0499328750002,141.6754572089999,135.83048387500003,1,1,1.8280101249997642,reldom2_s009,001,2025-01-30_12h10.08.479,Vis-B-Scan_AC,2022.2.5,None,
0,0.0,None,fixation,stimulus/viswhere_stim/blank_white.png,stimulus/viswhere_stim/blank_white.png,stimulus/viswhat_stim/blank_white.png,stimulus/viswhat_stim/blank_white.png,stimulus/viswhere_stim/blank_white.png,stimulus/viswhere_stim/blank_white.png,stimulus/viswhere_stim/blank_white.png,stimulus/viswhere_stim/blank_white.png,0.0,0.0,0.0,0.0,0,0.0,0,0.0,0,0.0,0,0.0,0,0.0,0.0,0,0.0,0,0.0,0,0.0,0,0.0,0,0,0,0,0,0,0,0,8,,,,,0,13,13,13,,,,,,,,,141.97300604200018,141.97300604200018,141.97300604200018,141.97300604200018,141.97300604200018,141.97300604200018,141.97300604200018,141.97300604200018,141.87082458333347,141.97300604200018,141.97300604200018,141.97300604200018,141.87082458333347,141.97300604200018,141.97300604200018,141.97300604200018,141.97300604200018,141.97300604200018,141.97300604200018,141.97300604200018,141.97300604200018,141.97300604200018,141.97300604200018,141.97300604200018,141.97300604200018,141.97300604200018,141.97300604200018,141.92082458333348,141.97300604200018,141.97300604200018,141.97300604200018,141.92082458333348,141.97300604200018,141.97300604200018,141.97300604200018,141.97300604200018,141.97300604200018,147.18762220899998,147.18762220899998,150.08001812500015,None,0,,reldom2_s009,001,2025-01-30_12h10.08.479,Vis-B-Scan_AC,2022.2.5,None,
11,Second_Order,2.0,viswhere,stimulus/viswhere_stim/120-deg_dot-left_slateblue.png,stimulus/viswhere_stim/60-deg_dot-left_seagreen.png,stimulus/viswhere_stim/90-deg_dot-right_seagreen.png,stimulus/viswhere_stim/30-deg_dot-right_mediumslateblue.png,stimulus/viswhere_stim/match_blank.png,stimulus/viswhere_stim/match_box.png,stimulus/viswhere_stim/match_yes.png,stimulus/viswhere_stim/match_no.png,1.0,Match,Dot,Dot,1,5.125,0,5.125,0,5.125,0,5.125,0,0.75,0.75,1,0.5,1,2.125,1,0.5,1,2.125,0,0,0,0,0,0,0,0,0,,,,,0,14,14,14,,,,,,,,,150.08001812500015,155.2028762089999,150.56258633400012,151.56096200000002,152.18424300000015,153.18501008400017,150.08001812500015,150.08001812500015,150.09199633333324,150.08001812500015,150.08001812500015,150.08001812500015,150.09199633333324,150.08001812500015,155.2028762089999,155.98632937499997,158.07664779200013,161.9364259590002,155.98632937499997,155.98632937499997,161.11009266700012,156.4550374999999,157.47262741699979,158.07664779200013,159.09691145899978,155.98632937499997,155.98632937499997,155.97111250033328,155.98632937499997,155.98632937499997,155.98632937499997,155.97111250033328,155.98632937499997,155.98632937499997,161.11009266700012,155.98632937499997,161.11009266700012,161.1935186249998,161.97468149999986,155.98632937499997,1,1,1.0803728329997284,reldom2_s009,001,2025-01-30_12h10.08.479,Vis-B-Scan_AC,2022.2.5,None,
12,Second_Order,2.0,viswhere,stimulus/viswhere_stim/90-deg_dot-right_cyan.png,stimulus/viswhere_stim/90-deg_dot-left_salmon.png,stimulus/viswhere_stim/30-deg_dot-left_goldenrod.png,stimulus/viswhere_stim/60-deg_dot-left_turquoise.png,stimulus/viswhere_stim/match_blank.png,stimulus/viswhere_stim/match_box.png,stimulus/viswhere_stim/match_yes.png,stimulus/viswhere_stim/match_no.png,2.0,Match,Line,Dot,2,5.125,0,5.125,0,5.125,0,5.125,0,0.625,0.625,1,0.5,1,2.125,1,0.5,1,2.125,0,0,0,0,0,0,0,0,0,,,,,0,15,15,15,,,,,,,,,161.97468149999986,167.0970292500001,162.45661041699987,163.45518062500014,164.07776062499988,165.07566333400018,161.97468149999986,161.97468149999986,161.9864259590002,161.97468149999986,161.97468149999986,161.97468149999986,161.9864259590002,161.97468149999986,167.0970292500001,167.759591042,169.85686137499988,173.8926039170001,167.759591042,167.759591042,172.89767104200018,168.22607979199984,169.2373863339999,169.85686137499988,170.87319424999987,167.759591042,167.759591042,167.74843250033342,167.759591042,167.759591042,167.759591042,167.74843250033342,167.759591042,167.759591042,172.89767104200018,167.759591042,172.89767104200018,172.9675682090001,173.5944280839999,167.759591042,2,1,1.478036333000091,reldom2_s009,001,2025-01-30_12h10.08.479,Vis-B-Scan_AC,2022.2.5,None,
0,0.0,None,fixation,stimulus/viswhere_stim/blank_white.png,stimulus/viswhere_stim/blank_white.png,stimulus/viswhat_stim/blank_white.png,stimulus/viswhat_stim/blank_white.png,stimulus/viswhere_stim/blank_white.png,stimulus/viswhere_stim/blank_white.png,stimulus/viswhere_stim/blank_white.png,stimulus/viswhere_stim/blank_white.png,0.0,0.0,0.0,0.0,0,0.0,0,0.0,0,0.0,0,0.0,0,0.0,0.0,0,0.0,0,0.0,0,0.0,0,0.0,0,0,0,0,0,0,0,0,10,,,,,0,16,16,16,,,,,,,,,173.8926039170001,173.8926039170001,173.8926039170001,173.8926039170001,173.8926039170001,173.8926039170001,173.8926039170001,173.8926039170001,173.78855783333333,173.8926039170001,173.8926039170001,173.8926039170001,173.78855783333333,173.8926039170001,173.8926039170001,173.8926039170001,173.8926039170001,173.8926039170001,173.8926039170001,173.8926039170001,173.8926039170001,173.8926039170001,173.8926039170001,173.8926039170001,173.8926039170001,173.8926039170001,173.8926039170001,173.83855783333334,173.8926039170001,173.8926039170001,173.8926039170001,173.83855783333334,173.8926039170001,173.8926039170001,173.8926039170001,173.8926039170001,173.8926039170001,179.10431912500007,179.10431912500007,184.15432349999992,None,0,,reldom2_s009,001,2025-01-30_12h10.08.479,Vis-B-Scan_AC,2022.2.5,None,
13,First_Order,3.0,viswhat,stimulus/viswhat_stim/blank_white.png,stimulus/viswhat_stim/blank_white.png,stimulus/viswhat_stim/land_animal-moose.png,stimulus/viswhat_stim/water_animal-whale (1).png,stimulus/viswhat_stim/blank_white.png,stimulus/viswhat_stim/type_box.png,stimulus/viswhat_stim/type_yes.png,stimulus/viswhat_stim/type_no.png,None,Type,None,Type,1,0.0,0,5.125,0,5.125,0,5.125,0,0.0,0.625,0,0.0,0,0.0,1,0.5,1,2.125,0,0,0,0,0,0,0,0,0,,,,,0,17,17,17,,,,,,,,,184.15432349999992,184.15432349999992,184.15432349999992,184.15432349999992,184.15432349999992,184.15432349999992,184.15432349999992,184.15432349999992,184.04505187566673,184.15432349999992,184.15432349999992,184.15432349999992,184.04505187566673,184.15432349999992,184.15432349999992,184.15432349999992,186.2375833750002,190.22988058400006,184.15432349999992,184.15432349999992,189.32986704199993,184.62922545899983,185.70310195900038,186.2375833750002,187.31013425000037,184.15432349999992,184.15432349999992,184.0950518756667,184.15432349999992,184.15432349999992,184.15432349999992,184.0950518756667,184.15432349999992,184.15432349999992,189.32986704199993,184.15432349999992,189.32986704199993,189.32986704199993,190.0270202089996,184.15432349999992,1,1,1.890696831999776,reldom2_s009,001,2025-01-30_12h10.08.479,Vis-B-Scan_AC,2022.2.5,None,
14,First_Order,3.0,viswhat,stimulus/viswhat_stim/blank_white.png,stimulus/viswhat_stim/blank_white.png,stimulus/viswhat_stim/land_vehicle-trolley.png,stimulus/viswhat_stim/water_vehicle-jetski.png,stimulus/viswhat_stim/blank_white.png,stimulus/viswhat_stim/location_box.png,stimulus/viswhat_stim/location_yes.png,stimulus/viswhat_stim/location_no.png,None,Location,None,Type,2,0.0,0,5.125,0,5.125,0,5.125,0,0.0,0.625,0,0.0,0,0.0,1,0.5,1,2.125,0,0,0,0,0,0,0,0,0,,,,,0,18,18,18,,,,,,,,,190.22988058400006,190.22988058400006,190.22988058400006,190.22988058400006,190.22988058400006,190.22988058400006,190.22988058400006,190.22988058400006,190.1936868756663,190.22988058400006,190.22988058400006,190.22988058400006,190.1936868756663,190.22988058400006,190.22988058400006,190.22988058400006,192.32721304200004,196.3118525,190.22988058400006,190.22988058400006,195.37447304200032,190.71536183399985,191.73981787499997,192.32721304200004,193.35371291699994,190.22988058400006,190.22988058400006,190.21035354233294,190.22988058400006,190.22988058400006,190.22988058400006,190.21035354233294,190.22988058400006,190.22988058400006,195.37447304200032,190.22988058400006,195.37447304200032,195.4534880000001,196.08407416699993,190.22988058400006,2,1,1.2994023330002165,reldom2_s009,001,2025-01-30_12h10.08.479,Vis-B-Scan_AC,2022.2.5,None,
15,First_Order,3.0,viswhat,stimulus/viswhat_stim/blank_white.png,stimulus/viswhat_stim/blank_white.png,stimulus/viswhat_stim/land_animal-ostrich.png,stimulus/viswhat_stim/land_vehicle-train.png,stimulus/viswhat_stim/blank_white.png,stimulus/viswhat_stim/location_box.png,stimulus/viswhat_stim/location_yes.png,stimulus/viswhat_stim/location_no.png,None,Location,None,Location,1,0.0,0,5.125,0,5.125,0,5.125,0,0.0,0.625,0,0.0,0,0.0,1,0.5,1,2.125,0,0,0,0,0,0,0,0,0,,,,,0,19,19,19,,,,,,,,,196.3118525,196.3118525,196.3118525,196.3118525,196.3118525,196.3118525,196.3118525,196.3118525,196.2822659589998,196.3118525,196.3118525,196.3118525,196.2822659589998,196.3118525,196.3118525,196.3118525,198.42175883399977,202.7154824170002,196.3118525,196.3118525,201.4482766250003,196.77979383399997,197.78979591700045,198.42175883399977,199.4329279169997,196.3118525,196.3118525,196.29893262566645,196.3118525,196.3118525,196.3118525,196.29893262566645,196.3118525,196.3118525,201.4482766250003,196.3118525,201.4482766250003,201.5365817920001,202.1718074170003,196.3118525,1,1,1.8336692069997298,reldom2_s009,001,2025-01-30_12h10.08.479,Vis-B-Scan_AC,2022.2.5,None,
16,First_Order,3.0,viswhat,stimulus/viswhat_stim/blank_white.png,stimulus/viswhat_stim/blank_white.png,stimulus/viswhat_stim/water_animal-lobster.png,stimulus/viswhat_stim/land_animal-moose.png,stimulus/viswhat_stim/blank_white.png,stimulus/viswhat_stim/location_box.png,stimulus/viswhat_stim/location_yes.png,stimulus/viswhat_stim/location_no.png,None,Location,None,Type,2,0.0,0,5.125,0,5.125,0,5.125,0,0.0,0.625,0,0.0,0,0.0,1,0.5,1,2.125,0,0,0,0,0,0,0,0,0,,,,,0,20,20,20,,,,,,,,,202.7154824170002,202.7154824170002,202.7154824170002,202.7154824170002,202.7154824170002,202.7154824170002,202.7154824170002,202.7154824170002,202.34255637533292,202.7154824170002,202.7154824170002,202.7154824170002,202.34255637533292,202.7154824170002,202.7154824170002,202.7154824170002,204.71673708399976,,202.7154824170002,202.7154824170002,208.17514604200005,203.0806873749998,204.35321758400005,204.71673708399976,205.99065274999975,202.7154824170002,202.7154824170002,202.54255637533294,202.7154824170002,202.7154824170002,202.7154824170002,202.54255637533294,202.7154824170002,202.7154824170002,208.17514604200005,202.7154824170002,208.17514604200005,207.817120875,,202.7154824170002,2,1,1.3928356659998826,reldom2_s009,001,2025-01-30_12h10.08.479,Vis-B-Scan_AC,2022.2.5,None,
0,0.0,None,fixation,stimulus/viswhere_stim/blank_white.png,stimulus/viswhere_stim/blank_white.png,stimulus/viswhat_stim/blank_white.png,stimulus/viswhat_stim/blank_white.png,stimulus/viswhere_stim/blank_white.png,stimulus/viswhere_stim/blank_white.png,stimulus/viswhere_stim/blank_white.png,stimulus/viswhere_stim/blank_white.png,0.0,0.0,0.0,0.0,0,0.0,0,0.0,0,0.0,0,0.0,0,0.0,0.0,0,0.0,0,0.0,0,0.0,0,0.0,0,0,0,0,0,0,0,0,8,,,,,0,21,21,21,,,,,,,,,208.6862489590003,208.6862489590003,208.6862489590003,208.6862489590003,208.6862489590003,208.6862489590003,208.6862489590003,208.6862489590003,208.57514604200006,208.6862489590003,208.6862489590003,208.6862489590003,208.57514604200006,208.6862489590003,208.6862489590003,208.6862489590003,208.6862489590003,208.6862489590003,208.6862489590003,208.6862489590003,208.6862489590003,208.6862489590003,208.6862489590003,208.6862489590003,208.6862489590003,208.6862489590003,208.6862489590003,208.64181270866672,208.6862489590003,208.6862489590003,208.6862489590003,208.64181270866672,208.6862489590003,208.6862489590003,208.6862489590003,208.6862489590003,208.6862489590003,213.86257479199958,213.86257479199958,216.85034254200036,None,0,,reldom2_s009,001,2025-01-30_12h10.08.479,Vis-B-Scan_AC,2022.2.5,None,
17,Second_Order,3.0,viswhat,stimulus/viswhat_stim/land_animal-giraffe.png,stimulus/viswhat_stim/water_animal-stingray.png,stimulus/viswhat_stim/water_animal-squid.png,stimulus/viswhat_stim/water_vehicle-yacht.png,stimulus/viswhere_stim/match_blank.png,stimulus/viswhere_stim/match_box.png,stimulus/viswhere_stim/match_yes.png,stimulus/viswhere_stim/match_no.png,2.0,Match,Type,Location,2,5.125,0,5.125,0,5.125,0,5.125,0,0.75,0.75,1,0.5,1,2.125,1,0.5,1,2.125,0,0,0,0,0,0,0,0,0,,,,,0,22,22,22,,,,,,,,,216.85034254200036,221.97333020899987,217.30022816699966,218.2981562089999,218.92063462500028,219.91849691700008,216.85034254200036,216.85034254200036,216.8625216256666,216.85034254200036,216.85034254200036,216.85034254200036,216.8625216256666,216.85034254200036,221.97333020899987,222.79649704199983,224.87032487499982,,222.79649704199983,222.79649704199983,227.94131604199993,223.25768608399994,224.29388533400015,224.87032487499982,225.90761804199974,222.79649704199983,222.79649704199983,222.75851154200046,222.79649704199983,222.79649704199983,222.79649704199983,222.75851154200046,222.79649704199983,222.79649704199983,227.94131604199993,222.79649704199983,227.94131604199993,228.00678962500024,,222.79649704199983,2,1,1.401005540999904,reldom2_s009,001,2025-01-30_12h10.08.479,Vis-B-Scan_AC,2022.2.5,None,
18,Second_Order,3.0,viswhat,stimulus/viswhat_stim/water_animal-whale (1).png,stimulus/viswhat_stim/land_animal-tiger.png,stimulus/viswhat_stim/water_animal-orka.png,stimulus/viswhat_stim/water_vehicle-cargoboat.png,stimulus/viswhere_stim/match_blank.png,stimulus/viswhere_stim/match_box.png,stimulus/viswhere_stim/match_yes.png,stimulus/viswhere_stim/match_no.png,2.0,Match,Type,Location,2,5.125,0,5.125,0,5.125,0,5.125,0,0.625,0.625,1,0.5,1,2.125,1,0.5,1,2.125,0,0,0,0,0,0,0,0,0,,,,,0,23,23,23,,,,,,,,,228.78807187500024,233.90699979199962,229.24459358399963,230.242470917,230.8771746250004,231.86609687500004,228.78807187500024,228.78807187500024,228.79071270899988,228.78807187500024,228.78807187500024,228.78807187500024,228.79071270899988,228.78807187500024,233.90699979199962,234.66289049999978,236.72910295899965,,234.66289049999978,234.66289049999978,239.85963679199995,235.1317068340004,236.19754466700033,236.72910295899965,237.7987713749999,234.66289049999978,234.66289049999978,234.6026295423338,234.66289049999978,234.66289049999978,234.66289049999978,234.6026295423338,234.66289049999978,234.66289049999978,239.85963679199995,234.66289049999978,239.85963679199995,239.85963679199995,240.75038391700036,234.66289049999978,2,1,1.2983334159998776,reldom2_s009,001,2025-01-30_12h10.08.479,Vis-B-Scan_AC,2022.2.5,None,
0,0.0,None,fixation,stimulus/viswhere_stim/blank_white.png,stimulus/viswhere_stim/blank_white.png,stimulus/viswhat_stim/blank_white.png,stimulus/viswhat_stim/blank_white.png,stimulus/viswhere_stim/blank_white.png,stimulus/viswhere_stim/blank_white.png,stimulus/viswhere_stim/blank_white.png,stimulus/viswhere_stim/blank_white.png,0.0,0.0,0.0,0.0,0,0.0,0,0.0,0,0.0,0,0.0,0,0.0,0.0,0,0.0,0,0.0,0,0.0,0,0.0,0,0,0,0,0,0,0,0,9,,,,,0,24,24,24,,,,,,,,,240.75038391700036,240.75038391700036,240.75038391700036,240.75038391700036,240.75038391700036,240.75038391700036,240.75038391700036,240.75038391700036,240.65048016733357,240.75038391700036,240.75038391700036,240.75038391700036,240.65048016733357,240.75038391700036,240.75038391700036,240.75038391700036,240.75038391700036,240.75038391700036,240.75038391700036,240.75038391700036,240.75038391700036,240.75038391700036,240.75038391700036,240.75038391700036,240.75038391700036,240.75038391700036,240.75038391700036,240.70048016733358,240.75038391700036,240.75038391700036,240.75038391700036,240.70048016733358,240.75038391700036,240.75038391700036,240.75038391700036,240.75038391700036,240.75038391700036,245.95994354199956,245.95994354199956,249.97426304199962,None,0,,reldom2_s009,001,2025-01-30_12h10.08.479,Vis-B-Scan_AC,2022.2.5,None,
19,First_Order,4.0,viswhat,stimulus/viswhat_stim/blank_white.png,stimulus/viswhat_stim/blank_white.png,stimulus/viswhat_stim/water_animal-dolphin.png,stimulus/viswhat_stim/water_vehicle-canoe.png,stimulus/viswhat_stim/blank_white.png,stimulus/viswhat_stim/type_box.png,stimulus/viswhat_stim/type_yes.png,stimulus/viswhat_stim/type_no.png,None,Type,None,Location,2,0.0,0,5.125,0,5.125,0,5.125,0,0.0,0.625,0,0.0,0,0.0,1,0.5,1,2.125,0,0,0,0,0,0,0,0,0,,,,,0,25,25,25,,,,,,,,,249.97426304199962,249.97426304199962,249.97426304199962,249.97426304199962,249.97426304199962,249.97426304199962,249.97426304199962,249.97426304199962,249.92813020866714,249.97426304199962,249.97426304199962,249.97426304199962,249.92813020866714,249.97426304199962,249.97426304199962,249.97426304199962,252.06612433400005,256.12920370899974,249.97426304199962,249.97426304199962,255.13333324999985,250.44522304200018,251.47820020899962,252.06612433400005,253.10071499999958,249.97426304199962,249.97426304199962,249.9447968753338,249.97426304199962,249.97426304199962,249.97426304199962,249.9447968753338,249.97426304199962,249.97426304199962,255.13333324999985,249.97426304199962,255.13333324999985,255.18100666699956,255.82174916700023,249.97426304199962,2,1,1.3856608740006777,reldom2_s009,001,2025-01-30_12h10.08.479,Vis-B-Scan_AC,2022.2.5,None,
20,First_Order,4.0,viswhat,stimulus/viswhat_stim/blank_white.png,stimulus/viswhat_stim/blank_white.png,stimulus/viswhat_stim/land_animal-elephant.png,stimulus/viswhat_stim/land_vehicle-pickuptruck.png,stimulus/viswhat_stim/blank_white.png,stimulus/viswhat_stim/type_box.png,stimulus/viswhat_stim/type_yes.png,stimulus/viswhat_stim/type_no.png,None,Type,None,Location,2,0.0,0,5.125,0,5.125,0,5.125,0,0.0,0.625,0,0.0,0,0.0,1,0.5,1,2.125,0,0,0,0,0,0,0,0,0,,,,,0,26,26,26,,,,,,,,,256.12920370899974,256.12920370899974,256.12920370899974,256.12920370899974,256.12920370899974,256.12920370899974,256.12920370899974,256.12920370899974,256.01641104199973,256.12920370899974,256.12920370899974,256.12920370899974,256.01641104199973,256.12920370899974,256.12920370899974,256.12920370899974,258.1818846670003,,256.12920370899974,256.12920370899974,261.32457966699985,256.6117977499998,257.69983808399957,258.1818846670003,259.2738211670003,256.12920370899974,256.12920370899974,256.0830777086664,256.12920370899974,256.12920370899974,256.12920370899974,256.0830777086664,256.12920370899974,256.12920370899974,261.32457966699985,256.12920370899974,261.32457966699985,261.32457966699985,262.38890354199975,256.12920370899974,2,1,1.6291083750002144,reldom2_s009,001,2025-01-30_12h10.08.479,Vis-B-Scan_AC,2022.2.5,None,
21,First_Order,4.0,viswhat,stimulus/viswhat_stim/blank_white.png,stimulus/viswhat_stim/blank_white.png,stimulus/viswhat_stim/water_vehicle-cruiseship.png,stimulus/viswhat_stim/land_vehicle-oldcar.png,stimulus/viswhat_stim/blank_white.png,stimulus/viswhat_stim/type_box.png,stimulus/viswhat_stim/type_yes.png,stimulus/viswhat_stim/type_no.png,None,Type,None,Type,1,0.0,0,5.125,0,5.125,0,5.125,0,0.0,0.625,0,0.0,0,0.0,1,0.5,1,2.125,0,0,0,0,0,0,0,0,0,,,,,0,27,27,27,,,,,,,,,262.38890354199975,262.38890354199975,262.38890354199975,262.38890354199975,262.38890354199975,262.38890354199975,262.38890354199975,262.38890354199975,262.14997091666703,262.38890354199975,262.38890354199975,262.38890354199975,262.14997091666703,262.38890354199975,262.38890354199975,262.38890354199975,264.38191470899983,,262.38890354199975,262.38890354199975,267.66175645899966,262.8596452920001,264.03129787499984,264.38191470899983,265.55466400000023,262.38890354199975,262.38890354199975,262.2666375833337,262.38890354199975,262.38890354199975,262.38890354199975,262.2666375833337,262.38890354199975,262.38890354199975,267.66175645899966,262.38890354199975,267.66175645899966,267.5500064170001,,262.38890354199975,1,1,1.6258634160003567,reldom2_s009,001,2025-01-30_12h10.08.479,Vis-B-Scan_AC,2022.2.5,None,
22,First_Order,4.0,viswhat,stimulus/viswhat_stim/blank_white.png,stimulus/viswhat_stim/blank_white.png,stimulus/viswhat_stim/water_vehicle-pirateship.png,stimulus/viswhat_stim/water_animal-orka.png,stimulus/viswhat_stim/blank_white.png,stimulus/viswhat_stim/location_box.png,stimulus/viswhat_stim/location_yes.png,stimulus/viswhat_stim/location_no.png,None,Location,None,Location,1,0.0,0,5.125,0,5.125,0,5.125,0,0.0,0.625,0,0.0,0,0.0,1,0.5,1,2.125,0,0,0,0,0,0,0,0,0,,,,,0,28,28,28,,,,,,,,,268.5119661669996,268.5119661669996,268.5119661669996,268.5119661669996,268.5119661669996,268.5119661669996,268.5119661669996,268.5119661669996,268.390716708333,268.5119661669996,268.5119661669996,268.5119661669996,268.390716708333,268.5119661669996,268.5119661669996,268.5119661669996,270.6045168749997,,268.5119661669996,268.5119661669996,273.71184704200004,268.9873331250001,270.0652612920003,270.6045168749997,271.68884075000005,268.5119661669996,268.5119661669996,268.45738337499967,268.5119661669996,268.5119661669996,268.5119661669996,268.45738337499967,268.5119661669996,268.5119661669996,273.71184704200004,268.5119661669996,273.71184704200004,273.71184704200004,274.61405749999994,268.5119661669996,1,1,1.1903393740003594,reldom2_s009,001,2025-01-30_12h10.08.479,Vis-B-Scan_AC,2022.2.5,None,
0,0.0,None,fixation,stimulus/viswhere_stim/blank_white.png,stimulus/viswhere_stim/blank_white.png,stimulus/viswhat_stim/blank_white.png,stimulus/viswhat_stim/blank_white.png,stimulus/viswhere_stim/blank_white.png,stimulus/viswhere_stim/blank_white.png,stimulus/viswhere_stim/blank_white.png,stimulus/viswhere_stim/blank_white.png,0.0,0.0,0.0,0.0,0,0.0,0,0.0,0,0.0,0,0.0,0,0.0,0.0,0,0.0,0,0.0,0,0.0,0,0.0,0,0,0,0,0,0,0,0,10,,,,,0,29,29,29,,,,,,,,,274.61405749999994,274.61405749999994,274.61405749999994,274.61405749999994,274.61405749999994,274.61405749999994,274.61405749999994,274.61405749999994,274.51318379233356,274.61405749999994,274.61405749999994,274.61405749999994,274.51318379233356,274.61405749999994,274.61405749999994,274.61405749999994,274.61405749999994,274.61405749999994,274.61405749999994,274.61405749999994,274.61405749999994,274.61405749999994,274.61405749999994,274.61405749999994,274.61405749999994,274.61405749999994,274.61405749999994,274.5631837923335,274.61405749999994,274.61405749999994,274.61405749999994,274.5631837923335,274.61405749999994,274.61405749999994,274.61405749999994,274.61405749999994,274.61405749999994,279.7959524170001,279.7959524170001,284.78306854200036,None,0,,reldom2_s009,001,2025-01-30_12h10.08.479,Vis-B-Scan_AC,2022.2.5,None,
23,Second_Order,4.0,viswhat,stimulus/viswhat_stim/land_vehicle-pickuptruck.png,stimulus/viswhat_stim/land_animal-lion.png,stimulus/viswhat_stim/water_animal-jellyfish.png,stimulus/viswhat_stim/water_vehicle-cabincruiser.png,stimulus/viswhere_stim/match_blank.png,stimulus/viswhere_stim/match_box.png,stimulus/viswhere_stim/match_yes.png,stimulus/viswhere_stim/match_no.png,1.0,Match,Location,Location,1,5.125,0,5.125,0,5.125,0,5.125,0,0.75,0.75,1,0.5,1,2.125,1,0.5,1,2.125,0,0,0,0,0,0,0,0,0,,,,,0,30,30,30,,,,,,,,,284.78306854200036,289.9012802090001,285.2399489589998,286.23837491700033,286.87282266700004,287.86280112500026,284.78306854200036,284.78306854200036,284.7955974170003,284.78306854200036,284.78306854200036,284.78306854200036,284.7955974170003,284.78306854200036,289.9012802090001,290.7245787089996,292.79855404200043,296.73298470900045,290.7245787089996,290.7245787089996,295.89424375,291.1737464170001,292.23103395900034,292.79855404200043,293.82291270899987,290.7245787089996,290.7245787089996,290.6851574999999,290.7245787089996,290.7245787089996,290.7245787089996,290.6851574999999,290.7245787089996,290.7245787089996,295.89424375,290.7245787089996,295.89424375,295.9294120000004,,290.7245787089996,1,1,0.9970933750000768,reldom2_s009,001,2025-01-30_12h10.08.479,Vis-B-Scan_AC,2022.2.5,None,
24,Second_Order,4.0,viswhat,stimulus/viswhat_stim/water_vehicle-pirateship.png,stimulus/viswhat_stim/land_vehicle-oldcar.png,stimulus/viswhat_stim/land_animal-zebra.png,stimulus/viswhat_stim/water_animal-seahorse.png,stimulus/viswhere_stim/match_blank.png,stimulus/viswhere_stim/match_box.png,stimulus/viswhere_stim/match_yes.png,stimulus/viswhere_stim/match_no.png,1.0,Match,Type,Type,1,5.125,0,5.125,0,5.125,0,5.125,0,0.625,0.625,1,0.5,1,2.125,1,0.5,1,2.125,0,0,0,0,0,0,0,0,0,,,,,0,31,31,31,,,,,,,,,296.73298470900045,301.8465007499999,297.18358754200017,298.18215933400006,298.8176890000004,299.8076866250003,296.73298470900045,296.73298470900045,296.74549933366677,296.73298470900045,296.73298470900045,296.73298470900045,296.74549933366677,296.73298470900045,301.8465007499999,302.51442899999984,304.5968545420001,308.6461828749998,302.51442899999984,302.51442899999984,307.64842370899987,302.9870074999999,304.00310416699995,304.5968545420001,305.619198417,302.51442899999984,302.51442899999984,302.49246400033326,302.51442899999984,302.51442899999984,302.51442899999984,302.49246400033326,302.51442899999984,302.51442899999984,307.64842370899987,302.51442899999984,307.64842370899987,307.7243494590002,308.3518318340002,302.51442899999984,1,1,0.7688777490002394,reldom2_s009,001,2025-01-30_12h10.08.479,Vis-B-Scan_AC,2022.2.5,None,
0,0.0,None,fixation,stimulus/viswhere_stim/blank_white.png,stimulus/viswhere_stim/blank_white.png,stimulus/viswhat_stim/blank_white.png,stimulus/viswhat_stim/blank_white.png,stimulus/viswhere_stim/blank_white.png,stimulus/viswhere_stim/blank_white.png,stimulus/viswhere_stim/blank_white.png,stimulus/viswhere_stim/blank_white.png,0.0,0.0,0.0,0.0,0,0.0,0,0.0,0,0.0,0,0.0,0,0.0,0.0,0,0.0,0,0.0,0,0.0,0,0.0,0,0,0,0,0,0,0,0,9,,,,,0,32,32,32,,,,,,,,,308.6461828749998,308.6461828749998,308.6461828749998,308.6461828749998,308.6461828749998,308.6461828749998,308.6461828749998,308.6461828749998,308.5470472089997,308.6461828749998,308.6461828749998,308.6461828749998,308.5470472089997,308.6461828749998,308.6461828749998,308.6461828749998,308.6461828749998,308.6461828749998,308.6461828749998,308.6461828749998,308.6461828749998,308.6461828749998,308.6461828749998,308.6461828749998,308.6461828749998,308.6461828749998,308.6461828749998,308.5970472089997,308.6461828749998,308.6461828749998,308.6461828749998,308.5970472089997,308.6461828749998,308.6461828749998,308.6461828749998,308.6461828749998,308.6461828749998,313.86431141699995,313.86431141699995,317.86025274999974,None,0,,reldom2_s009,001,2025-01-30_12h10.08.479,Vis-B-Scan_AC,2022.2.5,None,
25,First_Order,5.0,viswhere,stimulus/viswhere_stim/blank_white.png,stimulus/viswhere_stim/blank_white.png,stimulus/viswhere_stim/90-deg_dot-right_seagreen.png,stimulus/viswhere_stim/150-deg_dot-right_turquoise.png,stimulus/viswhere_stim/blank_white.png,stimulus/viswhere_stim/line_box.png,stimulus/viswhere_stim/line_yes.png,stimulus/viswhere_stim/line_no.png,None,Line,None,Dot,2,0.0,0,5.125,0,5.125,0,5.125,0,0.0,0.625,0,0.0,0,0.0,1,0.5,1,2.125,0,0,0,0,0,0,0,0,0,,,,,0,33,33,33,,,,,,,,,317.86025274999974,317.86025274999974,317.86025274999974,317.86025274999974,317.86025274999974,317.86025274999974,317.86025274999974,317.86025274999974,317.8349003336667,317.86025274999974,317.86025274999974,317.86025274999974,317.8349003336667,317.86025274999974,317.86025274999974,317.86025274999974,319.96991929199976,323.9266422090004,317.86025274999974,317.86025274999974,322.99125379199995,318.3298884169999,319.34736537499975,319.96991929199976,320.97401158400044,317.86025274999974,317.86025274999974,317.85156700033343,317.86025274999974,317.86025274999974,317.86025274999974,317.85156700033343,317.86025274999974,317.86025274999974,322.99125379199995,317.86025274999974,322.99125379199995,323.07575241700033,323.7071452090004,317.86025274999974,2,1,1.6113625410007444,reldom2_s009,001,2025-01-30_12h10.08.479,Vis-B-Scan_AC,2022.2.5,None,
26,First_Order,5.0,viswhere,stimulus/viswhere_stim/blank_white.png,stimulus/viswhere_stim/blank_white.png,stimulus/viswhere_stim/150-deg_dot-left_seagreen.png,stimulus/viswhere_stim/150-deg_dot-right_seagreen.png,stimulus/viswhere_stim/blank_white.png,stimulus/viswhere_stim/dot_box.png,stimulus/viswhere_stim/dot_yes.png,stimulus/viswhere_stim/dot_no.png,None,Dot,None,Line,2,0.0,0,5.125,0,5.125,0,5.125,0,0.0,0.625,0,0.0,0,0.0,1,0.5,1,2.125,0,0,0,0,0,0,0,0,0,,,,,0,34,34,34,,,,,,,,,323.9266422090004,323.9266422090004,323.9266422090004,323.9266422090004,323.9266422090004,323.9266422090004,323.9266422090004,323.9266422090004,323.9019159173334,323.9266422090004,323.9266422090004,323.9266422090004,323.9019159173334,323.9266422090004,323.9266422090004,323.9266422090004,326.0270112090002,329.986929959,323.9266422090004,323.9266422090004,329.0527072499999,324.41720658400027,325.420314209,326.0270112090002,327.0315312499997,323.9266422090004,323.9266422090004,323.91858258400003,323.9266422090004,323.9266422090004,323.9266422090004,323.91858258400003,323.9266422090004,323.9266422090004,329.0527072499999,323.9266422090004,329.0527072499999,329.1700782500002,329.8213861670001,323.9266422090004,2,1,1.643956208000418,reldom2_s009,001,2025-01-30_12h10.08.479,Vis-B-Scan_AC,2022.2.5,None,
27,First_Order,5.0,viswhere,stimulus/viswhere_stim/blank_white.png,stimulus/viswhere_stim/blank_white.png,stimulus/viswhere_stim/90-deg_dot-left_turquoise.png,stimulus/viswhere_stim/90-deg_dot-right_seagreen.png,stimulus/viswhere_stim/blank_white.png,stimulus/viswhere_stim/line_box.png,stimulus/viswhere_stim/line_yes.png,stimulus/viswhere_stim/line_no.png,None,Line,None,Line,1,0.0,0,5.125,0,5.125,0,5.125,0,0.0,0.625,0,0.0,0,0.0,1,0.5,1,2.125,0,0,0,0,0,0,0,0,0,,,,,0,35,35,35,,,,,,,,,329.986929959,329.986929959,329.986929959,329.986929959,329.986929959,329.986929959,329.986929959,329.986929959,329.96306066733297,329.986929959,329.986929959,329.986929959,329.96306066733297,329.986929959,329.986929959,329.986929959,332.09240641700035,336.05467775000034,329.986929959,329.986929959,335.1226982500002,330.4741383339997,331.4888758340003,332.09240641700035,333.11161012499997,329.986929959,329.986929959,329.9797273339996,329.986929959,329.986929959,329.986929959,329.9797273339996,329.986929959,329.986929959,335.1226982500002,329.986929959,335.1226982500002,335.20550875000026,335.83223004200045,329.986929959,1,1,1.0052470410000751,reldom2_s009,001,2025-01-30_12h10.08.479,Vis-B-Scan_AC,2022.2.5,None,
28,First_Order,5.0,viswhere,stimulus/viswhere_stim/blank_white.png,stimulus/viswhere_stim/blank_white.png,stimulus/viswhere_stim/120-deg_dot-right_mediumslateblue.png,stimulus/viswhere_stim/90-deg_dot-right_lightsseagreen.png,stimulus/viswhere_stim/blank_white.png,stimulus/viswhere_stim/dot_box.png,stimulus/viswhere_stim/dot_yes.png,stimulus/viswhere_stim/dot_no.png,None,Dot,None,Dot,1,0.0,0,5.125,0,5.125,0,5.125,0,0.0,0.625,0,0.0,0,0.0,1,0.5,1,2.125,0,0,0,0,0,0,0,0,0,,,,,0,36,36,36,,,,,,,,,336.05467775000034,336.05467775000034,336.05467775000034,336.05467775000034,336.05467775000034,336.05467775000034,336.05467775000034,336.05467775000034,336.02645433333356,336.05467775000034,336.05467775000034,336.05467775000034,336.02645433333356,336.05467775000034,336.05467775000034,336.05467775000034,338.15501304200006,342.1994946249997,336.05467775000034,336.05467775000034,341.1922567499996,336.5417632919998,337.5544185839999,338.15501304200006,339.1697640000002,336.05467775000034,336.05467775000034,336.0431210000002,336.05467775000034,336.05467775000034,336.05467775000034,336.0431210000002,336.05467775000034,336.05467775000034,341.1922567499996,336.05467775000034,341.1922567499996,341.27563470899986,341.9015804999999,336.05467775000034,1,1,1.3013276659994517,reldom2_s009,001,2025-01-30_12h10.08.479,Vis-B-Scan_AC,2022.2.5,None,
0,0.0,None,fixation,stimulus/viswhere_stim/blank_white.png,stimulus/viswhere_stim/blank_white.png,stimulus/viswhat_stim/blank_white.png,stimulus/viswhat_stim/blank_white.png,stimulus/viswhere_stim/blank_white.png,stimulus/viswhere_stim/blank_white.png,stimulus/viswhere_stim/blank_white.png,stimulus/viswhere_stim/blank_white.png,0.0,0.0,0.0,0.0,0,0.0,0,0.0,0,0.0,0,0.0,0,0.0,0.0,0,0.0,0,0.0,0,0.0,0,0.0,0,0,0,0,0,0,0,0,10,,,,,0,37,37,37,,,,,,,,,342.1994946249997,342.1994946249997,342.1994946249997,342.1994946249997,342.1994946249997,342.1994946249997,342.1994946249997,342.1994946249997,342.0964492503329,342.1994946249997,342.1994946249997,342.1994946249997,342.0964492503329,342.1994946249997,342.1994946249997,342.1994946249997,342.1994946249997,342.1994946249997,342.1994946249997,342.1994946249997,342.1994946249997,342.1994946249997,342.1994946249997,342.1994946249997,342.1994946249997,342.1994946249997,342.1994946249997,342.1464492503329,342.1994946249997,342.1994946249997,342.1994946249997,342.1464492503329,342.1994946249997,342.1994946249997,342.1994946249997,342.1994946249997,342.1994946249997,347.43264550000004,347.43264550000004,352.3504844170002,None,0,,reldom2_s009,001,2025-01-30_12h10.08.479,Vis-B-Scan_AC,2022.2.5,None,
29,Second_Order,5.0,viswhere,stimulus/viswhere_stim/30-deg_dot-right_peru.png,stimulus/viswhere_stim/120-deg_dot-right_royalblue.png,stimulus/viswhere_stim/120-deg_dot-left_lightsseagreen.png,stimulus/viswhere_stim/90-deg_dot-left_seagreen.png,stimulus/viswhere_stim/match_blank.png,stimulus/viswhere_stim/match_box.png,stimulus/viswhere_stim/match_yes.png,stimulus/viswhere_stim/match_no.png,1.0,Match,Dot,Dot,1,5.125,0,5.125,0,5.125,0,5.125,0,0.75,0.75,1,0.5,1,2.125,1,0.5,1,2.125,0,0,0,0,0,0,0,0,0,,,,,0,38,38,38,,,,,,,,,352.3504844170002,357.47370237500036,352.8292149589997,353.8272450840004,354.4505721249998,355.4476617090004,352.3504844170002,352.3504844170002,352.36198437533324,352.3504844170002,352.3504844170002,352.3504844170002,352.36198437533324,352.3504844170002,357.47370237500036,358.2560086249996,360.3458486669997,364.2387197090002,358.2560086249996,358.2560086249996,363.37774462499965,358.72515108399966,359.7428733750003,360.3458486669997,361.36708416700003,358.2560086249996,358.2560086249996,358.24252291733364,358.2560086249996,358.2560086249996,358.2560086249996,358.24252291733364,358.2560086249996,358.2560086249996,363.37774462499965,358.2560086249996,363.37774462499965,363.46308000000045,364.2387197090002,358.2560086249996,1,1,0.9982850819997111,reldom2_s009,001,2025-01-30_12h10.08.479,Vis-B-Scan_AC,2022.2.5,None,
30,Second_Order,5.0,viswhere,stimulus/viswhere_stim/60-deg_dot-right_seagreen.png,stimulus/viswhere_stim/60-deg_dot-left_slateblue.png,stimulus/viswhere_stim/120-deg_dot-left_seagreen.png,stimulus/viswhere_stim/30-deg_dot-left_cyan.png,stimulus/viswhere_stim/match_blank.png,stimulus/viswhere_stim/match_box.png,stimulus/viswhere_stim/match_yes.png,stimulus/viswhere_stim/match_no.png,2.0,Match,Line,Dot,2,5.125,0,5.125,0,5.125,0,5.125,0,0.625,0.625,1,0.5,1,2.125,1,0.5,1,2.125,0,0,0,0,0,0,0,0,0,,,,,0,39,39,39,,,,,,,,,364.2387197090002,369.351432292,364.72325708399967,365.7216201250003,366.3445894590004,367.3420648749998,364.2387197090002,364.2387197090002,364.25069195900033,364.2387197090002,364.2387197090002,364.2387197090002,364.25069195900033,364.2387197090002,369.351432292,370.0074644590004,372.0933168339998,376.13729895899996,370.0074644590004,370.0074644590004,375.1425951250003,370.47436237500006,371.4911147920002,372.0933168339998,373.11204920900036,370.0074644590004,370.0074644590004,369.9980209173332,370.0074644590004,370.0074644590004,370.0074644590004,369.9980209173332,370.0074644590004,370.0074644590004,375.1425951250003,370.0074644590004,375.1425951250003,375.22595258399997,375.852215334,370.0074644590004,2,1,1.2822524160001194,reldom2_s009,001,2025-01-30_12h10.08.479,Vis-B-Scan_AC,2022.2.5,None,
0,0.0,None,fixation,stimulus/viswhere_stim/blank_white.png,stimulus/viswhere_stim/blank_white.png,stimulus/viswhat_stim/blank_white.png,stimulus/viswhat_stim/blank_white.png,stimulus/viswhere_stim/blank_white.png,stimulus/viswhere_stim/blank_white.png,stimulus/viswhere_stim/blank_white.png,stimulus/viswhere_stim/blank_white.png,0.0,0.0,0.0,0.0,0,0.0,0,0.0,0,0.0,0,0.0,0,0.0,0.0,0,0.0,0,0.0,0,0.0,0,0.0,0,0,0,0,0,0,0,0,9,,,,,0,40,40,40,,,,,,,,,376.13729895899996,376.13729895899996,376.13729895899996,376.13729895899996,376.13729895899996,376.13729895899996,376.13729895899996,376.13729895899996,376.03267879233346,376.13729895899996,376.13729895899996,376.13729895899996,376.03267879233346,376.13729895899996,376.13729895899996,376.13729895899996,376.13729895899996,376.13729895899996,376.13729895899996,376.13729895899996,376.13729895899996,376.13729895899996,376.13729895899996,376.13729895899996,376.13729895899996,376.13729895899996,376.13729895899996,376.08267879233347,376.13729895899996,376.13729895899996,376.13729895899996,376.08267879233347,376.13729895899996,376.13729895899996,376.13729895899996,376.13729895899996,376.13729895899996,381.36073599999963,381.36073599999963,385.36048895899967,None,0,,reldom2_s009,001,2025-01-30_12h10.08.479,Vis-B-Scan_AC,2022.2.5,None,
31,First_Order,6.0,viswhere,stimulus/viswhere_stim/blank_white.png,stimulus/viswhere_stim/blank_white.png,stimulus/viswhere_stim/120-deg_dot-left_royalblue.png,stimulus/viswhere_stim/30-deg_dot-left_goldenrod.png,stimulus/viswhere_stim/blank_white.png,stimulus/viswhere_stim/dot_box.png,stimulus/viswhere_stim/dot_yes.png,stimulus/viswhere_stim/dot_no.png,None,Dot,None,Dot,1,0.0,0,5.125,0,5.125,0,5.125,0,0.0,0.625,0,0.0,0,0.0,1,0.5,1,2.125,0,0,0,0,0,0,0,0,0,,,,,0,41,41,41,,,,,,,,,385.36048895899967,385.36048895899967,385.36048895899967,385.36048895899967,385.36048895899967,385.36048895899967,385.36048895899967,385.36048895899967,385.3362717506667,385.36048895899967,385.36048895899967,385.36048895899967,385.3362717506667,385.36048895899967,385.36048895899967,385.36048895899967,387.47044191700024,391.42873808399963,385.36048895899967,385.36048895899967,390.49700433399994,385.8452516670004,386.8525382500002,387.47044191700024,388.48100049999994,385.36048895899967,385.36048895899967,385.3529384173334,385.36048895899967,385.36048895899967,385.36048895899967,385.3529384173334,385.36048895899967,385.36048895899967,390.49700433399994,385.36048895899967,390.49700433399994,390.58052425000005,391.20969675000015,385.36048895899967,1,1,1.414892916000099,reldom2_s009,001,2025-01-30_12h10.08.479,Vis-B-Scan_AC,2022.2.5,None,
32,First_Order,6.0,viswhere,stimulus/viswhere_stim/blank_white.png,stimulus/viswhere_stim/blank_white.png,stimulus/viswhere_stim/150-deg_dot-left_salmon.png,stimulus/viswhere_stim/150-deg_dot-right_salmon.png,stimulus/viswhere_stim/blank_white.png,stimulus/viswhere_stim/dot_box.png,stimulus/viswhere_stim/dot_yes.png,stimulus/viswhere_stim/dot_no.png,None,Dot,None,Line,2,0.0,0,5.125,0,5.125,0,5.125,0,0.0,0.625,0,0.0,0,0.0,1,0.5,1,2.125,0,0,0,0,0,0,0,0,0,,,,,0,42,42,42,,,,,,,,,391.42873808399963,391.42873808399963,391.42873808399963,391.42873808399963,391.42873808399963,391.42873808399963,391.42873808399963,391.42873808399963,391.4037757503332,391.42873808399963,391.42873808399963,391.42873808399963,391.4037757503332,391.42873808399963,391.42873808399963,391.42873808399963,393.5297357919999,397.50164012500045,391.42873808399963,391.42873808399963,396.5614501250002,391.90093566700034,392.90326662499956,393.5297357919999,394.5353327920002,391.42873808399963,391.42873808399963,391.42044241699983,391.42873808399963,391.42873808399963,391.42873808399963,391.42044241699983,391.42873808399963,391.42873808399963,396.5614501250002,391.42873808399963,396.5614501250002,396.65078079199975,397.27689504200043,391.42873808399963,2,1,1.1271984570003042,reldom2_s009,001,2025-01-30_12h10.08.479,Vis-B-Scan_AC,2022.2.5,None,
33,First_Order,6.0,viswhere,stimulus/viswhere_stim/blank_white.png,stimulus/viswhere_stim/blank_white.png,stimulus/viswhere_stim/150-deg_dot-left_cyan.png,stimulus/viswhere_stim/150-deg_dot-right_seagreen.png,stimulus/viswhere_stim/blank_white.png,stimulus/viswhere_stim/line_box.png,stimulus/viswhere_stim/line_yes.png,stimulus/viswhere_stim/line_no.png,None,Line,None,Line,1,0.0,0,5.125,0,5.125,0,5.125,0,0.0,0.625,0,0.0,0,0.0,1,0.5,1,2.125,0,0,0,0,0,0,0,0,0,,,,,0,43,43,43,,,,,,,,,397.50164012500045,397.50164012500045,397.50164012500045,397.50164012500045,397.50164012500045,397.50164012500045,397.50164012500045,397.50164012500045,397.47719608333347,397.50164012500045,397.50164012500045,397.50164012500045,397.47719608333347,397.50164012500045,397.50164012500045,397.50164012500045,399.60914833399966,403.56912608400035,397.50164012500045,397.50164012500045,402.62896612500026,397.9746178340001,398.98078625000016,399.60914833399966,400.61743570900035,397.50164012500045,397.50164012500045,397.4938627500001,397.50164012500045,397.50164012500045,397.50164012500045,397.4938627500001,397.50164012500045,397.50164012500045,402.62896612500026,397.50164012500045,402.62896612500026,402.72045866700046,403.35778254199977,397.50164012500045,1,1,1.0067806659999405,reldom2_s009,001,2025-01-30_12h10.08.479,Vis-B-Scan_AC,2022.2.5,None,
34,First_Order,6.0,viswhere,stimulus/viswhere_stim/blank_white.png,stimulus/viswhere_stim/blank_white.png,stimulus/viswhere_stim/150-deg_dot-right_cyan.png,stimulus/viswhere_stim/120-deg_dot-right_cyan.png,stimulus/viswhere_stim/blank_white.png,stimulus/viswhere_stim/line_box.png,stimulus/viswhere_stim/line_yes.png,stimulus/viswhere_stim/line_no.png,None,Line,None,Dot,2,0.0,0,5.125,0,5.125,0,5.125,0,0.0,0.625,0,0.0,0,0.0,1,0.5,1,2.125,0,0,0,0,0,0,0,0,0,,,,,0,44,44,44,,,,,,,,,403.56912608400035,403.56912608400035,403.56912608400035,403.56912608400035,403.56912608400035,403.56912608400035,403.56912608400035,403.56912608400035,403.5409402503331,403.56912608400035,403.56912608400035,403.56912608400035,403.5409402503331,403.56912608400035,403.56912608400035,403.56912608400035,405.6629855840001,409.7083447499999,403.56912608400035,403.56912608400035,408.7200254999998,404.0372046250004,405.0566263339997,405.6629855840001,406.6650925419999,403.56912608400035,403.56912608400035,403.55760691699976,403.56912608400035,403.56912608400035,403.56912608400035,403.55760691699976,403.56912608400035,403.56912608400035,408.7200254999998,403.56912608400035,408.7200254999998,408.79258383399974,409.4243290000004,403.56912608400035,2,1,1.3557577080000556,reldom2_s009,001,2025-01-30_12h10.08.479,Vis-B-Scan_AC,2022.2.5,None,
0,0.0,None,fixation,stimulus/viswhere_stim/blank_white.png,stimulus/viswhere_stim/blank_white.png,stimulus/viswhat_stim/blank_white.png,stimulus/viswhat_stim/blank_white.png,stimulus/viswhere_stim/blank_white.png,stimulus/viswhere_stim/blank_white.png,stimulus/viswhere_stim/blank_white.png,stimulus/viswhere_stim/blank_white.png,0.0,0.0,0.0,0.0,0,0.0,0,0.0,0,0.0,0,0.0,0,0.0,0.0,0,0.0,0,0.0,0,0.0,0,0.0,0,0,0,0,0,0,0,0,8,,,,,0,45,45,45,,,,,,,,,409.7083447499999,409.7083447499999,409.7083447499999,409.7083447499999,409.7083447499999,409.7083447499999,409.7083447499999,409.7083447499999,409.605136458333,409.7083447499999,409.7083447499999,409.7083447499999,409.605136458333,409.7083447499999,409.7083447499999,409.7083447499999,409.7083447499999,409.7083447499999,409.7083447499999,409.7083447499999,409.7083447499999,409.7083447499999,409.7083447499999,409.7083447499999,409.7083447499999,409.7083447499999,409.7083447499999,409.655136458333,409.7083447499999,409.7083447499999,409.7083447499999,409.655136458333,409.7083447499999,409.7083447499999,409.7083447499999,409.7083447499999,409.7083447499999,414.9368642090003,414.9368642090003,417.83468395900036,None,0,,reldom2_s009,001,2025-01-30_12h10.08.479,Vis-B-Scan_AC,2022.2.5,None,
35,Second_Order,6.0,viswhere,stimulus/viswhere_stim/60-deg_dot-right_cyan.png,stimulus/viswhere_stim/60-deg_dot-left_goldenrod.png,stimulus/viswhere_stim/150-deg_dot-left_salmon.png,stimulus/viswhere_stim/150-deg_dot-right_goldenrod.png,stimulus/viswhere_stim/match_blank.png,stimulus/viswhere_stim/match_box.png,stimulus/viswhere_stim/match_yes.png,stimulus/viswhere_stim/match_no.png,1.0,Match,Line,Line,1,5.125,0,5.125,0,5.125,0,5.125,0,0.75,0.75,1,0.5,1,2.125,1,0.5,1,2.125,0,0,0,0,0,0,0,0,0,,,,,0,46,46,46,,,,,,,,,417.83468395900036,422.95889375000024,418.31264154200016,419.29902437500004,419.9352777920003,420.9323519999998,417.83468395900036,417.83468395900036,417.8461552083337,417.83468395900036,417.83468395900036,417.83468395900036,417.8461552083337,417.83468395900036,422.95889375000024,423.7352610420003,425.8283028750002,429.69070304199977,423.7352610420003,423.7352610420003,428.87594199999967,424.20922487499956,425.218320209,425.8283028750002,426.84028395899986,423.7352610420003,423.7352610420003,423.7252757923329,423.7352610420003,423.7352610420003,423.7352610420003,423.7252757923329,423.7352610420003,423.7352610420003,428.87594199999967,423.7352610420003,428.87594199999967,428.9476019169997,429.72839695899984,423.7352610420003,1,1,1.3375730409998141,reldom2_s009,001,2025-01-30_12h10.08.479,Vis-B-Scan_AC,2022.2.5,None,
36,Second_Order,6.0,viswhere,stimulus/viswhere_stim/120-deg_dot-right_slateblue.png,stimulus/viswhere_stim/120-deg_dot-left_royalblue.png,stimulus/viswhere_stim/150-deg_dot-right_royalblue.png,stimulus/viswhere_stim/150-deg_dot-left_salmon.png,stimulus/viswhere_stim/match_blank.png,stimulus/viswhere_stim/match_box.png,stimulus/viswhere_stim/match_yes.png,stimulus/viswhere_stim/match_no.png,1.0,Match,Line,Line,1,5.125,0,5.125,0,5.125,0,5.125,0,0.625,0.625,1,0.5,1,2.125,1,0.5,1,2.125,0,0,0,0,0,0,0,0,0,,,,,0,47,47,47,,,,,,,,,429.72839695899984,434.8517352500003,430.2078804169996,431.2056269169998,431.8289963340003,432.8262352499996,429.72839695899984,429.72839695899984,429.7407030419998,429.72839695899984,429.72839695899984,429.72839695899984,429.7407030419998,429.72839695899984,434.8517352500003,435.51124162500037,437.6055921670004,441.6669026669997,435.51124162500037,435.51124162500037,440.65016441700027,435.9853242500003,436.9944368340002,437.6055921670004,438.6161709170001,435.51124162500037,435.51124162500037,435.4996300003336,435.51124162500037,435.51124162500037,435.51124162500037,435.4996300003336,435.51124162500037,435.51124162500037,440.65016441700027,435.51124162500037,440.65016441700027,440.7218730000004,441.3487052500004,435.51124162500037,1,1,1.1800225830002091,reldom2_s009,001,2025-01-30_12h10.08.479,Vis-B-Scan_AC,2022.2.5,None,
0,0.0,None,fixation,stimulus/viswhere_stim/blank_white.png,stimulus/viswhere_stim/blank_white.png,stimulus/viswhat_stim/blank_white.png,stimulus/viswhat_stim/blank_white.png,stimulus/viswhere_stim/blank_white.png,stimulus/viswhere_stim/blank_white.png,stimulus/viswhere_stim/blank_white.png,stimulus/viswhere_stim/blank_white.png,0.0,0.0,0.0,0.0,0,0.0,0,0.0,0,0.0,0,0.0,0,0.0,0.0,0,0.0,0,0.0,0,0.0,0,0.0,0,0,0,0,0,0,0,0,10,,,,,0,48,48,48,,,,,,,,,441.6669026669997,441.6669026669997,441.6669026669997,441.6669026669997,441.6669026669997,441.6669026669997,441.6669026669997,441.6669026669997,441.5622437503337,441.6669026669997,441.6669026669997,441.6669026669997,441.5622437503337,441.6669026669997,441.6669026669997,441.6669026669997,441.6669026669997,441.6669026669997,441.6669026669997,441.6669026669997,441.6669026669997,441.6669026669997,441.6669026669997,441.6669026669997,441.6669026669997,441.6669026669997,441.6669026669997,441.61224375033373,441.6669026669997,441.6669026669997,441.6669026669997,441.61224375033373,441.6669026669997,441.6669026669997,441.6669026669997,441.6669026669997,441.6669026669997,446.84700650000013,446.84700650000013,451.9559210420002,None,0,,reldom2_s009,001,2025-01-30_12h10.08.479,Vis-B-Scan_AC,2022.2.5,None,
37,First_Order,7.0,viswhat,stimulus/viswhat_stim/blank_white.png,stimulus/viswhat_stim/blank_white.png,stimulus/viswhat_stim/water_vehicle-sailboat.png,stimulus/viswhat_stim/land_vehicle-bus.png,stimulus/viswhat_stim/blank_white.png,stimulus/viswhat_stim/location_box.png,stimulus/viswhat_stim/location_yes.png,stimulus/viswhat_stim/location_no.png,None,Location,None,Type,2,0.0,0,5.125,0,5.125,0,5.125,0,0.0,0.625,0,0.0,0,0.0,1,0.5,1,2.125,0,0,0,0,0,0,0,0,0,,,,,0,49,49,49,,,,,,,,,451.9559210420002,451.9559210420002,451.9559210420002,451.9559210420002,451.9559210420002,451.9559210420002,451.9559210420002,451.9559210420002,451.8580448756662,451.9559210420002,451.9559210420002,451.9559210420002,451.8580448756662,451.9559210420002,451.9559210420002,451.9559210420002,454.05966170899956,,451.9559210420002,451.9559210420002,457.13849604200004,452.3869221249997,453.46872445900044,454.05966170899956,455.1447516669996,451.9559210420002,451.9559210420002,451.90804487566623,451.9559210420002,451.9559210420002,451.9559210420002,451.90804487566623,451.9559210420002,451.9559210420002,457.13849604200004,451.9559210420002,457.13849604200004,457.13849604200004,457.81156437499976,451.9559210420002,2,1,1.2046876659996997,reldom2_s009,001,2025-01-30_12h10.08.479,Vis-B-Scan_AC,2022.2.5,None,
38,First_Order,7.0,viswhat,stimulus/viswhat_stim/blank_white.png,stimulus/viswhat_stim/blank_white.png,stimulus/viswhat_stim/land_vehicle-tank.png,stimulus/viswhat_stim/land_animal-elephant.png,stimulus/viswhat_stim/blank_white.png,stimulus/viswhat_stim/type_box.png,stimulus/viswhat_stim/type_yes.png,stimulus/viswhat_stim/type_no.png,None,Type,None,Location,2,0.0,0,5.125,0,5.125,0,5.125,0,0.0,0.625,0,0.0,0,0.0,1,0.5,1,2.125,0,0,0,0,0,0,0,0,0,,,,,0,50,50,50,,,,,,,,,458.07325341700016,458.07325341700016,458.07325341700016,458.07325341700016,458.07325341700016,458.07325341700016,458.07325341700016,458.07325341700016,457.96156437499974,458.07325341700016,458.07325341700016,458.07325341700016,457.96156437499974,458.07325341700016,458.07325341700016,458.07325341700016,460.1833832499997,,458.07325341700016,458.07325341700016,463.2368888339997,458.54262254199966,459.59685654199984,460.1833832499997,461.2435941249996,458.07325341700016,458.07325341700016,458.0282310416664,458.07325341700016,458.07325341700016,458.07325341700016,458.0282310416664,458.07325341700016,458.07325341700016,463.2368888339997,458.07325341700016,463.2368888339997,463.29019370900005,464.13707208399956,458.07325341700016,2,1,1.2111042909991738,reldom2_s009,001,2025-01-30_12h10.08.479,Vis-B-Scan_AC,2022.2.5,None,
39,First_Order,7.0,viswhat,stimulus/viswhat_stim/blank_white.png,stimulus/viswhat_stim/blank_white.png,stimulus/viswhat_stim/land_animal-ostrich.png,stimulus/viswhat_stim/water_animal-whale.png,stimulus/viswhat_stim/blank_white.png,stimulus/viswhat_stim/location_box.png,stimulus/viswhat_stim/location_yes.png,stimulus/viswhat_stim/location_no.png,None,Location,None,Type,2,0.0,0,5.125,0,5.125,0,5.125,0,0.0,0.625,0,0.0,0,0.0,1,0.5,1,2.125,0,0,0,0,0,0,0,0,0,,,,,0,51,51,51,,,,,,,,,464.13707208399956,464.13707208399956,464.13707208399956,464.13707208399956,464.13707208399956,464.13707208399956,464.13707208399956,464.13707208399956,464.0924645416668,464.13707208399956,464.13707208399956,464.13707208399956,464.0924645416668,464.13707208399956,464.13707208399956,464.13707208399956,466.23487962499985,470.2056761670001,464.13707208399956,464.13707208399956,469.26889887499965,464.6125633339998,465.6479239170003,466.23487962499985,467.25038137499996,464.13707208399956,464.13707208399956,464.1091312083335,464.13707208399956,464.13707208399956,464.13707208399956,464.1091312083335,464.13707208399956,464.13707208399956,469.26889887499965,464.13707208399956,469.26889887499965,469.3580028340002,470.00364337500014,464.13707208399956,2,1,1.0972380410003097,reldom2_s009,001,2025-01-30_12h10.08.479,Vis-B-Scan_AC,2022.2.5,None,
40,First_Order,7.0,viswhat,stimulus/viswhat_stim/blank_white.png,stimulus/viswhat_stim/blank_white.png,stimulus/viswhat_stim/land_vehicle-truck.png,stimulus/viswhat_stim/land_animal-fox.png,stimulus/viswhat_stim/blank_white.png,stimulus/viswhat_stim/location_box.png,stimulus/viswhat_stim/location_yes.png,stimulus/viswhat_stim/location_no.png,None,Location,None,Location,1,0.0,0,5.125,0,5.125,0,5.125,0,0.0,0.625,0,0.0,0,0.0,1,0.5,1,2.125,0,0,0,0,0,0,0,0,0,,,,,0,52,52,52,,,,,,,,,470.2056761670001,470.2056761670001,470.2056761670001,470.2056761670001,470.2056761670001,470.2056761670001,470.2056761670001,470.2056761670001,470.1702287089998,470.2056761670001,470.2056761670001,470.2056761670001,470.1702287089998,470.2056761670001,470.2056761670001,470.2056761670001,472.3056675839998,476.35436620899964,470.2056761670001,470.2056761670001,475.344142209,470.682355209,471.71006070899966,472.3056675839998,473.31381237500045,470.2056761670001,470.2056761670001,470.1868953756665,470.2056761670001,470.2056761670001,470.2056761670001,470.1868953756665,470.2056761670001,470.2056761670001,475.344142209,470.2056761670001,475.344142209,475.41670120900017,476.050982709,470.2056761670001,1,1,1.3922010830001454,reldom2_s009,001,2025-01-30_12h10.08.479,Vis-B-Scan_AC,2022.2.5,None,
0,0.0,None,fixation,stimulus/viswhere_stim/blank_white.png,stimulus/viswhere_stim/blank_white.png,stimulus/viswhat_stim/blank_white.png,stimulus/viswhat_stim/blank_white.png,stimulus/viswhere_stim/blank_white.png,stimulus/viswhere_stim/blank_white.png,stimulus/viswhere_stim/blank_white.png,stimulus/viswhere_stim/blank_white.png,0.0,0.0,0.0,0.0,0,0.0,0,0.0,0,0.0,0,0.0,0,0.0,0.0,0,0.0,0,0.0,0,0.0,0,0.0,0,0,0,0,0,0,0,0,8,,,,,0,53,53,53,,,,,,,,,476.35436620899964,476.35436620899964,476.35436620899964,476.35436620899964,476.35436620899964,476.35436620899964,476.35436620899964,476.35436620899964,476.2591600000001,476.35436620899964,476.35436620899964,476.35436620899964,476.2591600000001,476.35436620899964,476.35436620899964,476.35436620899964,476.35436620899964,476.35436620899964,476.35436620899964,476.35436620899964,476.35436620899964,476.35436620899964,476.35436620899964,476.35436620899964,476.35436620899964,476.35436620899964,476.35436620899964,476.30916000000013,476.35436620899964,476.35436620899964,476.35436620899964,476.30916000000013,476.35436620899964,476.35436620899964,476.35436620899964,476.35436620899964,476.35436620899964,481.5378440840004,481.5378440840004,484.5050011249996,None,0,,reldom2_s009,001,2025-01-30_12h10.08.479,Vis-B-Scan_AC,2022.2.5,None,
41,Second_Order,7.0,viswhat,stimulus/viswhat_stim/water_animal-whale (1).png,stimulus/viswhat_stim/water_vehicle-canoe(1).png,stimulus/viswhat_stim/land_animal-tiger.png,stimulus/viswhat_stim/land_vehicle-train.png,stimulus/viswhere_stim/match_blank.png,stimulus/viswhere_stim/match_box.png,stimulus/viswhere_stim/match_yes.png,stimulus/viswhere_stim/match_no.png,1.0,Match,Location,Location,1,5.125,0,5.125,0,5.125,0,5.125,0,0.75,0.75,1,0.5,1,2.125,1,0.5,1,2.125,0,0,0,0,0,0,0,0,0,,,,,0,54,54,54,,,,,,,,,484.5050011249996,489.629062125,484.97980516700045,485.96923716699985,486.60502083400024,487.60251291700024,484.5050011249996,484.5050011249996,484.51005908333366,484.5050011249996,484.5050011249996,484.5050011249996,484.51005908333366,484.5050011249996,489.629062125,490.43768070900023,492.5283489169997,,490.43768070900023,490.43768070900023,495.5778145000004,490.88496379200024,491.9128430419996,492.5283489169997,493.5586857500002,490.43768070900023,490.43768070900023,490.4124923340003,490.43768070900023,490.43768070900023,490.43768070900023,490.4124923340003,490.43768070900023,490.43768070900023,495.5778145000004,490.43768070900023,495.5778145000004,495.63465166700007,,490.43768070900023,1,1,1.0366487080000297,reldom2_s009,001,2025-01-30_12h10.08.479,Vis-B-Scan_AC,2022.2.5,None,
42,Second_Order,7.0,viswhat,stimulus/viswhat_stim/land_vehicle-buldozer.png,stimulus/viswhat_stim/water_vehicle-jetski.png,stimulus/viswhat_stim/water_animal-whale.png,stimulus/viswhat_stim/land_animal-fox.png,stimulus/viswhere_stim/match_blank.png,stimulus/viswhere_stim/match_box.png,stimulus/viswhere_stim/match_yes.png,stimulus/viswhere_stim/match_no.png,1.0,Match,Type,Type,1,5.125,0,5.125,0,5.125,0,5.125,0,0.625,0.625,1,0.5,1,2.125,1,0.5,1,2.125,0,0,0,0,0,0,0,0,0,,,,,0,55,55,55,,,,,,,,,496.4307324170004,501.55139141699965,496.89539650000006,497.89289262500006,498.51566079199984,499.5135895000003,496.4307324170004,496.4307324170004,496.44473925000017,496.4307324170004,496.4307324170004,496.4307324170004,496.44473925000017,496.4307324170004,501.55139141699965,502.22868666700015,504.31676283399975,508.3748218749997,502.22868666700015,502.22868666700015,507.37155104199974,502.6827880000001,503.7035330839999,504.31676283399975,505.33972458399967,502.22868666700015,502.22868666700015,502.20309029233294,502.22868666700015,502.22868666700015,502.22868666700015,502.20309029233294,502.22868666700015,502.22868666700015,507.37155104199974,502.22868666700015,507.37155104199974,507.4349967090002,508.06678250000004,502.22868666700015,1,1,0.8912889160001214,reldom2_s009,001,2025-01-30_12h10.08.479,Vis-B-Scan_AC,2022.2.5,None,
0,0.0,None,fixation,stimulus/viswhere_stim/blank_white.png,stimulus/viswhere_stim/blank_white.png,stimulus/viswhat_stim/blank_white.png,stimulus/viswhat_stim/blank_white.png,stimulus/viswhere_stim/blank_white.png,stimulus/viswhere_stim/blank_white.png,stimulus/viswhere_stim/blank_white.png,stimulus/viswhere_stim/blank_white.png,0.0,0.0,0.0,0.0,0,0.0,0,0.0,0,0.0,0,0.0,0,0.0,0.0,0,0.0,0,0.0,0,0.0,0,0.0,0,0,0,0,0,0,0,0,9,,,,,0,56,56,56,,,,,,,,,508.3748218749997,508.3748218749997,508.3748218749997,508.3748218749997,508.3748218749997,508.3748218749997,508.3748218749997,508.3748218749997,508.27134891699967,508.3748218749997,508.3748218749997,508.3748218749997,508.27134891699967,508.3748218749997,508.3748218749997,508.3748218749997,508.3748218749997,508.3748218749997,508.3748218749997,508.3748218749997,508.3748218749997,508.3748218749997,508.3748218749997,508.3748218749997,508.3748218749997,508.3748218749997,508.3748218749997,508.3213489169997,508.3748218749997,508.3748218749997,508.3748218749997,508.3213489169997,508.3748218749997,508.3748218749997,508.3748218749997,508.3748218749997,508.3748218749997,513.5995336249998,513.5995336249998,517.6237262920004,None,0,,reldom2_s009,001,2025-01-30_12h10.08.479,Vis-B-Scan_AC,2022.2.5,None,
43,First_Order,8.0,viswhat,stimulus/viswhat_stim/blank_white.png,stimulus/viswhat_stim/blank_white.png,stimulus/viswhat_stim/land_animal-fox.png,stimulus/viswhat_stim/land_vehicle-motorcycle.png,stimulus/viswhat_stim/blank_white.png,stimulus/viswhat_stim/type_box.png,stimulus/viswhat_stim/type_yes.png,stimulus/viswhat_stim/type_no.png,None,Type,None,Location,2,0.0,0,5.125,0,5.125,0,5.125,0,0.0,0.625,0,0.0,0,0.0,1,0.5,1,2.125,0,0,0,0,0,0,0,0,0,,,,,0,57,57,57,,,,,,,,,517.6237262920004,517.6237262920004,517.6237262920004,517.6237262920004,517.6237262920004,517.6237262920004,517.6237262920004,517.6237262920004,517.575467416667,517.6237262920004,517.6237262920004,517.6237262920004,517.575467416667,517.6237262920004,517.6237262920004,517.6237262920004,519.7195308749997,523.6953793339999,517.6237262920004,517.6237262920004,522.7737923340001,518.0848334169996,519.1036049169998,519.7195308749997,520.7402440420001,517.6237262920004,517.6237262920004,517.5921340833337,517.6237262920004,517.6237262920004,517.6237262920004,517.5921340833337,517.6237262920004,517.6237262920004,522.7737923340001,517.6237262920004,522.7737923340001,522.8506981250002,523.5031200419999,517.6237262920004,2,1,1.2546932489995015,reldom2_s009,001,2025-01-30_12h10.08.479,Vis-B-Scan_AC,2022.2.5,None,
44,First_Order,8.0,viswhat,stimulus/viswhat_stim/blank_white.png,stimulus/viswhat_stim/blank_white.png,stimulus/viswhat_stim/land_animal-pig.png,stimulus/viswhat_stim/land_vehicle-firetruck.png,stimulus/viswhat_stim/blank_white.png,stimulus/viswhat_stim/location_box.png,stimulus/viswhat_stim/location_yes.png,stimulus/viswhat_stim/location_no.png,None,Location,None,Location,1,0.0,0,5.125,0,5.125,0,5.125,0,0.0,0.625,0,0.0,0,0.0,1,0.5,1,2.125,0,0,0,0,0,0,0,0,0,,,,,0,58,58,58,,,,,,,,,523.6953793339999,523.6953793339999,523.6953793339999,523.6953793339999,523.6953793339999,523.6953793339999,523.6953793339999,523.6953793339999,523.6534000420003,523.6953793339999,523.6953793339999,523.6953793339999,523.6534000420003,523.6953793339999,523.6953793339999,523.6953793339999,525.798853792,529.8272799169999,523.6953793339999,523.6953793339999,528.8329571670001,524.1732830840001,525.1797769590003,525.798853792,526.8099697500002,523.6953793339999,523.6953793339999,523.6867333753336,523.6953793339999,523.6953793339999,523.6953793339999,523.6867333753336,523.6953793339999,523.6953793339999,528.8329571670001,523.6953793339999,528.8329571670001,528.906220375,529.5408267089997,523.6953793339999,1,1,0.9000022079999326,reldom2_s009,001,2025-01-30_12h10.08.479,Vis-B-Scan_AC,2022.2.5,None,
45,First_Order,8.0,viswhat,stimulus/viswhat_stim/blank_white.png,stimulus/viswhat_stim/blank_white.png,stimulus/viswhat_stim/land_vehicle-trolley.png,stimulus/viswhat_stim/water_vehicle-sailboat.png,stimulus/viswhat_stim/blank_white.png,stimulus/viswhat_stim/type_box.png,stimulus/viswhat_stim/type_yes.png,stimulus/viswhat_stim/type_no.png,None,Type,None,Type,1,0.0,0,5.125,0,5.125,0,5.125,0,0.0,0.625,0,0.0,0,0.0,1,0.5,1,2.125,0,0,0,0,0,0,0,0,0,,,,,0,59,59,59,,,,,,,,,529.8272799169999,529.8272799169999,529.8272799169999,529.8272799169999,529.8272799169999,529.8272799169999,529.8272799169999,529.8272799169999,529.7487486670003,529.8272799169999,529.8272799169999,529.8272799169999,529.7487486670003,529.8272799169999,529.8272799169999,529.8272799169999,531.9004130840003,535.8985304999997,529.8272799169999,529.8272799169999,535.0232415419996,530.2713997090004,531.308867959,531.9004130840003,532.948163,529.8272799169999,529.8272799169999,529.7820820003336,529.8272799169999,529.8272799169999,529.8272799169999,529.7820820003336,529.8272799169999,529.8272799169999,535.0232415419996,529.8272799169999,535.0232415419996,535.0232415419996,535.680404875,529.8272799169999,1,1,0.7635650410002199,reldom2_s009,001,2025-01-30_12h10.08.479,Vis-B-Scan_AC,2022.2.5,None,
46,First_Order,8.0,viswhat,stimulus/viswhat_stim/blank_white.png,stimulus/viswhat_stim/blank_white.png,stimulus/viswhat_stim/water_vehicle-canoe(1).png,stimulus/viswhat_stim/land_vehicle-truck.png,stimulus/viswhat_stim/blank_white.png,stimulus/viswhat_stim/type_box.png,stimulus/viswhat_stim/type_yes.png,stimulus/viswhat_stim/type_no.png,None,Type,None,Type,1,0.0,0,5.125,0,5.125,0,5.125,0,0.0,0.625,0,0.0,0,0.0,1,0.5,1,2.125,0,0,0,0,0,0,0,0,0,,,,,0,60,60,60,,,,,,,,,535.8985304999997,535.8985304999997,535.8985304999997,535.8985304999997,535.8985304999997,535.8985304999997,535.8985304999997,535.8985304999997,535.8737226670004,535.8985304999997,535.8985304999997,535.8985304999997,535.8737226670004,535.8985304999997,535.8985304999997,535.8985304999997,537.9917363750001,542.0421685419997,535.8985304999997,535.8985304999997,541.0276785839997,536.3657925839998,537.3918052919998,537.9917363750001,539.0001462500004,535.8985304999997,535.8985304999997,535.890389333667,535.8985304999997,535.8985304999997,535.8985304999997,535.890389333667,535.8985304999997,535.8985304999997,541.0276785839997,535.8985304999997,541.0276785839997,541.1110884170002,541.7457319590003,535.8985304999997,1,1,0.71162216599987,reldom2_s009,001,2025-01-30_12h10.08.479,Vis-B-Scan_AC,2022.2.5,None,
0,0.0,None,fixation,stimulus/viswhere_stim/blank_white.png,stimulus/viswhere_stim/blank_white.png,stimulus/viswhat_stim/blank_white.png,stimulus/viswhat_stim/blank_white.png,stimulus/viswhere_stim/blank_white.png,stimulus/viswhere_stim/blank_white.png,stimulus/viswhere_stim/blank_white.png,stimulus/viswhere_stim/blank_white.png,0.0,0.0,0.0,0.0,0,0.0,0,0.0,0,0.0,0,0.0,0,0.0,0.0,0,0.0,0,0.0,0,0.0,0,0.0,0,0,0,0,0,0,0,0,9,,,,,0,61,61,61,,,,,,,,,542.0421685419997,542.0421685419997,542.0421685419997,542.0421685419997,542.0421685419997,542.0421685419997,542.0421685419997,542.0421685419997,541.9294212083336,542.0421685419997,542.0421685419997,542.0421685419997,541.9294212083336,542.0421685419997,542.0421685419997,542.0421685419997,542.0421685419997,542.0421685419997,542.0421685419997,542.0421685419997,542.0421685419997,542.0421685419997,542.0421685419997,542.0421685419997,542.0421685419997,542.0421685419997,542.0421685419997,541.9960878750002,542.0421685419997,542.0421685419997,542.0421685419997,541.9960878750002,542.0421685419997,542.0421685419997,542.0421685419997,542.0421685419997,542.0421685419997,547.2691805000004,547.2691805000004,551.1691406669997,None,0,,reldom2_s009,001,2025-01-30_12h10.08.479,Vis-B-Scan_AC,2022.2.5,None,
47,Second_Order,8.0,viswhat,stimulus/viswhat_stim/water_animal-seaturtle.png,stimulus/viswhat_stim/water_vehicle-kayak.png,stimulus/viswhat_stim/water_vehicle-motorboatraft.png,stimulus/viswhat_stim/land_vehicle-tank.png,stimulus/viswhere_stim/match_blank.png,stimulus/viswhere_stim/match_box.png,stimulus/viswhere_stim/match_yes.png,stimulus/viswhere_stim/match_no.png,2.0,Match,Location,Type,2,5.125,0,5.125,0,5.125,0,5.125,0,0.75,0.75,1,0.5,1,2.125,1,0.5,1,2.125,0,0,0,0,0,0,0,0,0,,,,,0,62,62,62,,,,,,,,,551.1691406669997,556.2828185839999,551.6376692089998,552.63594775,553.2586283339997,554.2566097919998,551.1691406669997,551.1691406669997,551.1680072503333,551.1691406669997,551.1691406669997,551.1691406669997,551.1680072503333,551.1691406669997,556.2828185839999,557.0639396249999,559.1574388749996,563.0591499169996,557.0639396249999,557.0639396249999,562.1973549169998,557.5248100420004,558.5288730000002,559.1574388749996,560.1664315839998,557.0639396249999,557.0639396249999,557.0495387083333,557.0639396249999,557.0639396249999,557.0639396249999,557.0495387083333,557.0639396249999,557.0639396249999,562.1973549169998,557.0639396249999,562.1973549169998,562.2765223340002,563.0591499169996,557.0639396249999,2,1,1.3356244989990955,reldom2_s009,001,2025-01-30_12h10.08.479,Vis-B-Scan_AC,2022.2.5,None,
48,Second_Order,8.0,viswhat,stimulus/viswhat_stim/land_vehicle-rv.png,stimulus/viswhat_stim/water_vehicle-cargoboat.png,stimulus/viswhat_stim/water_animal-squid.png,stimulus/viswhat_stim/land_animal-dog.png,stimulus/viswhere_stim/match_blank.png,stimulus/viswhere_stim/match_box.png,stimulus/viswhere_stim/match_yes.png,stimulus/viswhere_stim/match_no.png,1.0,Match,Type,Type,1,5.125,0,5.125,0,5.125,0,5.125,0,0.625,0.625,1,0.5,1,2.125,1,0.5,1,2.125,0,0,0,0,0,0,0,0,0,,,,,0,63,63,63,,,,,,,,,563.0591499169996,568.1763019589998,563.53184925,564.529896084,565.1542527499996,566.1504374590004,563.0591499169996,563.0591499169996,563.0614252499997,563.0591499169996,563.0591499169996,563.0591499169996,563.0614252499997,563.0591499169996,568.1763019589998,568.8625538750002,570.9550814590002,574.9925032499996,568.8625538750002,568.8625538750002,573.9974527499999,569.3058311249997,570.3200970420003,570.9550814590002,571.9711377920003,568.8625538750002,568.8625538750002,568.8402521670002,568.8625538750002,568.8625538750002,568.8625538750002,568.8402521670002,568.8625538750002,568.8625538750002,573.9974527499999,568.8625538750002,573.9974527499999,574.0497210840003,574.6987019170001,568.8625538750002,1,1,1.01567091600009,reldom2_s009,001,2025-01-30_12h10.08.479,Vis-B-Scan_AC,2022.2.5,None,
0,0.0,None,fixation,stimulus/viswhere_stim/blank_white.png,stimulus/viswhere_stim/blank_white.png,stimulus/viswhat_stim/blank_white.png,stimulus/viswhat_stim/blank_white.png,stimulus/viswhere_stim/blank_white.png,stimulus/viswhere_stim/blank_white.png,stimulus/viswhere_stim/blank_white.png,stimulus/viswhere_stim/blank_white.png,0.0,0.0,0.0,0.0,0,0.0,0,0.0,0,0.0,0,0.0,0,0.0,0.0,0,0.0,0,0.0,0,0.0,0,0.0,0,0,0,0,0,0,0,0,16,,,,,0,64,64,64,,,,,,,,,574.9925032499996,574.9925032499996,574.9925032499996,574.9925032499996,574.9925032499996,574.9925032499996,574.9925032499996,574.9925032499996,574.8929430836669,574.9925032499996,574.9925032499996,574.9925032499996,574.8929430836669,574.9925032499996,574.9925032499996,574.9925032499996,574.9925032499996,574.9925032499996,574.9925032499996,574.9925032499996,574.9925032499996,574.9925032499996,574.9925032499996,574.9925032499996,574.9925032499996,574.9925032499996,574.9925032499996,574.9429430836668,574.9925032499996,574.9925032499996,574.9925032499996,574.9429430836668,574.9925032499996,574.9925032499996,574.9925032499996,574.9925032499996,574.9925032499996,580.2171074999997,580.2171074999997,591.1368511669998,None,0,,reldom2_s009,001,2025-01-30_12h10.08.479,Vis-B-Scan_AC,2022.2.5,None,
