Trial,Order,Block,Type,Stimuli_File1,Stimuli_File2,Stimuli_File3,Stimuli_File4,Cue_File1,Cue_File2,Response_File_Yes,Response_File_No,Match,Cue_Dimension,Pair1_Dimension,Pair2_Dimension,Key,Cue1_Duration,Cue1_Onset,Cue2_Duration,Cue2_Onset,ResponseYes_Duration,ResponseYes_Onset,ResponseNo_Duration,ResponseNo_Onset,ITI_Within,ITI_Between,Image1_Duration,Image1_Onset,Image2_Duration,Image2_Onset,Image3_Duration,Image3_Onset,Image4_Duration,Image4_Onset,Sound1_Duration,Sound1_Onset,Sound2_Duration,Sound2_Onset,Sound3_Duration,Sound3_Onset,Sound4_Duration,Sound4_Onset,Fixation_Duration,trials_2.thisRepN,trials_2.thisTrialN,trials_2.thisN,trials_2.thisIndex,trials.thisRepN,trials.thisTrialN,trials.thisN,trials.thisIndex,text_start.started,key_resp_start.started,key_resp_start.keys,key_resp_start.rt,text2.started,key_resp_2.started,key_resp_2.keys,key_resp_2.rt,cue_file1.started,cue_file1.stopped,image_1.started,image_1.stopped,image_2.started,image_2.stopped,sound_icon1.started,sound_icon1.stopped,sound_1.started,sound_1.stopped,sound_icon2.started,sound_icon2.stopped,sound_2.started,sound_2.stopped,image_blank_1.started,image_blank_1.stopped,key_press.started,key_press.stopped,fixation_text.started,cue_file2.started,cue_file2.stopped,image_3.started,image_3.stopped,image_4.started,image_4.stopped,sound_icon3.started,sound_icon3.stopped,sound_3.started,sound_3.stopped,sound_icon4.started,sound_icon4.stopped,sound_4.started,sound_4.stopped,response_yes.started,response_yes.stopped,response_no.started,response_no.stopped,iti_blank.started,iti_blank.stopped,fixation_text.stopped,key_press.keys,key_press.corr,key_press.rt,participant,session,date,expName,psychopyVersion,frameRate,
,,,,,,,,,,,,,,,,,,,,,,,,,,,,,,,,,,,,,,,,,,,,,,,,,,,,7.190775625000242,7.190775625000242,2,1.1286119999995208,,,,,,,,,,,,,,,,,,,,,,,,,,,,,,,,,,,,,,,,,,,,,,,,reldom2_s016,001,2025-02-18_16h17.16.775,Vis-A-Scan_AC,2022.2.5,None,
,,,,,,,,,,,,,,,,,,,,,,,,,,,,,,,,,,,,,,,,,,,,0,0,0,0,,,,,,,,,8.354378791000272,8.354378791000272,5,25.534042333000798,,,,,,,,,,,,,,,,,,,,,,,,,,,,,,,,,,,,,,,,,,,,reldom2_s016,001,2025-02-18_16h17.16.775,Vis-A-Scan_AC,2022.2.5,None,
,,,,,,,,,,,,,,,,,,,,,,,,,,,,,,,,,,,,,,,,,,,,1,0,1,0,,,,,,,,,33.90208804099984,33.90208804099984,5,1.985933875000228,,,,,,,,,,,,,,,,,,,,,,,,,,,,,,,,,,,,,,,,,,,,reldom2_s016,001,2025-02-18_16h17.16.775,Vis-A-Scan_AC,2022.2.5,None,
,,,,,,,,,,,,,,,,,,,,,,,,,,,,,,,,,,,,,,,,,,,,2,0,2,0,,,,,,,,,35.91293762500027,35.91293762500027,5,1.9759171670002615,,,,,,,,,,,,,,,,,,,,,,,,,,,,,,,,,,,,,,,,,,,,reldom2_s016,001,2025-02-18_16h17.16.775,Vis-A-Scan_AC,2022.2.5,None,
,,,,,,,,,,,,,,,,,,,,,,,,,,,,,,,,,,,,,,,,,,,,3,0,3,0,,,,,,,,,37.901821749999726,37.901821749999726,5,1.9870075829994676,,,,,,,,,,,,,,,,,,,,,,,,,,,,,,,,,,,,,,,,,,,,reldom2_s016,001,2025-02-18_16h17.16.775,Vis-A-Scan_AC,2022.2.5,None,
0,0.0,None,fixation,stimulus/viswhat_stim/blank_white.png,stimulus/viswhat_stim/blank_white.png,stimulus/viswhere_stim/blank_white.png,stimulus/viswhere_stim/blank_white.png,stimulus/viswhat_stim/blank_white.png,stimulus/viswhat_stim/blank_white.png,stimulus/viswhat_stim/blank_white.png,stimulus/viswhat_stim/blank_white.png,0.0,0.0,0.0,0.0,0,0.0,0,0.0,0,0.0,0,0.0,0,0.0,0.0,0,0.0,0,0.0,0,0.0,0,0.0,0,0,0,0,0,0,0,0,16,,,,,0,0,0,0,,,,,,,,,40.10180995799965,40.10180995799965,40.10180995799965,40.10180995799965,40.10180995799965,40.10180995799965,40.10180995799965,40.10180995799965,40.00618083266715,40.10180995799965,40.10180995799965,40.10180995799965,40.00618083266715,40.10180995799965,40.10180995799965,40.10180995799965,40.10180995799965,40.10180995799965,40.10180995799965,40.10180995799965,40.10180995799965,40.10180995799965,40.10180995799965,40.10180995799965,40.10180995799965,40.10180995799965,40.10180995799965,40.056180832667145,40.10180995799965,40.10180995799965,40.10180995799965,40.056180832667145,40.10180995799965,40.10180995799965,40.10180995799965,40.10180995799965,40.10180995799965,45.29546195800049,45.29546195800049,56.33544337500007,None,0,,reldom2_s016,001,2025-02-18_16h17.16.775,Vis-A-Scan_AC,2022.2.5,None,
1,First_Order,1.0,viswhat,stimulus/viswhat_stim/blank_white.png,stimulus/viswhat_stim/blank_white.png,stimulus/viswhat_stim/land_animal-moose.png,stimulus/viswhat_stim/water_animal-seaturtle.png,stimulus/viswhat_stim/blank_white.png,stimulus/viswhat_stim/type_box.png,stimulus/viswhat_stim/type_yes.png,stimulus/viswhat_stim/type_no.png,None,Type,None,Type,1,0.0,0,5.125,0,5.125,0,5.125,0,0.0,0.625,0,0.0,0,0.0,1,0.5,1,2.125,0,0,0,0,0,0,0,0,0,,,,,0,1,1,1,,,,,,,,,56.33544337500007,56.33544337500007,56.33544337500007,56.33544337500007,56.33544337500007,56.33544337500007,56.33544337500007,56.33544337500007,56.23719654099968,56.33544337500007,56.33544337500007,56.33544337500007,56.23719654099968,56.33544337500007,56.33544337500007,56.33544337500007,58.413486000000375,62.40373245800038,56.33544337500007,56.33544337500007,61.50115300000016,56.78439729100046,57.85162945800039,58.413486000000375,59.48009741599981,56.33544337500007,56.33544337500007,56.28719654099968,56.33544337500007,56.33544337500007,56.33544337500007,56.28719654099968,56.33544337500007,56.33544337500007,61.50115300000016,56.33544337500007,61.50115300000016,61.55239091600015,62.213184958000056,56.33544337500007,1,1,1.6337267079998128,reldom2_s016,001,2025-02-18_16h17.16.775,Vis-A-Scan_AC,2022.2.5,None,
2,First_Order,1.0,viswhat,stimulus/viswhat_stim/blank_white.png,stimulus/viswhat_stim/blank_white.png,stimulus/viswhat_stim/water_vehicle-submarine.png,stimulus/viswhat_stim/land_vehicle-firetruck.png,stimulus/viswhat_stim/blank_white.png,stimulus/viswhat_stim/type_box.png,stimulus/viswhat_stim/type_yes.png,stimulus/viswhat_stim/type_no.png,None,Type,None,Type,1,0.0,0,5.125,0,5.125,0,5.125,0,0.0,0.625,0,0.0,0,0.0,1,0.5,1,2.125,0,0,0,0,0,0,0,0,0,,,,,0,2,2,2,,,,,,,,,62.40373245800038,62.40373245800038,62.40373245800038,62.40373245800038,62.40373245800038,62.40373245800038,62.40373245800038,62.40373245800038,62.363184958000055,62.40373245800038,62.40373245800038,62.40373245800038,62.363184958000055,62.40373245800038,62.40373245800038,62.40373245800038,64.51443970800028,68.50120487500044,62.40373245800038,62.40373245800038,67.53253645800032,62.874762125000416,63.894271707999906,64.51443970800028,65.5402672500004,62.40373245800038,62.40373245800038,62.37985162466672,62.40373245800038,62.40373245800038,62.40373245800038,62.37985162466672,62.40373245800038,62.40373245800038,67.53253645800032,62.40373245800038,67.53253645800032,67.62957991599978,68.27612000000045,62.40373245800038,1,1,0.5969500000001062,reldom2_s016,001,2025-02-18_16h17.16.775,Vis-A-Scan_AC,2022.2.5,None,
3,First_Order,1.0,viswhat,stimulus/viswhat_stim/blank_white.png,stimulus/viswhat_stim/blank_white.png,stimulus/viswhat_stim/water_vehicle-kayak.png,stimulus/viswhat_stim/land_vehicle-vespa.png,stimulus/viswhat_stim/blank_white.png,stimulus/viswhat_stim/location_box.png,stimulus/viswhat_stim/location_yes.png,stimulus/viswhat_stim/location_no.png,None,Location,None,Type,2,0.0,0,5.125,0,5.125,0,5.125,0,0.0,0.625,0,0.0,0,0.0,1,0.5,1,2.125,0,0,0,0,0,0,0,0,0,,,,,0,3,3,3,,,,,,,,,68.50120487500044,68.50120487500044,68.50120487500044,68.50120487500044,68.50120487500044,68.50120487500044,68.50120487500044,68.50120487500044,68.45315675000037,68.50120487500044,68.50120487500044,68.50120487500044,68.45315675000037,68.50120487500044,68.50120487500044,68.50120487500044,70.59627524999996,,68.50120487500044,68.50120487500044,73.66007229099978,68.96195224999974,69.99352999999974,70.59627524999996,71.63056195799982,68.50120487500044,68.50120487500044,68.46982341666704,68.50120487500044,68.50120487500044,68.50120487500044,68.46982341666704,68.50120487500044,68.50120487500044,73.66007229099978,68.50120487500044,73.66007229099978,73.72019162499964,74.38178420799977,68.50120487500044,2,1,0.9532173329998841,reldom2_s016,001,2025-02-18_16h17.16.775,Vis-A-Scan_AC,2022.2.5,None,
4,First_Order,1.0,viswhat,stimulus/viswhat_stim/blank_white.png,stimulus/viswhat_stim/blank_white.png,stimulus/viswhat_stim/water_vehicle-pirateship.png,stimulus/viswhat_stim/land_vehicle-buldozer.png,stimulus/viswhat_stim/blank_white.png,stimulus/viswhat_stim/location_box.png,stimulus/viswhat_stim/location_yes.png,stimulus/viswhat_stim/location_no.png,None,Location,None,Type,2,0.0,0,5.125,0,5.125,0,5.125,0,0.0,0.625,0,0.0,0,0.0,1,0.5,1,2.125,0,0,0,0,0,0,0,0,0,,,,,0,4,4,4,,,,,,,,,74.57629045799968,74.57629045799968,74.57629045799968,74.57629045799968,74.57629045799968,74.57629045799968,74.57629045799968,74.57629045799968,74.52856083266657,74.57629045799968,74.57629045799968,74.57629045799968,74.52856083266657,74.57629045799968,74.57629045799968,74.57629045799968,76.67552675000024,,74.57629045799968,74.57629045799968,79.71607020800002,75.04091212500043,76.07702591599991,76.67552675000024,77.71532562500033,74.57629045799968,74.57629045799968,74.54522749933324,74.57629045799968,74.57629045799968,74.57629045799968,74.54522749933324,74.57629045799968,74.57629045799968,79.71607020800002,74.57629045799968,79.71607020800002,79.79968995800027,80.4402835410001,74.57629045799968,2,1,0.7829578749997381,reldom2_s016,001,2025-02-18_16h17.16.775,Vis-A-Scan_AC,2022.2.5,None,
0,0.0,None,fixation,stimulus/viswhat_stim/blank_white.png,stimulus/viswhat_stim/blank_white.png,stimulus/viswhere_stim/blank_white.png,stimulus/viswhere_stim/blank_white.png,stimulus/viswhat_stim/blank_white.png,stimulus/viswhat_stim/blank_white.png,stimulus/viswhat_stim/blank_white.png,stimulus/viswhat_stim/blank_white.png,0.0,0.0,0.0,0.0,0,0.0,0,0.0,0,0.0,0,0.0,0,0.0,0.0,0,0.0,0,0.0,0,0.0,0,0.0,0,0,0,0,0,0,0,0,9,,,,,0,5,5,5,,,,,,,,,80.6991473750004,80.6991473750004,80.6991473750004,80.6991473750004,80.6991473750004,80.6991473750004,80.6991473750004,80.6991473750004,80.61231766666684,80.6991473750004,80.6991473750004,80.6991473750004,80.61231766666684,80.6991473750004,80.6991473750004,80.6991473750004,80.6991473750004,80.6991473750004,80.6991473750004,80.6991473750004,80.6991473750004,80.6991473750004,80.6991473750004,80.6991473750004,80.6991473750004,80.6991473750004,80.6991473750004,80.66231766666685,80.6991473750004,80.6991473750004,80.6991473750004,80.66231766666685,80.6991473750004,80.6991473750004,80.6991473750004,80.6991473750004,80.6991473750004,85.90646520799964,85.90646520799964,89.86579866600005,None,0,,reldom2_s016,001,2025-02-18_16h17.16.775,Vis-A-Scan_AC,2022.2.5,None,
5,Second_Order,1.0,viswhat,stimulus/viswhat_stim/water_vehicle-cruiser.png,stimulus/viswhat_stim/land_vehicle-pickuptruck.png,stimulus/viswhat_stim/land_animal-snake.png,stimulus/viswhat_stim/land_vehicle-trolley.png,stimulus/viswhat_stim/match_blank.png,stimulus/viswhat_stim/match_box.png,stimulus/viswhat_stim/match_yes.png,stimulus/viswhat_stim/match_no.png,2.0,Match,Type,Location,2,5.125,0,5.125,0,5.125,0,5.125,0,0.75,0.75,1,0.5,1,2.125,1,0.5,1,2.125,0,0,0,0,0,0,0,0,0,,,,,0,6,6,6,,,,,,,,,89.86579866600005,94.98866925000038,90.29118766600004,91.27871891599989,91.91372491600032,92.91210166600013,89.86579866600005,89.86579866600005,89.86642858266684,89.86579866600005,89.86579866600005,89.86579866600005,89.86642858266684,89.86579866600005,94.98866925000038,95.7912139580003,97.86748708300001,101.76549129100022,95.7912139580003,95.7912139580003,100.93240104100005,96.23516500000005,97.25004962500043,97.86748708300001,98.89344891600012,95.7912139580003,95.7912139580003,95.7719189160005,95.7912139580003,95.7912139580003,95.7912139580003,95.7719189160005,95.7912139580003,95.7912139580003,100.93240104100005,95.7912139580003,100.93240104100005,100.98242775000017,101.76549129100022,95.7912139580003,2,1,0.7921589999996286,reldom2_s016,001,2025-02-18_16h17.16.775,Vis-A-Scan_AC,2022.2.5,None,
6,Second_Order,1.0,viswhat,stimulus/viswhat_stim/land_vehicle-firetruck.png,stimulus/viswhat_stim/land_animal-dog.png,stimulus/viswhat_stim/water_animal-seaturtle.png,stimulus/viswhat_stim/water_vehicle-sailboat.png,stimulus/viswhat_stim/match_blank.png,stimulus/viswhat_stim/match_box.png,stimulus/viswhat_stim/match_yes.png,stimulus/viswhat_stim/match_no.png,1.0,Match,Location,Location,1,5.125,0,5.125,0,5.125,0,5.125,0,0.625,0.625,1,0.5,1,2.125,1,0.5,1,2.125,0,0,0,0,0,0,0,0,0,,,,,0,7,7,7,,,,,,,,,101.76549129100022,106.88219945800029,102.2376039159999,103.2359585410004,103.8708750830001,104.85990137499994,101.76549129100022,101.76549129100022,101.7673237500001,101.76549129100022,101.76549129100022,101.76549129100022,101.7673237500001,101.76549129100022,106.88219945800029,107.62606308300019,109.66965150000033,,107.62606308300019,107.62606308300019,112.81360437500007,108.03363287499997,109.10701620800046,109.66965150000033,110.70422637499996,107.62606308300019,107.62606308300019,107.57936362433368,107.62606308300019,107.62606308300019,107.62606308300019,107.57936362433368,107.62606308300019,107.62606308300019,112.81360437500007,107.62606308300019,112.81360437500007,112.81360437500007,113.69828941600008,107.62606308300019,2,0,0.5861953749999884,reldom2_s016,001,2025-02-18_16h17.16.775,Vis-A-Scan_AC,2022.2.5,None,
0,0.0,None,fixation,stimulus/viswhat_stim/blank_white.png,stimulus/viswhat_stim/blank_white.png,stimulus/viswhere_stim/blank_white.png,stimulus/viswhere_stim/blank_white.png,stimulus/viswhat_stim/blank_white.png,stimulus/viswhat_stim/blank_white.png,stimulus/viswhat_stim/blank_white.png,stimulus/viswhat_stim/blank_white.png,0.0,0.0,0.0,0.0,0,0.0,0,0.0,0,0.0,0,0.0,0,0.0,0.0,0,0.0,0,0.0,0,0.0,0,0.0,0,0,0,0,0,0,0,0,9,,,,,0,8,8,8,,,,,,,,,113.69828941600008,113.69828941600008,113.69828941600008,113.69828941600008,113.69828941600008,113.69828941600008,113.69828941600008,113.69828941600008,113.60700300000045,113.69828941600008,113.69828941600008,113.69828941600008,113.60700300000045,113.69828941600008,113.69828941600008,113.69828941600008,113.69828941600008,113.69828941600008,113.69828941600008,113.69828941600008,113.69828941600008,113.69828941600008,113.69828941600008,113.69828941600008,113.69828941600008,113.69828941600008,113.69828941600008,113.65700300000044,113.69828941600008,113.69828941600008,113.69828941600008,113.65700300000044,113.69828941600008,113.69828941600008,113.69828941600008,113.69828941600008,113.69828941600008,118.9247124579997,118.9247124579997,122.97996987500028,None,0,,reldom2_s016,001,2025-02-18_16h17.16.775,Vis-A-Scan_AC,2022.2.5,None,
7,First_Order,2.0,viswhat,stimulus/viswhat_stim/blank_white.png,stimulus/viswhat_stim/blank_white.png,stimulus/viswhat_stim/water_vehicle-ship.png,stimulus/viswhat_stim/water_animal-stingray.png,stimulus/viswhat_stim/blank_white.png,stimulus/viswhat_stim/type_box.png,stimulus/viswhat_stim/type_yes.png,stimulus/viswhat_stim/type_no.png,None,Type,None,Location,2,0.0,0,5.125,0,5.125,0,5.125,0,0.0,0.625,0,0.0,0,0.0,1,0.5,1,2.125,0,0,0,0,0,0,0,0,0,,,,,0,9,9,9,,,,,,,,,122.97996987500028,122.97996987500028,122.97996987500028,122.97996987500028,122.97996987500028,122.97996987500028,122.97996987500028,122.97996987500028,122.87480575000009,122.97996987500028,122.97996987500028,122.97996987500028,122.87480575000009,122.97996987500028,122.97996987500028,122.97996987500028,125.03665312500016,129.04496550000022,122.97996987500028,122.97996987500028,128.18412024999998,123.4146477080003,124.49566162500014,125.03665312500016,126.1248759580003,122.97996987500028,122.97996987500028,122.92480575000009,122.97996987500028,122.97996987500028,122.97996987500028,122.92480575000009,122.97996987500028,122.97996987500028,128.18412024999998,122.97996987500028,128.18412024999998,128.18412024999998,128.86627562500053,122.97996987500028,2,1,3.0554806670006656,reldom2_s016,001,2025-02-18_16h17.16.775,Vis-A-Scan_AC,2022.2.5,None,
8,First_Order,2.0,viswhat,stimulus/viswhat_stim/blank_white.png,stimulus/viswhat_stim/blank_white.png,stimulus/viswhat_stim/land_vehicle-train.png,stimulus/viswhat_stim/land_animal-fox.png,stimulus/viswhat_stim/blank_white.png,stimulus/viswhat_stim/type_box.png,stimulus/viswhat_stim/type_yes.png,stimulus/viswhat_stim/type_no.png,None,Type,None,Location,2,0.0,0,5.125,0,5.125,0,5.125,0,0.0,0.625,0,0.0,0,0.0,1,0.5,1,2.125,0,0,0,0,0,0,0,0,0,,,,,0,10,10,10,,,,,,,,,129.04496550000022,129.04496550000022,129.04496550000022,129.04496550000022,129.04496550000022,129.04496550000022,129.04496550000022,129.04496550000022,129.01627562500053,129.04496550000022,129.04496550000022,129.04496550000022,129.01627562500053,129.04496550000022,129.04496550000022,129.04496550000022,131.1500876250002,135.14091804100008,129.04496550000022,129.04496550000022,134.18555866600036,129.51597975000004,130.52856591599993,131.1500876250002,132.16624545800005,129.04496550000022,129.04496550000022,129.0329422916672,129.04496550000022,129.04496550000022,129.04496550000022,129.0329422916672,129.04496550000022,129.04496550000022,134.18555866600036,129.04496550000022,134.18555866600036,134.26495475000047,134.8936747910002,129.04496550000022,2,1,0.703178000000662,reldom2_s016,001,2025-02-18_16h17.16.775,Vis-A-Scan_AC,2022.2.5,None,
9,First_Order,2.0,viswhat,stimulus/viswhat_stim/blank_white.png,stimulus/viswhat_stim/blank_white.png,stimulus/viswhat_stim/land_animal-lion.png,stimulus/viswhat_stim/land_vehicle-bus.png,stimulus/viswhat_stim/blank_white.png,stimulus/viswhat_stim/location_box.png,stimulus/viswhat_stim/location_yes.png,stimulus/viswhat_stim/location_no.png,None,Location,None,Location,1,0.0,0,5.125,0,5.125,0,5.125,0,0.0,0.625,0,0.0,0,0.0,1,0.5,1,2.125,0,0,0,0,0,0,0,0,0,,,,,0,11,11,11,,,,,,,,,135.14091804100008,135.14091804100008,135.14091804100008,135.14091804100008,135.14091804100008,135.14091804100008,135.14091804100008,135.14091804100008,135.07752562433356,135.14091804100008,135.14091804100008,135.14091804100008,135.07752562433356,135.14091804100008,135.14091804100008,135.14091804100008,137.22643512500053,,135.14091804100008,135.14091804100008,140.3034397500005,135.5973122080004,136.62273529100003,137.22643512500053,138.25702100000035,135.14091804100008,135.14091804100008,135.1108589576669,135.14091804100008,135.14091804100008,135.14091804100008,135.1108589576669,135.14091804100008,135.14091804100008,140.3034397500005,135.14091804100008,140.3034397500005,140.3687440829999,141.0140187500001,135.14091804100008,1,1,1.338105791000089,reldom2_s016,001,2025-02-18_16h17.16.775,Vis-A-Scan_AC,2022.2.5,None,
10,First_Order,2.0,viswhat,stimulus/viswhat_stim/blank_white.png,stimulus/viswhat_stim/blank_white.png,stimulus/viswhat_stim/land_animal-elephant.png,stimulus/viswhat_stim/land_vehicle-motorcycle.png,stimulus/viswhat_stim/blank_white.png,stimulus/viswhat_stim/location_box.png,stimulus/viswhat_stim/location_yes.png,stimulus/viswhat_stim/location_no.png,None,Location,None,Location,1,0.0,0,5.125,0,5.125,0,5.125,0,0.0,0.625,0,0.0,0,0.0,1,0.5,1,2.125,0,0,0,0,0,0,0,0,0,,,,,0,12,12,12,,,,,,,,,141.28338220800015,141.28338220800015,141.28338220800015,141.28338220800015,141.28338220800015,141.28338220800015,141.28338220800015,141.28338220800015,141.16238224966662,141.28338220800015,141.28338220800015,141.28338220800015,141.16238224966662,141.28338220800015,141.28338220800015,141.28338220800015,143.3421911659998,,141.28338220800015,141.28338220800015,146.46442533299978,141.7486589580003,142.81065987500006,143.3421911659998,144.40852458300014,141.28338220800015,141.28338220800015,141.22904891633328,141.28338220800015,141.28338220800015,141.28338220800015,141.22904891633328,141.28338220800015,141.28338220800015,146.46442533299978,141.28338220800015,146.46442533299978,146.46442533299978,147.13391529100045,141.28338220800015,1,1,1.6503538750002917,reldom2_s016,001,2025-02-18_16h17.16.775,Vis-A-Scan_AC,2022.2.5,None,
0,0.0,None,fixation,stimulus/viswhat_stim/blank_white.png,stimulus/viswhat_stim/blank_white.png,stimulus/viswhere_stim/blank_white.png,stimulus/viswhere_stim/blank_white.png,stimulus/viswhat_stim/blank_white.png,stimulus/viswhat_stim/blank_white.png,stimulus/viswhat_stim/blank_white.png,stimulus/viswhat_stim/blank_white.png,0.0,0.0,0.0,0.0,0,0.0,0,0.0,0,0.0,0,0.0,0,0.0,0.0,0,0.0,0,0.0,0,0.0,0,0.0,0,0,0,0,0,0,0,0,10,,,,,0,13,13,13,,,,,,,,,147.40732554100032,147.40732554100032,147.40732554100032,147.40732554100032,147.40732554100032,147.40732554100032,147.40732554100032,147.40732554100032,147.31724862433379,147.40732554100032,147.40732554100032,147.40732554100032,147.31724862433379,147.40732554100032,147.40732554100032,147.40732554100032,147.40732554100032,147.40732554100032,147.40732554100032,147.40732554100032,147.40732554100032,147.40732554100032,147.40732554100032,147.40732554100032,147.40732554100032,147.40732554100032,147.40732554100032,147.3672486243338,147.40732554100032,147.40732554100032,147.40732554100032,147.3672486243338,147.40732554100032,147.40732554100032,147.40732554100032,147.40732554100032,147.40732554100032,152.59405916600008,152.59405916600008,157.56067316600002,None,0,,reldom2_s016,001,2025-02-18_16h17.16.775,Vis-A-Scan_AC,2022.2.5,None,
11,Second_Order,2.0,viswhat,stimulus/viswhat_stim/water_vehicle-cabincruiser.png,stimulus/viswhat_stim/land_vehicle-scooter.png,stimulus/viswhat_stim/land_animal-giraffe.png,stimulus/viswhat_stim/water_animal-squid.png,stimulus/viswhat_stim/match_blank.png,stimulus/viswhat_stim/match_box.png,stimulus/viswhat_stim/match_yes.png,stimulus/viswhat_stim/match_no.png,1.0,Match,Type,Type,1,5.125,0,5.125,0,5.125,0,5.125,0,0.75,0.75,1,0.5,1,2.125,1,0.5,1,2.125,0,0,0,0,0,0,0,0,0,,,,,0,14,14,14,,,,,,,,,157.56067316600002,162.67721024999992,158.03361154100003,159.0314713329999,159.65402812499997,160.65189487499993,157.56067316600002,157.56067316600002,157.5618782493331,157.56067316600002,157.56067316600002,157.56067316600002,157.5618782493331,157.56067316600002,162.67721024999992,163.54243062499972,165.5954737080001,,163.54243062499972,163.54243062499972,168.7402112079999,163.9727913329998,165.05599995800003,165.5954737080001,166.68227054100043,163.54243062499972,163.54243062499972,163.49486545833346,163.54243062499972,163.54243062499972,163.54243062499972,163.49486545833346,163.54243062499972,163.54243062499972,168.7402112079999,163.54243062499972,168.7402112079999,168.7402112079999,,163.54243062499972,2,0,1.5014150000006339,reldom2_s016,001,2025-02-18_16h17.16.775,Vis-A-Scan_AC,2022.2.5,None,
12,Second_Order,2.0,viswhat,stimulus/viswhat_stim/land_animal-bunny.png,stimulus/viswhat_stim/land_vehicle-shortbus.png,stimulus/viswhat_stim/water_vehicle-sailboat.png,stimulus/viswhat_stim/water_animal-whale.png,stimulus/viswhat_stim/match_blank.png,stimulus/viswhat_stim/match_box.png,stimulus/viswhat_stim/match_yes.png,stimulus/viswhat_stim/match_no.png,1.0,Match,Location,Location,1,5.125,0,5.125,0,5.125,0,5.125,0,0.625,0.625,1,0.5,1,2.125,1,0.5,1,2.125,0,0,0,0,0,0,0,0,0,,,,,0,15,15,15,,,,,,,,,169.5123793749999,174.63430612499997,169.9594267499997,170.94559500000014,171.58099162500002,172.57964304100005,169.5123793749999,169.5123793749999,169.52029516599978,169.5123793749999,169.5123793749999,169.5123793749999,169.52029516599978,169.5123793749999,174.63430612499997,175.38258670800042,177.4292512080001,181.493188208,175.38258670800042,175.38258670800042,180.56234120800036,175.7896369580003,176.8648430000003,177.4292512080001,178.50901395799974,175.38258670800042,175.38258670800042,175.33577687433385,175.38258670800042,175.38258670800042,175.38258670800042,175.33577687433385,175.38258670800042,175.38258670800042,180.56234120800036,175.38258670800042,180.56234120800036,180.56234120800036,181.2478518329999,175.38258670800042,2,0,1.1154226669996206,reldom2_s016,001,2025-02-18_16h17.16.775,Vis-A-Scan_AC,2022.2.5,None,
0,0.0,None,fixation,stimulus/viswhat_stim/blank_white.png,stimulus/viswhat_stim/blank_white.png,stimulus/viswhere_stim/blank_white.png,stimulus/viswhere_stim/blank_white.png,stimulus/viswhat_stim/blank_white.png,stimulus/viswhat_stim/blank_white.png,stimulus/viswhat_stim/blank_white.png,stimulus/viswhat_stim/blank_white.png,0.0,0.0,0.0,0.0,0,0.0,0,0.0,0,0.0,0,0.0,0,0.0,0.0,0,0.0,0,0.0,0,0.0,0,0.0,0,0,0,0,0,0,0,0,9,,,,,0,16,16,16,,,,,,,,,181.493188208,181.493188208,181.493188208,181.493188208,181.493188208,181.493188208,181.493188208,181.493188208,181.39785183299992,181.493188208,181.493188208,181.493188208,181.39785183299992,181.493188208,181.493188208,181.493188208,181.493188208,181.493188208,181.493188208,181.493188208,181.493188208,181.493188208,181.493188208,181.493188208,181.493188208,181.493188208,181.493188208,181.44785183299993,181.493188208,181.493188208,181.493188208,181.44785183299993,181.493188208,181.493188208,181.493188208,181.493188208,181.493188208,186.70227533300022,186.70227533300022,190.7088758330001,None,0,,reldom2_s016,001,2025-02-18_16h17.16.775,Vis-A-Scan_AC,2022.2.5,None,
13,First_Order,3.0,viswhere,stimulus/viswhere_stim/blank_white.png,stimulus/viswhere_stim/blank_white.png,stimulus/viswhere_stim/90-deg_dot-left_slateblue.png,stimulus/viswhere_stim/120-deg_dot-left_slateblue.png,stimulus/viswhere_stim/blank_white.png,stimulus/viswhere_stim/dot_box.png,stimulus/viswhere_stim/dot_yes.png,stimulus/viswhere_stim/dot_no.png,None,Dot,None,Dot,1,0.0,0,5.125,0,5.125,0,5.125,0,0.0,0.625,0,0.0,0,0.0,1,0.5,1,2.125,0,0,0,0,0,0,0,0,0,,,,,0,17,17,17,,,,,,,,,190.7088758330001,190.7088758330001,190.7088758330001,190.7088758330001,190.7088758330001,190.7088758330001,190.7088758330001,190.7088758330001,190.691811041667,190.7088758330001,190.7088758330001,190.7088758330001,190.691811041667,190.7088758330001,190.7088758330001,190.7088758330001,192.81191029100046,196.77267387499978,190.7088758330001,190.7088758330001,195.8490698329997,191.18253650000042,192.18846991600003,192.81191029100046,193.81991395800014,190.7088758330001,190.7088758330001,190.691811041667,190.7088758330001,190.7088758330001,190.7088758330001,190.691811041667,190.7088758330001,190.7088758330001,195.8490698329997,190.7088758330001,195.8490698329997,195.94927375000043,196.5708318750003,190.7088758330001,1,1,1.573748791000071,reldom2_s016,001,2025-02-18_16h17.16.775,Vis-A-Scan_AC,2022.2.5,None,
14,First_Order,3.0,viswhere,stimulus/viswhere_stim/blank_white.png,stimulus/viswhere_stim/blank_white.png,stimulus/viswhere_stim/30-deg_dot-left_royalblue.png,stimulus/viswhere_stim/30-deg_dot-right_peru.png,stimulus/viswhere_stim/blank_white.png,stimulus/viswhere_stim/dot_box.png,stimulus/viswhere_stim/dot_yes.png,stimulus/viswhere_stim/dot_no.png,None,Dot,None,Line,2,0.0,0,5.125,0,5.125,0,5.125,0,0.0,0.625,0,0.0,0,0.0,1,0.5,1,2.125,0,0,0,0,0,0,0,0,0,,,,,0,18,18,18,,,,,,,,,196.77267387499978,196.77267387499978,196.77267387499978,196.77267387499978,196.77267387499978,196.77267387499978,196.77267387499978,196.77267387499978,196.75359354133374,196.77267387499978,196.77267387499978,196.77267387499978,196.75359354133374,196.77267387499978,196.77267387499978,196.77267387499978,198.87647174999984,202.83989316600037,196.77267387499978,196.77267387499978,201.90089612500014,197.26414099999965,198.27037820799978,198.87647174999984,199.88881395800036,196.77267387499978,196.77267387499978,196.75359354133374,196.77267387499978,196.77267387499978,196.77267387499978,196.75359354133374,196.77267387499978,196.77267387499978,201.90089612500014,196.77267387499978,201.90089612500014,202.01340391600024,202.6445054579999,196.77267387499978,2,1,0.6835916250001901,reldom2_s016,001,2025-02-18_16h17.16.775,Vis-A-Scan_AC,2022.2.5,None,
15,First_Order,3.0,viswhere,stimulus/viswhere_stim/blank_white.png,stimulus/viswhere_stim/blank_white.png,stimulus/viswhere_stim/150-deg_dot-right_turquoise.png,stimulus/viswhere_stim/150-deg_dot-left_cyan.png,stimulus/viswhere_stim/blank_white.png,stimulus/viswhere_stim/line_box.png,stimulus/viswhere_stim/line_yes.png,stimulus/viswhere_stim/line_no.png,None,Line,None,Line,1,0.0,0,5.125,0,5.125,0,5.125,0,0.0,0.625,0,0.0,0,0.0,1,0.5,1,2.125,0,0,0,0,0,0,0,0,0,,,,,0,19,19,19,,,,,,,,,202.83989316600037,202.83989316600037,202.83989316600037,202.83989316600037,202.83989316600037,202.83989316600037,202.83989316600037,202.83989316600037,202.82088233333374,202.83989316600037,202.83989316600037,202.83989316600037,202.82088233333374,202.83989316600037,202.83989316600037,202.83989316600037,204.9378172910001,208.90390970800036,202.83989316600037,202.83989316600037,207.9659040409997,203.31974487499974,204.32229416599966,204.9378172910001,205.9439198330001,202.83989316600037,202.83989316600037,202.82088233333374,202.83989316600037,202.83989316600037,202.83989316600037,202.82088233333374,202.83989316600037,202.83989316600037,207.9659040409997,202.83989316600037,207.9659040409997,208.06320320800023,208.68890512500002,202.83989316600037,2,0,0.9077704170003926,reldom2_s016,001,2025-02-18_16h17.16.775,Vis-A-Scan_AC,2022.2.5,None,
16,First_Order,3.0,viswhere,stimulus/viswhere_stim/blank_white.png,stimulus/viswhere_stim/blank_white.png,stimulus/viswhere_stim/120-deg_dot-right_mediumslateblue.png,stimulus/viswhere_stim/150-deg_dot-right_royalblue.png,stimulus/viswhere_stim/blank_white.png,stimulus/viswhere_stim/line_box.png,stimulus/viswhere_stim/line_yes.png,stimulus/viswhere_stim/line_no.png,None,Line,None,Dot,2,0.0,0,5.125,0,5.125,0,5.125,0,0.0,0.625,0,0.0,0,0.0,1,0.5,1,2.125,0,0,0,0,0,0,0,0,0,,,,,0,20,20,20,,,,,,,,,208.90390970800036,208.90390970800036,208.90390970800036,208.90390970800036,208.90390970800036,208.90390970800036,208.90390970800036,208.90390970800036,208.88321866633336,208.90390970800036,208.90390970800036,208.90390970800036,208.88321866633336,208.90390970800036,208.90390970800036,208.90390970800036,211.00577483300003,215.0496167500005,208.90390970800036,208.90390970800036,214.03684333300043,209.38084466600048,210.39501429099982,211.00577483300003,212.00819000000047,208.90390970800036,208.90390970800036,208.89988533300004,208.90390970800036,208.90390970800036,208.90390970800036,208.89988533300004,208.90390970800036,208.90390970800036,214.03684333300043,208.90390970800036,214.03684333300043,214.13223070799995,214.7593297909998,208.90390970800036,2,1,0.8825162080001974,reldom2_s016,001,2025-02-18_16h17.16.775,Vis-A-Scan_AC,2022.2.5,None,
0,0.0,None,fixation,stimulus/viswhat_stim/blank_white.png,stimulus/viswhat_stim/blank_white.png,stimulus/viswhere_stim/blank_white.png,stimulus/viswhere_stim/blank_white.png,stimulus/viswhat_stim/blank_white.png,stimulus/viswhat_stim/blank_white.png,stimulus/viswhat_stim/blank_white.png,stimulus/viswhat_stim/blank_white.png,0.0,0.0,0.0,0.0,0,0.0,0,0.0,0,0.0,0,0.0,0,0.0,0.0,0,0.0,0,0.0,0,0.0,0,0.0,0,0,0,0,0,0,0,0,8,,,,,0,21,21,21,,,,,,,,,215.0496167500005,215.0496167500005,215.0496167500005,215.0496167500005,215.0496167500005,215.0496167500005,215.0496167500005,215.0496167500005,214.95335541633298,215.0496167500005,215.0496167500005,215.0496167500005,214.95335541633298,215.0496167500005,215.0496167500005,215.0496167500005,215.0496167500005,215.0496167500005,215.0496167500005,215.0496167500005,215.0496167500005,215.0496167500005,215.0496167500005,215.0496167500005,215.0496167500005,215.0496167500005,215.0496167500005,215.003355416333,215.0496167500005,215.0496167500005,215.0496167500005,215.003355416333,215.0496167500005,215.0496167500005,215.0496167500005,215.0496167500005,215.0496167500005,220.25651820799976,220.25651820799976,223.18932479100022,None,0,,reldom2_s016,001,2025-02-18_16h17.16.775,Vis-A-Scan_AC,2022.2.5,None,
17,Second_Order,3.0,viswhere,stimulus/viswhere_stim/60-deg_dot-right_seagreen.png,stimulus/viswhere_stim/150-deg_dot-right_seagreen.png,stimulus/viswhere_stim/90-deg_dot-right_salmon.png,stimulus/viswhere_stim/90-deg_dot-left_seagreen.png,stimulus/viswhat_stim/match_blank.png,stimulus/viswhat_stim/match_box.png,stimulus/viswhat_stim/match_yes.png,stimulus/viswhat_stim/match_no.png,2.0,Match,Dot,Line,2,5.125,0,5.125,0,5.125,0,5.125,0,0.75,0.75,1,0.5,1,2.125,1,0.5,1,2.125,0,0,0,0,0,0,0,0,0,,,,,0,22,22,22,,,,,,,,,223.18932479100022,228.31265670799985,223.6676825000004,224.6541795410003,225.28985974999978,226.28736758299965,223.18932479100022,223.18932479100022,223.2039829583338,223.18932479100022,223.18932479100022,223.18932479100022,223.2039829583338,223.18932479100022,228.31265670799985,229.1058990829997,231.1907229999997,235.0805465000003,229.1058990829997,229.1058990829997,234.24545266600035,229.56689804100006,230.5809070410005,231.1907229999997,232.19469350000054,229.1058990829997,229.1058990829997,229.08086533333386,229.1058990829997,229.1058990829997,229.1058990829997,229.08086533333386,229.1058990829997,229.1058990829997,234.24545266600035,229.1058990829997,234.24545266600035,234.30176916599976,235.0805465000003,229.1058990829997,2,1,0.9115751669996826,reldom2_s016,001,2025-02-18_16h17.16.775,Vis-A-Scan_AC,2022.2.5,None,
18,Second_Order,3.0,viswhere,stimulus/viswhere_stim/150-deg_dot-right_goldenrod.png,stimulus/viswhere_stim/150-deg_dot-left_cyan.png,stimulus/viswhere_stim/120-deg_dot-left_royalblue.png,stimulus/viswhere_stim/60-deg_dot-left_royalblue.png,stimulus/viswhat_stim/match_blank.png,stimulus/viswhat_stim/match_box.png,stimulus/viswhat_stim/match_yes.png,stimulus/viswhat_stim/match_no.png,2.0,Match,Line,Dot,2,5.125,0,5.125,0,5.125,0,5.125,0,0.625,0.625,1,0.5,1,2.125,1,0.5,1,2.125,0,0,0,0,0,0,0,0,0,,,,,0,23,23,23,,,,,,,,,235.0805465000003,240.20234804099982,235.56223870800022,236.5607077909999,237.18300120799995,238.18074962500032,235.0805465000003,235.0805465000003,235.0936191250001,235.0805465000003,235.0805465000003,235.0805465000003,235.0936191250001,235.0805465000003,240.20234804099982,240.87531454100008,242.9492882909999,247.0124706659999,240.87531454100008,240.87531454100008,246.0009716249997,241.33472733300005,242.3412644580003,242.9492882909999,243.96274979100053,240.87531454100008,240.87531454100008,240.85382691633328,240.87531454100008,240.87531454100008,240.87531454100008,240.85382691633328,240.87531454100008,240.87531454100008,246.0009716249997,240.87531454100008,246.0009716249997,246.06867995799985,246.69338570800028,240.87531454100008,2,1,3.5410944170007497,reldom2_s016,001,2025-02-18_16h17.16.775,Vis-A-Scan_AC,2022.2.5,None,
0,0.0,None,fixation,stimulus/viswhat_stim/blank_white.png,stimulus/viswhat_stim/blank_white.png,stimulus/viswhere_stim/blank_white.png,stimulus/viswhere_stim/blank_white.png,stimulus/viswhat_stim/blank_white.png,stimulus/viswhat_stim/blank_white.png,stimulus/viswhat_stim/blank_white.png,stimulus/viswhat_stim/blank_white.png,0.0,0.0,0.0,0.0,0,0.0,0,0.0,0,0.0,0,0.0,0,0.0,0.0,0,0.0,0,0.0,0,0.0,0,0.0,0,0,0,0,0,0,0,0,10,,,,,0,24,24,24,,,,,,,,,247.0124706659999,247.0124706659999,247.0124706659999,247.0124706659999,247.0124706659999,247.0124706659999,247.0124706659999,247.0124706659999,246.91686974933359,247.0124706659999,247.0124706659999,247.0124706659999,246.91686974933359,247.0124706659999,247.0124706659999,247.0124706659999,247.0124706659999,247.0124706659999,247.0124706659999,247.0124706659999,247.0124706659999,247.0124706659999,247.0124706659999,247.0124706659999,247.0124706659999,247.0124706659999,247.0124706659999,246.9668697493336,247.0124706659999,247.0124706659999,247.0124706659999,246.9668697493336,247.0124706659999,247.0124706659999,247.0124706659999,247.0124706659999,247.0124706659999,252.22339129099964,252.22339129099964,257.2052860829999,None,0,,reldom2_s016,001,2025-02-18_16h17.16.775,Vis-A-Scan_AC,2022.2.5,None,
19,First_Order,4.0,viswhere,stimulus/viswhere_stim/blank_white.png,stimulus/viswhere_stim/blank_white.png,stimulus/viswhere_stim/90-deg_dot-right_royalblue.png,stimulus/viswhere_stim/120-deg_dot-right_goldenrod.png,stimulus/viswhere_stim/blank_white.png,stimulus/viswhere_stim/dot_box.png,stimulus/viswhere_stim/dot_yes.png,stimulus/viswhere_stim/dot_no.png,None,Dot,None,Dot,1,0.0,0,5.125,0,5.125,0,5.125,0,0.0,0.625,0,0.0,0,0.0,1,0.5,1,2.125,0,0,0,0,0,0,0,0,0,,,,,0,25,25,25,,,,,,,,,257.2052860829999,257.2052860829999,257.2052860829999,257.2052860829999,257.2052860829999,257.2052860829999,257.2052860829999,257.2052860829999,257.1879387916666,257.2052860829999,257.2052860829999,257.2052860829999,257.1879387916666,257.2052860829999,257.2052860829999,257.2052860829999,259.3172382499997,263.2616304579997,257.2052860829999,257.2052860829999,262.3323293330004,257.6807877910005,258.6903219579999,259.3172382499997,260.3308715000003,257.2052860829999,257.2052860829999,257.1879387916666,257.2052860829999,257.2052860829999,257.2052860829999,257.1879387916666,257.2052860829999,257.2052860829999,262.3323293330004,257.2052860829999,262.3323293330004,262.42995925000014,263.0575714160004,257.2052860829999,2,0,3.009527917000014,reldom2_s016,001,2025-02-18_16h17.16.775,Vis-A-Scan_AC,2022.2.5,None,
20,First_Order,4.0,viswhere,stimulus/viswhere_stim/blank_white.png,stimulus/viswhere_stim/blank_white.png,stimulus/viswhere_stim/90-deg_dot-left_peru.png,stimulus/viswhere_stim/90-deg_dot-right_royalblue.png,stimulus/viswhere_stim/blank_white.png,stimulus/viswhere_stim/dot_box.png,stimulus/viswhere_stim/dot_yes.png,stimulus/viswhere_stim/dot_no.png,None,Dot,None,Line,2,0.0,0,5.125,0,5.125,0,5.125,0,0.0,0.625,0,0.0,0,0.0,1,0.5,1,2.125,0,0,0,0,0,0,0,0,0,,,,,0,26,26,26,,,,,,,,,263.2616304579997,263.2616304579997,263.2616304579997,263.2616304579997,263.2616304579997,263.2616304579997,263.2616304579997,263.2616304579997,263.2412193743333,263.2616304579997,263.2616304579997,263.2616304579997,263.2412193743333,263.2616304579997,263.2616304579997,263.2616304579997,265.37518075000025,269.3249577080005,263.2616304579997,263.2616304579997,268.393171791,263.73802829099986,264.7482802909999,265.37518075000025,266.39285316600035,263.2616304579997,263.2616304579997,263.25788604099995,263.2616304579997,263.2616304579997,263.2616304579997,263.25788604099995,263.2616304579997,263.2616304579997,268.393171791,263.2616304579997,268.393171791,268.4808976659997,269.10538204099976,263.2616304579997,2,1,0.5801062080008705,reldom2_s016,001,2025-02-18_16h17.16.775,Vis-A-Scan_AC,2022.2.5,None,
21,First_Order,4.0,viswhere,stimulus/viswhere_stim/blank_white.png,stimulus/viswhere_stim/blank_white.png,stimulus/viswhere_stim/120-deg_dot-left_cyan.png,stimulus/viswhere_stim/150-deg_dot-left_seagreen.png,stimulus/viswhere_stim/blank_white.png,stimulus/viswhere_stim/line_box.png,stimulus/viswhere_stim/line_yes.png,stimulus/viswhere_stim/line_no.png,None,Line,None,Dot,2,0.0,0,5.125,0,5.125,0,5.125,0,0.0,0.625,0,0.0,0,0.0,1,0.5,1,2.125,0,0,0,0,0,0,0,0,0,,,,,0,27,27,27,,,,,,,,,269.3249577080005,269.3249577080005,269.3249577080005,269.3249577080005,269.3249577080005,269.3249577080005,269.3249577080005,269.3249577080005,269.30441491633366,269.3249577080005,269.3249577080005,269.3249577080005,269.30441491633366,269.3249577080005,269.3249577080005,269.3249577080005,271.4323727910005,275.3911521660002,269.3249577080005,269.3249577080005,274.46409491600025,269.80290587499985,270.8205497910003,271.4323727910005,272.4363562079998,269.3249577080005,269.3249577080005,269.3210815830003,269.3249577080005,269.3249577080005,269.3249577080005,269.3210815830003,269.3249577080005,269.3249577080005,274.46409491600025,269.3249577080005,274.46409491600025,274.54993320799986,275.1761105000005,269.3249577080005,2,1,0.8125301660002151,reldom2_s016,001,2025-02-18_16h17.16.775,Vis-A-Scan_AC,2022.2.5,None,
22,First_Order,4.0,viswhere,stimulus/viswhere_stim/blank_white.png,stimulus/viswhere_stim/blank_white.png,stimulus/viswhere_stim/150-deg_dot-right_seagreen.png,stimulus/viswhere_stim/150-deg_dot-left_slateblue.png,stimulus/viswhere_stim/blank_white.png,stimulus/viswhere_stim/line_box.png,stimulus/viswhere_stim/line_yes.png,stimulus/viswhere_stim/line_no.png,None,Line,None,Line,1,0.0,0,5.125,0,5.125,0,5.125,0,0.0,0.625,0,0.0,0,0.0,1,0.5,1,2.125,0,0,0,0,0,0,0,0,0,,,,,0,28,28,28,,,,,,,,,275.3911521660002,275.3911521660002,275.3911521660002,275.3911521660002,275.3911521660002,275.3911521660002,275.3911521660002,275.3911521660002,275.3700370413338,275.3911521660002,275.3911521660002,275.3911521660002,275.3700370413338,275.3911521660002,275.3911521660002,275.3911521660002,277.4905051659998,281.53126291599983,275.3911521660002,275.3911521660002,280.5282828750005,275.8736079580003,276.8765408750005,277.4905051659998,278.49849950000043,275.3911521660002,275.3911521660002,275.3867037080004,275.3911521660002,275.3911521660002,275.3911521660002,275.3867037080004,275.3911521660002,275.3911521660002,280.5282828750005,275.3911521660002,280.5282828750005,280.61153754099996,281.2402830000001,275.3911521660002,2,0,2.991220500000054,reldom2_s016,001,2025-02-18_16h17.16.775,Vis-A-Scan_AC,2022.2.5,None,
0,0.0,None,fixation,stimulus/viswhat_stim/blank_white.png,stimulus/viswhat_stim/blank_white.png,stimulus/viswhere_stim/blank_white.png,stimulus/viswhere_stim/blank_white.png,stimulus/viswhat_stim/blank_white.png,stimulus/viswhat_stim/blank_white.png,stimulus/viswhat_stim/blank_white.png,stimulus/viswhat_stim/blank_white.png,0.0,0.0,0.0,0.0,0,0.0,0,0.0,0,0.0,0,0.0,0,0.0,0.0,0,0.0,0,0.0,0,0.0,0,0.0,0,0,0,0,0,0,0,0,9,,,,,0,29,29,29,,,,,,,,,281.53126291599983,281.53126291599983,281.53126291599983,281.53126291599983,281.53126291599983,281.53126291599983,281.53126291599983,281.53126291599983,281.434174833333,281.53126291599983,281.53126291599983,281.53126291599983,281.434174833333,281.53126291599983,281.53126291599983,281.53126291599983,281.53126291599983,281.53126291599983,281.53126291599983,281.53126291599983,281.53126291599983,281.53126291599983,281.53126291599983,281.53126291599983,281.53126291599983,281.53126291599983,281.53126291599983,281.484174833333,281.53126291599983,281.53126291599983,281.53126291599983,281.484174833333,281.53126291599983,281.53126291599983,281.53126291599983,281.53126291599983,281.53126291599983,286.76111908300027,286.76111908300027,290.65987808299997,None,0,,reldom2_s016,001,2025-02-18_16h17.16.775,Vis-A-Scan_AC,2022.2.5,None,
23,Second_Order,4.0,viswhere,stimulus/viswhere_stim/90-deg_dot-right_salmon.png,stimulus/viswhere_stim/150-deg_dot-right_seagreen.png,stimulus/viswhere_stim/150-deg_dot-right_mediumslateblue.png,stimulus/viswhere_stim/150-deg_dot-left_lightsseagreen.png,stimulus/viswhat_stim/match_blank.png,stimulus/viswhat_stim/match_box.png,stimulus/viswhat_stim/match_yes.png,stimulus/viswhat_stim/match_no.png,2.0,Match,Dot,Line,2,5.125,0,5.125,0,5.125,0,5.125,0,0.75,0.75,1,0.5,1,2.125,1,0.5,1,2.125,0,0,0,0,0,0,0,0,0,,,,,0,30,30,30,,,,,,,,,290.65987808299997,295.78042174999973,291.14061933300036,292.1388820000002,292.76183562500046,293.75963954100007,290.65987808299997,290.65987808299997,290.65853829166633,290.65987808299997,290.65987808299997,290.65987808299997,290.65853829166633,290.65987808299997,295.78042174999973,296.5774178749998,298.6480005000003,302.5461888330001,296.5774178749998,296.5774178749998,301.71027641599994,297.0253089580001,298.0304672080001,298.6480005000003,299.65791254099986,296.5774178749998,296.5774178749998,296.56577429100054,296.5774178749998,296.5774178749998,296.5774178749998,296.56577429100054,296.5774178749998,296.5774178749998,301.71027641599994,296.5774178749998,301.71027641599994,301.7648195410002,302.5461888330001,296.5774178749998,2,1,0.6094605839998621,reldom2_s016,001,2025-02-18_16h17.16.775,Vis-A-Scan_AC,2022.2.5,None,
24,Second_Order,4.0,viswhere,stimulus/viswhere_stim/90-deg_dot-left_cyan.png,stimulus/viswhere_stim/60-deg_dot-left_slateblue.png,stimulus/viswhere_stim/120-deg_dot-right_goldenrod.png,stimulus/viswhere_stim/90-deg_dot-right_seagreen.png,stimulus/viswhat_stim/match_blank.png,stimulus/viswhat_stim/match_box.png,stimulus/viswhat_stim/match_yes.png,stimulus/viswhat_stim/match_no.png,1.0,Match,Dot,Dot,1,5.125,0,5.125,0,5.125,0,5.125,0,0.625,0.625,1,0.5,1,2.125,1,0.5,1,2.125,0,0,0,0,0,0,0,0,0,,,,,0,31,31,31,,,,,,,,,302.5461888330001,307.66288479099967,303.0305646249999,304.01966991599966,304.65578566600016,305.653786416,302.5461888330001,302.5461888330001,302.5590813750003,302.5461888330001,302.5461888330001,302.5461888330001,302.5590813750003,302.5461888330001,307.66288479099967,308.33135374999983,310.4134972080001,314.4507152080005,308.33135374999983,308.33135374999983,313.45835112500026,308.7936604160004,309.8028385409998,310.4134972080001,311.4308645829997,308.33135374999983,308.33135374999983,308.30960549933343,308.33135374999983,308.33135374999983,308.33135374999983,308.30960549933343,308.33135374999983,308.33135374999983,313.45835112500026,308.33135374999983,313.45835112500026,313.528019333,314.1580102079997,308.33135374999983,1,1,0.7785196670001824,reldom2_s016,001,2025-02-18_16h17.16.775,Vis-A-Scan_AC,2022.2.5,None,
0,0.0,None,fixation,stimulus/viswhat_stim/blank_white.png,stimulus/viswhat_stim/blank_white.png,stimulus/viswhere_stim/blank_white.png,stimulus/viswhere_stim/blank_white.png,stimulus/viswhat_stim/blank_white.png,stimulus/viswhat_stim/blank_white.png,stimulus/viswhat_stim/blank_white.png,stimulus/viswhat_stim/blank_white.png,0.0,0.0,0.0,0.0,0,0.0,0,0.0,0,0.0,0,0.0,0,0.0,0.0,0,0.0,0,0.0,0,0.0,0,0.0,0,0,0,0,0,0,0,0,10,,,,,0,32,32,32,,,,,,,,,314.4507152080005,314.4507152080005,314.4507152080005,314.4507152080005,314.4507152080005,314.4507152080005,314.4507152080005,314.4507152080005,314.352562708333,314.4507152080005,314.4507152080005,314.4507152080005,314.352562708333,314.4507152080005,314.4507152080005,314.4507152080005,314.4507152080005,314.4507152080005,314.4507152080005,314.4507152080005,314.4507152080005,314.4507152080005,314.4507152080005,314.4507152080005,314.4507152080005,314.4507152080005,314.4507152080005,314.402562708333,314.4507152080005,314.4507152080005,314.4507152080005,314.402562708333,314.4507152080005,314.4507152080005,314.4507152080005,314.4507152080005,314.4507152080005,319.6425198750003,319.6425198750003,324.68263775000014,None,0,,reldom2_s016,001,2025-02-18_16h17.16.775,Vis-A-Scan_AC,2022.2.5,None,
25,First_Order,5.0,viswhat,stimulus/viswhat_stim/blank_white.png,stimulus/viswhat_stim/blank_white.png,stimulus/viswhat_stim/land_vehicle-shortbus.png,stimulus/viswhat_stim/land_animal-pig.png,stimulus/viswhat_stim/blank_white.png,stimulus/viswhat_stim/location_box.png,stimulus/viswhat_stim/location_yes.png,stimulus/viswhat_stim/location_no.png,None,Location,None,Location,1,0.0,0,5.125,0,5.125,0,5.125,0,0.0,0.625,0,0.0,0,0.0,1,0.5,1,2.125,0,0,0,0,0,0,0,0,0,,,,,0,33,33,33,,,,,,,,,324.68263775000014,324.68263775000014,324.68263775000014,324.68263775000014,324.68263775000014,324.68263775000014,324.68263775000014,324.68263775000014,324.64553158266665,324.68263775000014,324.68263775000014,324.68263775000014,324.64553158266665,324.68263775000014,324.68263775000014,324.68263775000014,326.7788070409997,,324.68263775000014,324.68263775000014,329.8395917910002,325.14784991600027,326.16864483300014,326.7788070409997,327.80062700000053,324.68263775000014,324.68263775000014,324.66219824933336,324.68263775000014,324.68263775000014,324.68263775000014,324.66219824933336,324.68263775000014,324.68263775000014,329.8395917910002,324.68263775000014,329.8395917910002,329.91109320800024,330.54263400000036,324.68263775000014,1,1,1.4335662500006947,reldom2_s016,001,2025-02-18_16h17.16.775,Vis-A-Scan_AC,2022.2.5,None,
26,First_Order,5.0,viswhat,stimulus/viswhat_stim/blank_white.png,stimulus/viswhat_stim/blank_white.png,stimulus/viswhat_stim/land_vehicle-rv.png,stimulus/viswhat_stim/land_animal-bunny.png,stimulus/viswhat_stim/blank_white.png,stimulus/viswhat_stim/type_box.png,stimulus/viswhat_stim/type_yes.png,stimulus/viswhat_stim/type_no.png,None,Type,None,Location,2,0.0,0,5.125,0,5.125,0,5.125,0,0.0,0.625,0,0.0,0,0.0,1,0.5,1,2.125,0,0,0,0,0,0,0,0,0,,,,,0,34,34,34,,,,,,,,,330.79483274999984,330.79483274999984,330.79483274999984,330.79483274999984,330.79483274999984,330.79483274999984,330.79483274999984,330.79483274999984,330.7127454160005,330.79483274999984,330.79483274999984,330.79483274999984,330.7127454160005,330.79483274999984,330.79483274999984,330.79483274999984,332.8853130409998,,330.79483274999984,330.79483274999984,335.9784375830004,331.26867958300045,332.31496400000015,332.8853130409998,333.9371047499999,330.79483274999984,330.79483274999984,330.7627454160005,330.79483274999984,330.79483274999984,330.79483274999984,330.7627454160005,330.79483274999984,330.79483274999984,335.9784375830004,330.79483274999984,335.9784375830004,336.0204938750003,336.68812824999986,330.79483274999984,2,1,0.5091737920001833,reldom2_s016,001,2025-02-18_16h17.16.775,Vis-A-Scan_AC,2022.2.5,None,
27,First_Order,5.0,viswhat,stimulus/viswhat_stim/blank_white.png,stimulus/viswhat_stim/blank_white.png,stimulus/viswhat_stim/land_animal-zebra.png,stimulus/viswhat_stim/land_vehicle-oldcar.png,stimulus/viswhat_stim/blank_white.png,stimulus/viswhat_stim/location_box.png,stimulus/viswhat_stim/location_yes.png,stimulus/viswhat_stim/location_no.png,None,Location,None,Location,1,0.0,0,5.125,0,5.125,0,5.125,0,0.0,0.625,0,0.0,0,0.0,1,0.5,1,2.125,0,0,0,0,0,0,0,0,0,,,,,0,35,35,35,,,,,,,,,336.89853358300024,336.89853358300024,336.89853358300024,336.89853358300024,336.89853358300024,336.89853358300024,336.89853358300024,336.89853358300024,336.8214615833332,336.89853358300024,336.89853358300024,336.89853358300024,336.8214615833332,336.89853358300024,336.89853358300024,336.89853358300024,339.0012471250002,,336.89853358300024,336.89853358300024,342.07577158300046,337.37994270800027,338.43226104099995,339.0012471250002,340.06153970800005,336.89853358300024,336.89853358300024,336.8547949166665,336.89853358300024,336.89853358300024,336.89853358300024,336.8547949166665,336.89853358300024,336.89853358300024,342.07577158300046,336.89853358300024,342.07577158300046,342.1143860410002,342.76335587500034,336.89853358300024,1,1,0.8298997499996403,reldom2_s016,001,2025-02-18_16h17.16.775,Vis-A-Scan_AC,2022.2.5,None,
28,First_Order,5.0,viswhat,stimulus/viswhat_stim/blank_white.png,stimulus/viswhat_stim/blank_white.png,stimulus/viswhat_stim/water_vehicle-canoe.png,stimulus/viswhat_stim/land_vehicle-trolley.png,stimulus/viswhat_stim/blank_white.png,stimulus/viswhat_stim/type_box.png,stimulus/viswhat_stim/type_yes.png,stimulus/viswhat_stim/type_no.png,None,Type,None,Type,1,0.0,0,5.125,0,5.125,0,5.125,0,0.0,0.625,0,0.0,0,0.0,1,0.5,1,2.125,0,0,0,0,0,0,0,0,0,,,,,0,36,36,36,,,,,,,,,342.968790375,342.968790375,342.968790375,342.968790375,342.968790375,342.968790375,342.968790375,342.968790375,342.93497587433296,342.968790375,342.968790375,342.968790375,342.93497587433296,342.968790375,342.968790375,342.968790375,345.07365829100036,349.1098212910001,342.968790375,342.968790375,348.11332933300037,343.45592604099966,344.4848956249998,345.07365829100036,346.1061212499999,342.968790375,342.968790375,342.9516425409996,342.968790375,342.968790375,342.968790375,342.9516425409996,342.968790375,342.968790375,348.11332933300037,342.968790375,348.11332933300037,348.19391112500034,348.8350735410004,342.968790375,1,1,2.0721927499998856,reldom2_s016,001,2025-02-18_16h17.16.775,Vis-A-Scan_AC,2022.2.5,None,
0,0.0,None,fixation,stimulus/viswhat_stim/blank_white.png,stimulus/viswhat_stim/blank_white.png,stimulus/viswhere_stim/blank_white.png,stimulus/viswhere_stim/blank_white.png,stimulus/viswhat_stim/blank_white.png,stimulus/viswhat_stim/blank_white.png,stimulus/viswhat_stim/blank_white.png,stimulus/viswhat_stim/blank_white.png,0.0,0.0,0.0,0.0,0,0.0,0,0.0,0,0.0,0,0.0,0,0.0,0.0,0,0.0,0,0.0,0,0.0,0,0.0,0,0,0,0,0,0,0,0,9,,,,,0,37,37,37,,,,,,,,,349.1098212910001,349.1098212910001,349.1098212910001,349.1098212910001,349.1098212910001,349.1098212910001,349.1098212910001,349.1098212910001,349.01511824999994,349.1098212910001,349.1098212910001,349.1098212910001,349.01511824999994,349.1098212910001,349.1098212910001,349.1098212910001,349.1098212910001,349.1098212910001,349.1098212910001,349.1098212910001,349.1098212910001,349.1098212910001,349.1098212910001,349.1098212910001,349.1098212910001,349.1098212910001,349.1098212910001,349.06511824999995,349.1098212910001,349.1098212910001,349.1098212910001,349.06511824999995,349.1098212910001,349.1098212910001,349.1098212910001,349.1098212910001,349.1098212910001,354.2974960829997,354.2974960829997,358.26937529099996,None,0,,reldom2_s016,001,2025-02-18_16h17.16.775,Vis-A-Scan_AC,2022.2.5,None,
29,Second_Order,5.0,viswhat,stimulus/viswhat_stim/land_vehicle-schoolbus.png,stimulus/viswhat_stim/land_animal-snake.png,stimulus/viswhat_stim/water_vehicle-cruiser.png,stimulus/viswhat_stim/water_animal-whale.png,stimulus/viswhat_stim/match_blank.png,stimulus/viswhat_stim/match_box.png,stimulus/viswhat_stim/match_yes.png,stimulus/viswhat_stim/match_no.png,1.0,Match,Location,Location,1,5.125,0,5.125,0,5.125,0,5.125,0,0.75,0.75,1,0.5,1,2.125,1,0.5,1,2.125,0,0,0,0,0,0,0,0,0,,,,,0,38,38,38,,,,,,,,,358.26937529099996,363.3925110830005,358.74681775000045,359.74577924999994,360.3671912079999,361.3661062910005,358.26937529099996,358.26937529099996,358.27891362433377,358.26937529099996,358.26937529099996,358.26937529099996,358.27891362433377,358.26937529099996,363.3925110830005,364.2911500830005,366.345771583,,364.2911500830005,364.2911500830005,369.4999260000004,364.70236858299995,365.80010554100045,366.345771583,367.4410779159998,364.2911500830005,364.2911500830005,364.225126375,364.2911500830005,364.2911500830005,364.2911500830005,364.225126375,364.2911500830005,364.2911500830005,369.4999260000004,364.2911500830005,369.4999260000004,369.4369269580002,,364.2911500830005,2,0,2.739494792000187,reldom2_s016,001,2025-02-18_16h17.16.775,Vis-A-Scan_AC,2022.2.5,None,
30,Second_Order,5.0,viswhat,stimulus/viswhat_stim/land_vehicle-tank.png,stimulus/viswhat_stim/water_vehicle-cabincruiser.png,stimulus/viswhat_stim/land_animal-pig.png,stimulus/viswhat_stim/water_animal-stingray.png,stimulus/viswhat_stim/match_blank.png,stimulus/viswhat_stim/match_box.png,stimulus/viswhat_stim/match_yes.png,stimulus/viswhat_stim/match_no.png,1.0,Match,Type,Type,1,5.125,0,5.125,0,5.125,0,5.125,0,0.625,0.625,1,0.5,1,2.125,1,0.5,1,2.125,0,0,0,0,0,0,0,0,0,,,,,0,39,39,39,,,,,,,,,370.2207175000003,375.3364369580004,370.69057979100035,371.6893614159999,372.31284366599994,373.3098667080003,370.2207175000003,370.2207175000003,370.2211488329998,370.2207175000003,370.2207175000003,370.2207175000003,370.2211488329998,370.2207175000003,375.3364369580004,376.011043083,378.0806523330002,382.1360325830001,376.011043083,376.011043083,381.1350426250001,376.4693287910004,377.49304200000006,378.0806523330002,379.0894207500005,376.011043083,376.011043083,375.98273095833383,376.011043083,376.011043083,376.011043083,375.98273095833383,376.011043083,376.011043083,381.1350426250001,376.011043083,381.1350426250001,381.1998934160001,381.8312390829997,376.011043083,2,0,0.8641780409998319,reldom2_s016,001,2025-02-18_16h17.16.775,Vis-A-Scan_AC,2022.2.5,None,
0,0.0,None,fixation,stimulus/viswhat_stim/blank_white.png,stimulus/viswhat_stim/blank_white.png,stimulus/viswhere_stim/blank_white.png,stimulus/viswhere_stim/blank_white.png,stimulus/viswhat_stim/blank_white.png,stimulus/viswhat_stim/blank_white.png,stimulus/viswhat_stim/blank_white.png,stimulus/viswhat_stim/blank_white.png,0.0,0.0,0.0,0.0,0,0.0,0,0.0,0,0.0,0,0.0,0,0.0,0.0,0,0.0,0,0.0,0,0.0,0,0.0,0,0,0,0,0,0,0,0,10,,,,,0,40,40,40,,,,,,,,,382.1360325830001,382.1360325830001,382.1360325830001,382.1360325830001,382.1360325830001,382.1360325830001,382.1360325830001,382.1360325830001,382.03145354133295,382.1360325830001,382.1360325830001,382.1360325830001,382.03145354133295,382.1360325830001,382.1360325830001,382.1360325830001,382.1360325830001,382.1360325830001,382.1360325830001,382.1360325830001,382.1360325830001,382.1360325830001,382.1360325830001,382.1360325830001,382.1360325830001,382.1360325830001,382.1360325830001,382.0981202079996,382.1360325830001,382.1360325830001,382.1360325830001,382.0981202079996,382.1360325830001,382.1360325830001,382.1360325830001,382.1360325830001,382.1360325830001,387.3290575000001,387.3290575000001,392.3605232910004,None,0,,reldom2_s016,001,2025-02-18_16h17.16.775,Vis-A-Scan_AC,2022.2.5,None,
31,First_Order,6.0,viswhat,stimulus/viswhat_stim/blank_white.png,stimulus/viswhat_stim/blank_white.png,stimulus/viswhat_stim/land_vehicle-rv.png,stimulus/viswhat_stim/land_animal-ostrich.png,stimulus/viswhat_stim/blank_white.png,stimulus/viswhat_stim/type_box.png,stimulus/viswhat_stim/type_yes.png,stimulus/viswhat_stim/type_no.png,None,Type,None,Location,2,0.0,0,5.125,0,5.125,0,5.125,0,0.0,0.625,0,0.0,0,0.0,1,0.5,1,2.125,0,0,0,0,0,0,0,0,0,,,,,0,41,41,41,,,,,,,,,392.3605232910004,392.3605232910004,392.3605232910004,392.3605232910004,392.3605232910004,392.3605232910004,392.3605232910004,392.3605232910004,392.3308768326666,392.3605232910004,392.3605232910004,392.3605232910004,392.3308768326666,392.3605232910004,392.3605232910004,392.3605232910004,394.470641291,398.4985907910004,392.3605232910004,392.3605232910004,397.49712383299993,392.84112283299964,393.87079087500024,394.470641291,395.4832550829997,392.3605232910004,392.3605232910004,392.3475434993333,392.3605232910004,392.3605232910004,392.3605232910004,392.3475434993333,392.3605232910004,392.3605232910004,397.49712383299993,392.3605232910004,397.49712383299993,397.5709564159997,398.213317791,392.3605232910004,2,1,1.8039220420005222,reldom2_s016,001,2025-02-18_16h17.16.775,Vis-A-Scan_AC,2022.2.5,None,
32,First_Order,6.0,viswhat,stimulus/viswhat_stim/blank_white.png,stimulus/viswhat_stim/blank_white.png,stimulus/viswhat_stim/land_animal-moose.png,stimulus/viswhat_stim/water_animal-dolphin.png,stimulus/viswhat_stim/blank_white.png,stimulus/viswhat_stim/type_box.png,stimulus/viswhat_stim/type_yes.png,stimulus/viswhat_stim/type_no.png,None,Type,None,Type,1,0.0,0,5.125,0,5.125,0,5.125,0,0.0,0.625,0,0.0,0,0.0,1,0.5,1,2.125,0,0,0,0,0,0,0,0,0,,,,,0,42,42,42,,,,,,,,,398.4985907910004,398.4985907910004,398.4985907910004,398.4985907910004,398.4985907910004,398.4985907910004,398.4985907910004,398.4985907910004,398.405292,398.4985907910004,398.4985907910004,398.4985907910004,398.405292,398.4985907910004,398.4985907910004,398.4985907910004,400.60548033299983,,398.4985907910004,398.4985907910004,403.7038586660001,398.9660270000004,400.0208625410005,400.60548033299983,401.65946741599964,398.4985907910004,398.4985907910004,398.455292,398.4985907910004,398.4985907910004,398.4985907910004,398.455292,398.4985907910004,398.4985907910004,403.7038586660001,398.4985907910004,403.7038586660001,403.7038586660001,404.5569971249997,398.4985907910004,1,1,1.6666531250002663,reldom2_s016,001,2025-02-18_16h17.16.775,Vis-A-Scan_AC,2022.2.5,None,
33,First_Order,6.0,viswhat,stimulus/viswhat_stim/blank_white.png,stimulus/viswhat_stim/blank_white.png,stimulus/viswhat_stim/land_vehicle-buldozer.png,stimulus/viswhat_stim/water_vehicle-canoe.png,stimulus/viswhat_stim/blank_white.png,stimulus/viswhat_stim/location_box.png,stimulus/viswhat_stim/location_yes.png,stimulus/viswhat_stim/location_no.png,None,Location,None,Type,2,0.0,0,5.125,0,5.125,0,5.125,0,0.0,0.625,0,0.0,0,0.0,1,0.5,1,2.125,0,0,0,0,0,0,0,0,0,,,,,0,43,43,43,,,,,,,,,404.5569971249997,404.5569971249997,404.5569971249997,404.5569971249997,404.5569971249997,404.5569971249997,404.5569971249997,404.5569971249997,404.50670029166633,404.5569971249997,404.5569971249997,404.5569971249997,404.50670029166633,404.5569971249997,404.5569971249997,404.5569971249997,406.6525252500005,410.6274739999999,404.5569971249997,404.5569971249997,409.7238900000002,405.0262574159997,406.07614004100014,406.6525252500005,407.70128600000044,404.5569971249997,404.5569971249997,404.52336695833304,404.5569971249997,404.5569971249997,404.5569971249997,404.52336695833304,404.5569971249997,404.5569971249997,409.7238900000002,404.5569971249997,409.7238900000002,409.78471508300026,410.42474958300045,404.5569971249997,2,1,1.3629904580002403,reldom2_s016,001,2025-02-18_16h17.16.775,Vis-A-Scan_AC,2022.2.5,None,
34,First_Order,6.0,viswhat,stimulus/viswhat_stim/blank_white.png,stimulus/viswhat_stim/blank_white.png,stimulus/viswhat_stim/land_vehicle-scooter.png,stimulus/viswhat_stim/water_vehicle-motorboatraft.png,stimulus/viswhat_stim/blank_white.png,stimulus/viswhat_stim/location_box.png,stimulus/viswhat_stim/location_yes.png,stimulus/viswhat_stim/location_no.png,None,Location,None,Type,2,0.0,0,5.125,0,5.125,0,5.125,0,0.0,0.625,0,0.0,0,0.0,1,0.5,1,2.125,0,0,0,0,0,0,0,0,0,,,,,0,44,44,44,,,,,,,,,410.6274739999999,410.6274739999999,410.6274739999999,410.6274739999999,410.6274739999999,410.6274739999999,410.6274739999999,410.6274739999999,410.6018177916666,410.6274739999999,410.6274739999999,410.6274739999999,410.6018177916666,410.6274739999999,410.6274739999999,410.6274739999999,412.737917208,416.77576237500034,410.6274739999999,410.6274739999999,415.7693131249998,411.10271983300026,412.1179008750005,412.737917208,413.75982312500037,410.6274739999999,410.6274739999999,410.6184844583332,410.6274739999999,410.6274739999999,410.6274739999999,410.6184844583332,410.6274739999999,410.6274739999999,415.7693131249998,410.6274739999999,415.7693131249998,415.84432891600045,416.48053920799975,410.6274739999999,2,1,0.9787156669999604,reldom2_s016,001,2025-02-18_16h17.16.775,Vis-A-Scan_AC,2022.2.5,None,
0,0.0,None,fixation,stimulus/viswhat_stim/blank_white.png,stimulus/viswhat_stim/blank_white.png,stimulus/viswhere_stim/blank_white.png,stimulus/viswhere_stim/blank_white.png,stimulus/viswhat_stim/blank_white.png,stimulus/viswhat_stim/blank_white.png,stimulus/viswhat_stim/blank_white.png,stimulus/viswhat_stim/blank_white.png,0.0,0.0,0.0,0.0,0,0.0,0,0.0,0,0.0,0,0.0,0,0.0,0.0,0,0.0,0,0.0,0,0.0,0,0.0,0,0,0,0,0,0,0,0,8,,,,,0,45,45,45,,,,,,,,,416.77576237500034,416.77576237500034,416.77576237500034,416.77576237500034,416.77576237500034,416.77576237500034,416.77576237500034,416.77576237500034,416.67381599933316,416.77576237500034,416.77576237500034,416.77576237500034,416.67381599933316,416.77576237500034,416.77576237500034,416.77576237500034,416.77576237500034,416.77576237500034,416.77576237500034,416.77576237500034,416.77576237500034,416.77576237500034,416.77576237500034,416.77576237500034,416.77576237500034,416.77576237500034,416.77576237500034,416.72381599933317,416.77576237500034,416.77576237500034,416.77576237500034,416.72381599933317,416.77576237500034,416.77576237500034,416.77576237500034,416.77576237500034,416.77576237500034,421.97159525000006,421.97159525000006,424.9150544160002,None,0,,reldom2_s016,001,2025-02-18_16h17.16.775,Vis-A-Scan_AC,2022.2.5,None,
35,Second_Order,6.0,viswhat,stimulus/viswhat_stim/land_vehicle-train.png,stimulus/viswhat_stim/land_animal-moose.png,stimulus/viswhat_stim/land_vehicle-schoolbus.png,stimulus/viswhat_stim/water_vehicle-sailboat.png,stimulus/viswhat_stim/match_blank.png,stimulus/viswhat_stim/match_box.png,stimulus/viswhat_stim/match_yes.png,stimulus/viswhat_stim/match_no.png,2.0,Match,Location,Type,2,5.125,0,5.125,0,5.125,0,5.125,0,0.75,0.75,1,0.5,1,2.125,1,0.5,1,2.125,0,0,0,0,0,0,0,0,0,,,,,0,46,46,46,,,,,,,,,424.9150544160002,430.02886300000046,425.36316766599975,426.35286925000037,426.9880722910002,427.9862662080004,424.9150544160002,424.9150544160002,424.92766658266703,424.9150544160002,424.9150544160002,424.9150544160002,424.92766658266703,424.9150544160002,430.02886300000046,430.89136145799966,432.95073125,,430.89136145799966,430.89136145799966,436.0912657910003,431.3017632500005,432.38354470800004,432.95073125,433.9859434580003,430.89136145799966,430.89136145799966,430.8464202913331,430.89136145799966,430.89136145799966,430.89136145799966,430.8464202913331,430.89136145799966,430.89136145799966,436.0912657910003,430.89136145799966,436.0912657910003,436.0912657910003,,430.89136145799966,2,1,0.7753147499997795,reldom2_s016,001,2025-02-18_16h17.16.775,Vis-A-Scan_AC,2022.2.5,None,
36,Second_Order,6.0,viswhat,stimulus/viswhat_stim/land_animal-moose.png,stimulus/viswhat_stim/land_vehicle-schoolbus.png,stimulus/viswhat_stim/land_vehicle-pickuptruck.png,stimulus/viswhat_stim/water_vehicle-canoe(1).png,stimulus/viswhat_stim/match_blank.png,stimulus/viswhat_stim/match_box.png,stimulus/viswhat_stim/match_yes.png,stimulus/viswhat_stim/match_no.png,2.0,Match,Location,Type,2,5.125,0,5.125,0,5.125,0,5.125,0,0.625,0.625,1,0.5,1,2.125,1,0.5,1,2.125,0,0,0,0,0,0,0,0,0,,,,,0,47,47,47,,,,,,,,,436.87312475,441.9893257499998,437.31203916600043,438.31018333300017,438.9459286660003,439.93507124999996,436.87312475,436.87312475,436.8820907080002,436.87312475,436.87312475,436.87312475,436.8820907080002,436.87312475,441.9893257499998,442.6679806250004,444.7396749159998,448.7897317500001,442.6679806250004,442.6679806250004,447.8074830000005,443.1242022910001,444.13688100000036,444.7396749159998,445.7581074159998,442.6679806250004,442.6679806250004,442.65371062500054,442.6679806250004,442.6679806250004,442.6679806250004,442.65371062500054,442.6679806250004,442.6679806250004,447.8074830000005,442.6679806250004,447.8074830000005,447.8551690000004,448.48524879100023,442.6679806250004,2,1,0.7652557500005059,reldom2_s016,001,2025-02-18_16h17.16.775,Vis-A-Scan_AC,2022.2.5,None,
0,0.0,None,fixation,stimulus/viswhat_stim/blank_white.png,stimulus/viswhat_stim/blank_white.png,stimulus/viswhere_stim/blank_white.png,stimulus/viswhere_stim/blank_white.png,stimulus/viswhat_stim/blank_white.png,stimulus/viswhat_stim/blank_white.png,stimulus/viswhat_stim/blank_white.png,stimulus/viswhat_stim/blank_white.png,0.0,0.0,0.0,0.0,0,0.0,0,0.0,0,0.0,0,0.0,0,0.0,0.0,0,0.0,0,0.0,0,0.0,0,0.0,0,0,0,0,0,0,0,0,8,,,,,0,48,48,48,,,,,,,,,448.7897317500001,448.7897317500001,448.7897317500001,448.7897317500001,448.7897317500001,448.7897317500001,448.7897317500001,448.7897317500001,448.6851987083331,448.7897317500001,448.7897317500001,448.7897317500001,448.6851987083331,448.7897317500001,448.7897317500001,448.7897317500001,448.7897317500001,448.7897317500001,448.7897317500001,448.7897317500001,448.7897317500001,448.7897317500001,448.7897317500001,448.7897317500001,448.7897317500001,448.7897317500001,448.7897317500001,448.75186537499974,448.7897317500001,448.7897317500001,448.7897317500001,448.75186537499974,448.7897317500001,448.7897317500001,448.7897317500001,448.7897317500001,448.7897317500001,454.0163676250004,454.0163676250004,456.9784660000005,None,0,,reldom2_s016,001,2025-02-18_16h17.16.775,Vis-A-Scan_AC,2022.2.5,None,
37,First_Order,7.0,viswhere,stimulus/viswhere_stim/blank_white.png,stimulus/viswhere_stim/blank_white.png,stimulus/viswhere_stim/120-deg_dot-right_turquoise.png,stimulus/viswhere_stim/120-deg_dot-left_slateblue.png,stimulus/viswhere_stim/blank_white.png,stimulus/viswhere_stim/line_box.png,stimulus/viswhere_stim/line_yes.png,stimulus/viswhere_stim/line_no.png,None,Line,None,Line,1,0.0,0,5.125,0,5.125,0,5.125,0,0.0,0.625,0,0.0,0,0.0,1,0.5,1,2.125,0,0,0,0,0,0,0,0,0,,,,,0,49,49,49,,,,,,,,,456.9784660000005,456.9784660000005,456.9784660000005,456.9784660000005,456.9784660000005,456.9784660000005,456.9784660000005,456.9784660000005,456.9586842076666,456.9784660000005,456.9784660000005,456.9784660000005,456.9586842076666,456.9784660000005,456.9784660000005,456.9784660000005,459.08803104100025,463.0531406660002,456.9784660000005,456.9784660000005,462.10185983300016,457.45364987500034,458.4627042909997,459.08803104100025,460.1022109579999,456.9784660000005,456.9784660000005,456.9753508743333,456.9784660000005,456.9784660000005,456.9784660000005,456.9753508743333,456.9784660000005,456.9784660000005,462.10185983300016,456.9784660000005,462.10185983300016,462.2002512079998,462.84962716599966,456.9784660000005,1,1,1.12581770900033,reldom2_s016,001,2025-02-18_16h17.16.775,Vis-A-Scan_AC,2022.2.5,None,
38,First_Order,7.0,viswhere,stimulus/viswhere_stim/blank_white.png,stimulus/viswhere_stim/blank_white.png,stimulus/viswhere_stim/30-deg_dot-right_royalblue.png,stimulus/viswhere_stim/30-deg_dot-left_royalblue.png,stimulus/viswhere_stim/blank_white.png,stimulus/viswhere_stim/dot_box.png,stimulus/viswhere_stim/dot_yes.png,stimulus/viswhere_stim/dot_no.png,None,Dot,None,Line,2,0.0,0,5.125,0,5.125,0,5.125,0,0.0,0.625,0,0.0,0,0.0,1,0.5,1,2.125,0,0,0,0,0,0,0,0,0,,,,,0,50,50,50,,,,,,,,,463.0531406660002,463.0531406660002,463.0531406660002,463.0531406660002,463.0531406660002,463.0531406660002,463.0531406660002,463.0531406660002,463.03278624933347,463.0531406660002,463.0531406660002,463.0531406660002,463.03278624933347,463.0531406660002,463.0531406660002,463.0531406660002,465.16895920800016,469.1344447500005,463.0531406660002,463.0531406660002,468.18862341600015,463.5298371250001,464.5419924580001,465.16895920800016,466.1860554160003,463.0531406660002,463.0531406660002,463.0494529160001,463.0531406660002,463.0531406660002,463.0531406660002,463.0494529160001,463.0531406660002,463.0531406660002,468.18862341600015,463.0531406660002,468.18862341600015,468.27272962500047,468.90034325000033,463.0531406660002,2,1,0.7447764999997162,reldom2_s016,001,2025-02-18_16h17.16.775,Vis-A-Scan_AC,2022.2.5,None,
39,First_Order,7.0,viswhere,stimulus/viswhere_stim/blank_white.png,stimulus/viswhere_stim/blank_white.png,stimulus/viswhere_stim/150-deg_dot-left_peru.png,stimulus/viswhere_stim/30-deg_dot-left_goldenrod.png,stimulus/viswhere_stim/blank_white.png,stimulus/viswhere_stim/line_box.png,stimulus/viswhere_stim/line_yes.png,stimulus/viswhere_stim/line_no.png,None,Line,None,Dot,2,0.0,0,5.125,0,5.125,0,5.125,0,0.0,0.625,0,0.0,0,0.0,1,0.5,1,2.125,0,0,0,0,0,0,0,0,0,,,,,0,51,51,51,,,,,,,,,469.1344447500005,469.1344447500005,469.1344447500005,469.1344447500005,469.1344447500005,469.1344447500005,469.1344447500005,469.1344447500005,469.11357104133305,469.1344447500005,469.1344447500005,469.1344447500005,469.11357104133305,469.1344447500005,469.1344447500005,469.1344447500005,471.24855433300036,475.194088833,469.1344447500005,469.1344447500005,474.27560645799986,469.61597091600015,470.63579791600023,471.24855433300036,472.2545787500003,469.1344447500005,469.1344447500005,469.1302377079997,469.1344447500005,469.1344447500005,469.1344447500005,469.1302377079997,469.1344447500005,469.1344447500005,474.27560645799986,469.1344447500005,474.27560645799986,474.35903583300023,474.99388966600054,469.1344447500005,2,1,0.6667417090002346,reldom2_s016,001,2025-02-18_16h17.16.775,Vis-A-Scan_AC,2022.2.5,None,
40,First_Order,7.0,viswhere,stimulus/viswhere_stim/blank_white.png,stimulus/viswhere_stim/blank_white.png,stimulus/viswhere_stim/120-deg_dot-left_royalblue.png,stimulus/viswhere_stim/120-deg_dot-right_slateblue.png,stimulus/viswhere_stim/blank_white.png,stimulus/viswhere_stim/dot_box.png,stimulus/viswhere_stim/dot_yes.png,stimulus/viswhere_stim/dot_no.png,None,Dot,None,Line,2,0.0,0,5.125,0,5.125,0,5.125,0,0.0,0.625,0,0.0,0,0.0,1,0.5,1,2.125,0,0,0,0,0,0,0,0,0,,,,,0,52,52,52,,,,,,,,,475.194088833,475.194088833,475.194088833,475.194088833,475.194088833,475.194088833,475.194088833,475.194088833,475.1744754993336,475.194088833,475.194088833,475.194088833,475.1744754993336,475.194088833,475.194088833,475.194088833,477.309058541,481.33522216599977,475.194088833,475.194088833,480.3253161250004,475.669979583,476.6811112080004,477.309058541,478.3264304160002,475.194088833,475.194088833,475.1744754993336,475.194088833,475.194088833,475.194088833,475.1744754993336,475.194088833,475.194088833,480.3253161250004,475.194088833,480.3253161250004,480.4231451249998,481.05446579100044,475.194088833,2,1,0.7281979160006813,reldom2_s016,001,2025-02-18_16h17.16.775,Vis-A-Scan_AC,2022.2.5,None,
0,0.0,None,fixation,stimulus/viswhat_stim/blank_white.png,stimulus/viswhat_stim/blank_white.png,stimulus/viswhere_stim/blank_white.png,stimulus/viswhere_stim/blank_white.png,stimulus/viswhat_stim/blank_white.png,stimulus/viswhat_stim/blank_white.png,stimulus/viswhat_stim/blank_white.png,stimulus/viswhat_stim/blank_white.png,0.0,0.0,0.0,0.0,0,0.0,0,0.0,0,0.0,0,0.0,0,0.0,0.0,0,0.0,0,0.0,0,0.0,0,0.0,0,0,0,0,0,0,0,0,9,,,,,0,53,53,53,,,,,,,,,481.33522216599977,481.33522216599977,481.33522216599977,481.33522216599977,481.33522216599977,481.33522216599977,481.33522216599977,481.33522216599977,481.2383496243331,481.33522216599977,481.33522216599977,481.33522216599977,481.2383496243331,481.33522216599977,481.33522216599977,481.33522216599977,481.33522216599977,481.33522216599977,481.33522216599977,481.33522216599977,481.33522216599977,481.33522216599977,481.33522216599977,481.33522216599977,481.33522216599977,481.33522216599977,481.33522216599977,481.28834962433314,481.33522216599977,481.33522216599977,481.33522216599977,481.28834962433314,481.33522216599977,481.33522216599977,481.33522216599977,481.33522216599977,481.33522216599977,486.5355669999999,486.5355669999999,490.45868604099996,None,0,,reldom2_s016,001,2025-02-18_16h17.16.775,Vis-A-Scan_AC,2022.2.5,None,
41,Second_Order,7.0,viswhere,stimulus/viswhere_stim/90-deg_dot-right_seagreen.png,stimulus/viswhere_stim/90-deg_dot-left_salmon.png,stimulus/viswhere_stim/60-deg_dot-left_slateblue.png,stimulus/viswhere_stim/60-deg_dot-right_lightsseagreen.png,stimulus/viswhat_stim/match_blank.png,stimulus/viswhat_stim/match_box.png,stimulus/viswhat_stim/match_yes.png,stimulus/viswhat_stim/match_no.png,1.0,Match,Line,Line,1,5.125,0,5.125,0,5.125,0,5.125,0,0.75,0.75,1,0.5,1,2.125,1,0.5,1,2.125,0,0,0,0,0,0,0,0,0,,,,,0,54,54,54,,,,,,,,,490.45868604099996,495.5796805830005,490.93352079099986,491.92049883300024,492.5566900829999,493.5542655830004,490.45868604099996,490.45868604099996,490.4731990833335,490.45868604099996,490.45868604099996,490.45868604099996,490.4731990833335,490.45868604099996,495.5796805830005,496.3728170410004,498.4441592080002,502.34278433300005,496.3728170410004,496.3728170410004,501.50974612499977,496.8177994580001,497.83130787499977,498.4441592080002,499.46273262500017,496.3728170410004,496.3728170410004,496.3476193333331,496.3728170410004,496.3728170410004,496.3728170410004,496.3476193333331,496.3728170410004,496.3728170410004,501.50974612499977,496.3728170410004,501.50974612499977,501.5658167500005,502.34278433300005,496.3728170410004,1,1,0.8622128329998304,reldom2_s016,001,2025-02-18_16h17.16.775,Vis-A-Scan_AC,2022.2.5,None,
42,Second_Order,7.0,viswhere,stimulus/viswhere_stim/150-deg_dot-left_cyan.png,stimulus/viswhere_stim/60-deg_dot-left_royalblue.png,stimulus/viswhere_stim/30-deg_dot-right_mediumslateblue.png,stimulus/viswhere_stim/90-deg_dot-right_peru.png,stimulus/viswhat_stim/match_blank.png,stimulus/viswhat_stim/match_box.png,stimulus/viswhat_stim/match_yes.png,stimulus/viswhat_stim/match_no.png,1.0,Match,Dot,Dot,1,5.125,0,5.125,0,5.125,0,5.125,0,0.625,0.625,1,0.5,1,2.125,1,0.5,1,2.125,0,0,0,0,0,0,0,0,0,,,,,0,55,55,55,,,,,,,,,502.34278433300005,507.4574629580002,502.8275029160004,503.8148514579998,504.4505850410005,505.4487099580001,502.34278433300005,502.34278433300005,502.3569433330002,502.34278433300005,502.34278433300005,502.34278433300005,502.3569433330002,502.34278433300005,507.4574629580002,508.12837804100036,510.20017283299967,514.2407188750003,508.12837804100036,508.12837804100036,513.255289916,508.5911750410005,509.60548379099964,510.20017283299967,511.2192317079998,508.12837804100036,508.12837804100036,508.1045983333338,508.12837804100036,508.12837804100036,508.12837804100036,508.1045983333338,508.12837804100036,508.12837804100036,513.255289916,508.12837804100036,513.255289916,513.3296054580005,513.9612140830004,508.12837804100036,2,0,1.4926425000003292,reldom2_s016,001,2025-02-18_16h17.16.775,Vis-A-Scan_AC,2022.2.5,None,
0,0.0,None,fixation,stimulus/viswhat_stim/blank_white.png,stimulus/viswhat_stim/blank_white.png,stimulus/viswhere_stim/blank_white.png,stimulus/viswhere_stim/blank_white.png,stimulus/viswhat_stim/blank_white.png,stimulus/viswhat_stim/blank_white.png,stimulus/viswhat_stim/blank_white.png,stimulus/viswhat_stim/blank_white.png,0.0,0.0,0.0,0.0,0,0.0,0,0.0,0,0.0,0,0.0,0,0.0,0.0,0,0.0,0,0.0,0,0.0,0,0.0,0,0,0,0,0,0,0,0,8,,,,,0,56,56,56,,,,,,,,,514.2407188750003,514.2407188750003,514.2407188750003,514.2407188750003,514.2407188750003,514.2407188750003,514.2407188750003,514.2407188750003,514.1411612913338,514.2407188750003,514.2407188750003,514.2407188750003,514.1411612913338,514.2407188750003,514.2407188750003,514.2407188750003,514.2407188750003,514.2407188750003,514.2407188750003,514.2407188750003,514.2407188750003,514.2407188750003,514.2407188750003,514.2407188750003,514.2407188750003,514.2407188750003,514.2407188750003,514.1911612913337,514.2407188750003,514.2407188750003,514.2407188750003,514.1911612913337,514.2407188750003,514.2407188750003,514.2407188750003,514.2407188750003,514.2407188750003,519.467289708,519.467289708,522.4276944579997,None,0,,reldom2_s016,001,2025-02-18_16h17.16.775,Vis-A-Scan_AC,2022.2.5,None,
43,First_Order,8.0,viswhere,stimulus/viswhere_stim/blank_white.png,stimulus/viswhere_stim/blank_white.png,stimulus/viswhere_stim/150-deg_dot-left_lightsseagreen.png,stimulus/viswhere_stim/30-deg_dot-left_salmon.png,stimulus/viswhere_stim/blank_white.png,stimulus/viswhere_stim/dot_box.png,stimulus/viswhere_stim/dot_yes.png,stimulus/viswhere_stim/dot_no.png,None,Dot,None,Dot,1,0.0,0,5.125,0,5.125,0,5.125,0,0.0,0.625,0,0.0,0,0.0,1,0.5,1,2.125,0,0,0,0,0,0,0,0,0,,,,,0,57,57,57,,,,,,,,,522.4276944579997,522.4276944579997,522.4276944579997,522.4276944579997,522.4276944579997,522.4276944579997,522.4276944579997,522.4276944579997,522.4087122916668,522.4276944579997,522.4276944579997,522.4276944579997,522.4087122916668,522.4276944579997,522.4276944579997,522.4276944579997,524.5343188750003,528.4927462080004,522.4276944579997,522.4276944579997,527.553283708,522.9071489580001,523.9223152080003,524.5343188750003,525.538525125,522.4276944579997,522.4276944579997,522.4087122916668,522.4276944579997,522.4276944579997,522.4276944579997,522.4087122916668,522.4276944579997,522.4276944579997,527.553283708,522.4276944579997,527.553283708,527.6514714160003,528.27779525,522.4276944579997,2,0,0.707754207999642,reldom2_s016,001,2025-02-18_16h17.16.775,Vis-A-Scan_AC,2022.2.5,None,
44,First_Order,8.0,viswhere,stimulus/viswhere_stim/blank_white.png,stimulus/viswhere_stim/blank_white.png,stimulus/viswhere_stim/150-deg_dot-right_seagreen.png,stimulus/viswhere_stim/150-deg_dot-left_goldenrod.png,stimulus/viswhere_stim/blank_white.png,stimulus/viswhere_stim/line_box.png,stimulus/viswhere_stim/line_yes.png,stimulus/viswhere_stim/line_no.png,None,Line,None,Line,1,0.0,0,5.125,0,5.125,0,5.125,0,0.0,0.625,0,0.0,0,0.0,1,0.5,1,2.125,0,0,0,0,0,0,0,0,0,,,,,0,58,58,58,,,,,,,,,528.4927462080004,528.4927462080004,528.4927462080004,528.4927462080004,528.4927462080004,528.4927462080004,528.4927462080004,528.4927462080004,528.4713477913332,528.4927462080004,528.4927462080004,528.4927462080004,528.4713477913332,528.4927462080004,528.4927462080004,528.4927462080004,530.5993535409998,534.5914809160004,528.4927462080004,528.4927462080004,533.6223830830004,528.9769461659998,529.9828257500003,530.5993535409998,531.6087161659998,528.4927462080004,528.4927462080004,528.4880144579998,528.4927462080004,528.4927462080004,528.4927462080004,528.4880144579998,528.4927462080004,528.4927462080004,533.6223830830004,528.4927462080004,533.6223830830004,533.7210398750003,534.3522385409997,528.4927462080004,2,0,1.5541152500009048,reldom2_s016,001,2025-02-18_16h17.16.775,Vis-A-Scan_AC,2022.2.5,None,
45,First_Order,8.0,viswhere,stimulus/viswhere_stim/blank_white.png,stimulus/viswhere_stim/blank_white.png,stimulus/viswhere_stim/150-deg_dot-left_seagreen.png,stimulus/viswhere_stim/60-deg_dot-left_turquoise.png,stimulus/viswhere_stim/blank_white.png,stimulus/viswhere_stim/dot_box.png,stimulus/viswhere_stim/dot_yes.png,stimulus/viswhere_stim/dot_no.png,None,Dot,None,Dot,1,0.0,0,5.125,0,5.125,0,5.125,0,0.0,0.625,0,0.0,0,0.0,1,0.5,1,2.125,0,0,0,0,0,0,0,0,0,,,,,0,59,59,59,,,,,,,,,534.5914809160004,534.5914809160004,534.5914809160004,534.5914809160004,534.5914809160004,534.5914809160004,534.5914809160004,534.5914809160004,534.5338553333335,534.5914809160004,534.5914809160004,534.5914809160004,534.5338553333335,534.5914809160004,534.5914809160004,534.5914809160004,536.7011794999999,540.6561494160005,534.5914809160004,534.5914809160004,539.7135117079997,535.0705263330001,536.0888087080002,536.7011794999999,537.7196810410005,534.5914809160004,534.5914809160004,534.5838553333334,534.5914809160004,534.5914809160004,534.5914809160004,534.5838553333334,534.5914809160004,534.5914809160004,539.7135117079997,534.5914809160004,539.7135117079997,539.8153412080001,540.4418617910005,534.5914809160004,1,1,1.3016479170009916,reldom2_s016,001,2025-02-18_16h17.16.775,Vis-A-Scan_AC,2022.2.5,None,
46,First_Order,8.0,viswhere,stimulus/viswhere_stim/blank_white.png,stimulus/viswhere_stim/blank_white.png,stimulus/viswhere_stim/150-deg_dot-left_lightsseagreen.png,stimulus/viswhere_stim/60-deg_dot-left_royalblue.png,stimulus/viswhere_stim/blank_white.png,stimulus/viswhere_stim/line_box.png,stimulus/viswhere_stim/line_yes.png,stimulus/viswhere_stim/line_no.png,None,Line,None,Dot,2,0.0,0,5.125,0,5.125,0,5.125,0,0.0,0.625,0,0.0,0,0.0,1,0.5,1,2.125,0,0,0,0,0,0,0,0,0,,,,,0,60,60,60,,,,,,,,,540.6561494160005,540.6561494160005,540.6561494160005,540.6561494160005,540.6561494160005,540.6561494160005,540.6561494160005,540.6561494160005,540.6357613333333,540.6561494160005,540.6561494160005,540.6561494160005,540.6357613333333,540.6561494160005,540.6561494160005,540.6561494160005,542.7693178750005,546.7977898750005,540.6561494160005,540.6561494160005,545.7910594579998,541.1363463750004,542.1566899580002,542.7693178750005,543.772365541,540.6561494160005,540.6561494160005,540.652428,540.6561494160005,540.6561494160005,540.6561494160005,540.652428,540.6561494160005,540.6561494160005,545.7910594579998,540.6561494160005,545.7910594579998,545.874312125,546.5059805410001,540.6561494160005,2,1,0.8960517499999696,reldom2_s016,001,2025-02-18_16h17.16.775,Vis-A-Scan_AC,2022.2.5,None,
0,0.0,None,fixation,stimulus/viswhat_stim/blank_white.png,stimulus/viswhat_stim/blank_white.png,stimulus/viswhere_stim/blank_white.png,stimulus/viswhere_stim/blank_white.png,stimulus/viswhat_stim/blank_white.png,stimulus/viswhat_stim/blank_white.png,stimulus/viswhat_stim/blank_white.png,stimulus/viswhat_stim/blank_white.png,0.0,0.0,0.0,0.0,0,0.0,0,0.0,0,0.0,0,0.0,0,0.0,0.0,0,0.0,0,0.0,0,0.0,0,0.0,0,0,0,0,0,0,0,0,9,,,,,0,61,61,61,,,,,,,,,546.7977898750005,546.7977898750005,546.7977898750005,546.7977898750005,546.7977898750005,546.7977898750005,546.7977898750005,546.7977898750005,546.6996862083337,546.7977898750005,546.7977898750005,546.7977898750005,546.6996862083337,546.7977898750005,546.7977898750005,546.7977898750005,546.7977898750005,546.7977898750005,546.7977898750005,546.7977898750005,546.7977898750005,546.7977898750005,546.7977898750005,546.7977898750005,546.7977898750005,546.7977898750005,546.7977898750005,546.7496862083336,546.7977898750005,546.7977898750005,546.7977898750005,546.7496862083336,546.7977898750005,546.7977898750005,546.7977898750005,546.7977898750005,546.7977898750005,552.0111845410001,552.0111845410001,555.9445550830005,None,0,,reldom2_s016,001,2025-02-18_16h17.16.775,Vis-A-Scan_AC,2022.2.5,None,
47,Second_Order,8.0,viswhere,stimulus/viswhere_stim/120-deg_dot-left_goldenrod.png,stimulus/viswhere_stim/120-deg_dot-right_seagreen.png,stimulus/viswhere_stim/90-deg_dot-left_peru.png,stimulus/viswhere_stim/90-deg_dot-right_turquoise.png,stimulus/viswhat_stim/match_blank.png,stimulus/viswhat_stim/match_box.png,stimulus/viswhat_stim/match_yes.png,stimulus/viswhat_stim/match_no.png,1.0,Match,Line,Line,1,5.125,0,5.125,0,5.125,0,5.125,0,0.75,0.75,1,0.5,1,2.125,1,0.5,1,2.125,0,0,0,0,0,0,0,0,0,,,,,0,62,62,62,,,,,,,,,555.9445550830005,561.0656950000002,556.4197645000004,557.4185120829998,558.0405714159997,559.0387962499999,555.9445550830005,555.9445550830005,555.9575439993333,555.9445550830005,555.9445550830005,555.9445550830005,555.9575439993333,555.9445550830005,561.0656950000002,561.8595235000003,563.9403894160005,567.8246912499999,561.8595235000003,561.8595235000003,566.981214208,562.306390625,563.3250666249996,563.9403894160005,564.9442937909998,561.8595235000003,561.8595235000003,561.8491668330005,561.8595235000003,561.8595235000003,561.8595235000003,561.8491668330005,561.8595235000003,561.8595235000003,566.981214208,561.8595235000003,566.981214208,567.0507005830004,567.8246912499999,561.8595235000003,1,1,0.8285046250002779,reldom2_s016,001,2025-02-18_16h17.16.775,Vis-A-Scan_AC,2022.2.5,None,
48,Second_Order,8.0,viswhere,stimulus/viswhere_stim/150-deg_dot-right_salmon.png,stimulus/viswhere_stim/90-deg_dot-right_cyan.png,stimulus/viswhere_stim/60-deg_dot-left_mediumslateblue.png,stimulus/viswhere_stim/30-deg_dot-left_turquoise.png,stimulus/viswhat_stim/match_blank.png,stimulus/viswhat_stim/match_box.png,stimulus/viswhat_stim/match_yes.png,stimulus/viswhat_stim/match_no.png,1.0,Match,Dot,Dot,1,5.125,0,5.125,0,5.125,0,5.125,0,0.625,0.625,1,0.5,1,2.125,1,0.5,1,2.125,0,0,0,0,0,0,0,0,0,,,,,0,63,63,63,,,,,,,,,567.8246912499999,572.9420642080004,568.310475583,569.2989390000002,569.9361992080003,570.9330876249996,567.8246912499999,567.8246912499999,567.8386239580002,567.8246912499999,567.8246912499999,567.8246912499999,567.8386239580002,567.8246912499999,572.9420642080004,573.6124355829998,575.6973498750003,579.7253123330001,573.6124355829998,573.6124355829998,578.7466273330001,574.0745790829997,575.0878948750005,575.6973498750003,576.7157910830001,573.6124355829998,573.6124355829998,573.5892294993332,573.6124355829998,573.6124355829998,573.6124355829998,573.5892294993332,573.6124355829998,573.6124355829998,578.7466273330001,573.6124355829998,578.7466273330001,578.8338853750001,579.4593462909997,573.6124355829998,2,0,1.4685629590003373,reldom2_s016,001,2025-02-18_16h17.16.775,Vis-A-Scan_AC,2022.2.5,None,
0,0.0,None,fixation,stimulus/viswhat_stim/blank_white.png,stimulus/viswhat_stim/blank_white.png,stimulus/viswhere_stim/blank_white.png,stimulus/viswhere_stim/blank_white.png,stimulus/viswhat_stim/blank_white.png,stimulus/viswhat_stim/blank_white.png,stimulus/viswhat_stim/blank_white.png,stimulus/viswhat_stim/blank_white.png,0.0,0.0,0.0,0.0,0,0.0,0,0.0,0,0.0,0,0.0,0,0.0,0.0,0,0.0,0,0.0,0,0.0,0,0.0,0,0,0,0,0,0,0,0,16,,,,,0,64,64,64,,,,,,,,,579.7253123330001,579.7253123330001,579.7253123330001,579.7253123330001,579.7253123330001,579.7253123330001,579.7253123330001,579.7253123330001,579.6257970413338,579.7253123330001,579.7253123330001,579.7253123330001,579.6257970413338,579.7253123330001,579.7253123330001,579.7253123330001,579.7253123330001,579.7253123330001,579.7253123330001,579.7253123330001,579.7253123330001,579.7253123330001,579.7253123330001,579.7253123330001,579.7253123330001,579.7253123330001,579.7253123330001,579.6757970413338,579.7253123330001,579.7253123330001,579.7253123330001,579.6757970413338,579.7253123330001,579.7253123330001,579.7253123330001,579.7253123330001,579.7253123330001,584.9093970000004,584.9093970000004,595.8623353330004,None,0,,reldom2_s016,001,2025-02-18_16h17.16.775,Vis-A-Scan_AC,2022.2.5,None,
