Trial,Order,Block,Type,Stimuli_File1,Stimuli_File2,Stimuli_File3,Stimuli_File4,Cue_File1,Cue_File2,Response_File_Yes,Response_File_No,Match,Cue_Dimension,Pair1_Dimension,Pair2_Dimension,Key,Cue1_Duration,Cue1_Onset,Cue2_Duration,Cue2_Onset,ResponseYes_Duration,ResponseYes_Onset,ResponseNo_Duration,ResponseNo_Onset,ITI_Within,ITI_Between,Image1_Duration,Image1_Onset,Image2_Duration,Image2_Onset,Image3_Duration,Image3_Onset,Image4_Duration,Image4_Onset,Sound1_Duration,Sound1_Onset,Sound2_Duration,Sound2_Onset,Sound3_Duration,Sound3_Onset,Sound4_Duration,Sound4_Onset,Fixation_Duration,trials_2.thisRepN,trials_2.thisTrialN,trials_2.thisN,trials_2.thisIndex,trials.thisRepN,trials.thisTrialN,trials.thisN,trials.thisIndex,text_start.started,key_resp_start.started,key_resp_start.keys,key_resp_start.rt,cue_file1.started,cue_file1.stopped,image_1.started,image_1.stopped,image_2.started,image_2.stopped,sound_icon1.started,sound_icon1.stopped,sound_1.started,sound_1.stopped,sound_icon2.started,sound_icon2.stopped,sound_2.started,sound_2.stopped,image_blank_1.started,image_blank_1.stopped,key_press.started,key_press.stopped,fixation_text.started,cue_file2.started,cue_file2.stopped,image_3.started,image_3.stopped,image_4.started,image_4.stopped,sound_icon3.started,sound_icon3.stopped,sound_3.started,sound_3.stopped,sound_icon4.started,sound_icon4.stopped,sound_4.started,sound_4.stopped,response_yes.started,response_yes.stopped,response_no.started,response_no.stopped,iti_blank.started,iti_blank.stopped,fixation_text.stopped,key_press.keys,key_press.corr,key_press.rt,text_score.started,participant,session,date,expName,psychopyVersion,frameRate,
,,,,,,,,,,,,,,,,,,,,,,,,,,,,,,,,,,,,,,,,,,,,,,,,,,,,12.18608999999924,12.18608999999924,2,3.7336320410031476,,,,,,,,,,,,,,,,,,,,,,,,,,,,,,,,,,,,,,,,,,,,,reldom2_s016,001,2025-02-18_14h52.32.618,practice_test1_AC,2022.2.5,None,
,,,,,,,,,,,,,,,,,,,,,,,,,,,,,,,,,,,,,,,,,,,,0,0,0,0,,,,,,,,,,,,,,,,,,,,,,,,,,,,,,,,,,,,,,,,,,,,,,,,,,,,,reldom2_s016,001,2025-02-18_14h52.32.618,practice_test1_AC,2022.2.5,None,
,,,,,,,,,,,,,,,,,,,,,,,,,,,,,,,,,,,,,,,,,,,,1,0,1,0,,,,,,,,,,,,,,,,,,,,,,,,,,,,,,,,,,,,,,,,,,,,,,,,,,,,,reldom2_s016,001,2025-02-18_14h52.32.618,practice_test1_AC,2022.2.5,None,
,,,,,,,,,,,,,,,,,,,,,,,,,,,,,,,,,,,,,,,,,,,,2,0,2,0,,,,,,,,,,,,,,,,,,,,,,,,,,,,,,,,,,,,,,,,,,,,,,,,,,,,,reldom2_s016,001,2025-02-18_14h52.32.618,practice_test1_AC,2022.2.5,None,
,,,,,,,,,,,,,,,,,,,,,,,,,,,,,,,,,,,,,,,,,,,,3,0,3,0,,,,,,,,,,,,,,,,,,,,,,,,,,,,,,,,,,,,,,,,,,,,,,,,,,,,,reldom2_s016,001,2025-02-18_14h52.32.618,practice_test1_AC,2022.2.5,None,
0,0.0,None,fixation,stimulus/viswhere_stim/blank_white.png,stimulus/viswhere_stim/blank_white.png,stimulus/audwhere_stim/blank_white.png,stimulus/audwhere_stim/blank_white.png,stimulus/viswhere_stim/blank_white.png,stimulus/viswhere_stim/blank_white.png,stimulus/viswhere_stim/blank_white.png,stimulus/viswhere_stim/blank_white.png,0.0,0.0,0.0,0.0,0,0.0,0,0.0,0,0.0,0,0.0,0,0.0,0.0,0,0.0,0,0.0,0,0.0,0,0.0,0,0.0,0,0.0,0,0.0,0,0.0,6,,,,,0,0,0,0,,,,,16.167035583999677,16.167035583999677,16.167035583999677,16.167035583999677,16.167035583999677,16.167035583999677,16.167035583999677,16.167035583999677,16.060677374998342,16.167035583999677,16.167035583999677,16.167035583999677,16.060677374998342,16.167035583999677,16.167035583999677,16.167035583999677,16.167035583999677,16.167035583999677,16.167035583999677,16.167035583999677,16.167035583999677,16.167035583999677,16.167035583999677,16.167035583999677,16.167035583999677,16.167035583999677,16.167035583999677,16.110677374998343,16.167035583999677,16.167035583999677,16.167035583999677,16.110677374998343,16.167035583999677,16.167035583999677,16.167035583999677,16.167035583999677,16.167035583999677,21.377028250000876,21.377028250000876,22.355815916998836,None,0,,,reldom2_s016,001,2025-02-18_14h52.32.618,practice_test1_AC,2022.2.5,None,
1,First_Order,1.0,viswhere,stimulus/viswhere_stim/blank_white.png,stimulus/viswhere_stim/blank_white.png,stimulus/viswhere_stim/90-deg_dot-right_peru.png,stimulus/viswhere_stim/120-deg_dot-right_slateblue.png,stimulus/viswhere_stim/blank_white.png,stimulus/viswhere_stim/dot_box.png,stimulus/viswhere_stim/dot_yes.png,stimulus/viswhere_stim/dot_no.png,None,Dot,None,Dot,1,0.0,0,5.25,0,5.25,0,5.25,0,0.0,0.75,0,0.0,0,0.0,1,0.5,1,2.125,0,0.0,0,0.0,0,0.0,0,0.0,0,,,,,0,1,1,1,,,,,22.355815916998836,22.355815916998836,22.355815916998836,22.355815916998836,22.355815916998836,22.355815916998836,22.355815916998836,22.355815916998836,22.328738833998067,22.355815916998836,22.355815916998836,22.355815916998836,22.328738833998067,22.355815916998836,22.355815916998836,22.355815916998836,24.464791124999465,28.319360917001177,22.355815916998836,22.355815916998836,27.605615874999785,22.825848459000554,23.83937425000113,24.464791124999465,25.480640958998265,22.355815916998836,22.355815916998836,22.345405500664732,22.355815916998836,22.355815916998836,22.355815916998836,22.345405500664732,22.355815916998836,22.355815916998836,27.605615874999785,22.355815916998836,27.605615874999785,27.5893646250006,28.443511459001456,22.355815916998836,2,0,3.5805303330016613,,reldom2_s016,001,2025-02-18_14h52.32.618,practice_test1_AC,2022.2.5,None,
2,First_Order,1.0,viswhere,stimulus/viswhere_stim/blank_white.png,stimulus/viswhere_stim/blank_white.png,stimulus/viswhere_stim/30-deg_dot-right_turquoise.png,stimulus/viswhere_stim/60-deg_dot-right_seagreen.png,stimulus/viswhere_stim/blank_white.png,stimulus/viswhere_stim/line_box.png,stimulus/viswhere_stim/line_yes.png,stimulus/viswhere_stim/line_no.png,None,Line,None,Dot,2,0.0,0,5.25,0,5.25,0,5.25,0,0.0,0.75,0,0.0,0,0.0,1,0.5,1,2.125,0,0.0,0,0.0,0,0.0,0,0.0,0,,,,,0,2,2,2,,,,,28.443511459001456,28.443511459001456,28.443511459001456,28.443511459001456,28.443511459001456,28.443511459001456,28.443511459001456,28.443511459001456,28.419417625334365,28.443511459001456,28.443511459001456,28.443511459001456,28.419417625334365,28.443511459001456,28.443511459001456,28.443511459001456,30.54097237499809,34.419229958999495,28.443511459001456,28.443511459001456,33.70256591699945,28.91929091700149,29.93618754199997,30.54097237499809,31.562518958999135,28.443511459001456,28.443511459001456,28.43608429200103,28.443511459001456,28.443511459001456,28.443511459001456,28.43608429200103,28.443511459001456,28.443511459001456,33.70256591699945,28.443511459001456,33.70256591699945,33.685770167001465,34.52693683400139,28.443511459001456,1,0,1.3922119990020292,,reldom2_s016,001,2025-02-18_14h52.32.618,practice_test1_AC,2022.2.5,None,
3,First_Order,1.0,viswhere,stimulus/viswhere_stim/blank_white.png,stimulus/viswhere_stim/blank_white.png,stimulus/viswhere_stim/120-deg_dot-left_goldenrod.png,stimulus/viswhere_stim/90-deg_dot-left_seagreen.png,stimulus/viswhere_stim/blank_white.png,stimulus/viswhere_stim/line_box.png,stimulus/viswhere_stim/line_yes.png,stimulus/viswhere_stim/line_no.png,None,Line,None,Dot,2,0.0,0,5.25,0,5.25,0,5.25,0,0.0,0.75,0,0.0,0,0.0,1,0.5,1,2.125,0,0.0,0,0.0,0,0.0,0,0.0,0,,,,,0,3,3,3,,,,,34.52693683400139,34.52693683400139,34.52693683400139,34.52693683400139,34.52693683400139,34.52693683400139,34.52693683400139,34.52693683400139,34.50256329233283,34.52693683400139,34.52693683400139,34.52693683400139,34.50256329233283,34.52693683400139,34.52693683400139,34.52693683400139,36.64301770900056,40.595622208998975,34.52693683400139,34.52693683400139,39.78906491700036,35.00305049999952,36.05952737500047,36.64301770900056,37.66886912499831,34.52693683400139,34.52693683400139,34.519229958999496,34.52693683400139,34.52693683400139,34.52693683400139,34.519229958999496,34.52693683400139,34.52693683400139,39.78906491700036,34.52693683400139,39.78906491700036,39.74989916699997,40.595622208998975,34.52693683400139,1,0,1.1168200409993005,,reldom2_s016,001,2025-02-18_14h52.32.618,practice_test1_AC,2022.2.5,None,
4,First_Order,1.0,viswhere,stimulus/viswhere_stim/blank_white.png,stimulus/viswhere_stim/blank_white.png,stimulus/viswhere_stim/150-deg_dot-right_royalblue.png,stimulus/viswhere_stim/150-deg_dot-left_slateblue.png,stimulus/viswhere_stim/blank_white.png,stimulus/viswhere_stim/dot_box.png,stimulus/viswhere_stim/dot_yes.png,stimulus/viswhere_stim/dot_no.png,None,Dot,None,Line,2,0.0,0,5.25,0,5.25,0,5.25,0,0.0,0.75,0,0.0,0,0.0,1,0.5,1,2.125,0,0.0,0,0.0,0,0.0,0,0.0,0,,,,,0,4,4,4,,,,,40.595622208998975,40.595622208998975,40.595622208998975,40.595622208998975,40.595622208998975,40.595622208998975,40.595622208998975,40.595622208998975,40.5695430003337,40.595622208998975,40.595622208998975,40.595622208998975,40.5695430003337,40.595622208998975,40.595622208998975,40.595622208998975,42.69394770899817,46.57322041699808,40.595622208998975,40.595622208998975,45.86458754200066,41.07433733400103,42.0812516670012,42.69394770899817,43.70359349999853,40.595622208998975,40.595622208998975,40.58620966700037,40.595622208998975,40.595622208998975,40.595622208998975,40.58620966700037,40.595622208998975,40.595622208998975,45.86458754200066,40.595622208998975,45.86458754200066,45.824886709000566,46.759242500000255,40.595622208998975,2,1,0.880654124001012,,reldom2_s016,001,2025-02-18_14h52.32.618,practice_test1_AC,2022.2.5,None,
0,0.0,None,fixation,stimulus/viswhere_stim/blank_white.png,stimulus/viswhere_stim/blank_white.png,stimulus/audwhere_stim/blank_white.png,stimulus/audwhere_stim/blank_white.png,stimulus/viswhere_stim/blank_white.png,stimulus/viswhere_stim/blank_white.png,stimulus/viswhere_stim/blank_white.png,stimulus/viswhere_stim/blank_white.png,0.0,0.0,0.0,0.0,0,0.0,0,0.0,0,0.0,0,0.0,0,0.0,0.0,0,0.0,0,0.0,0,0.0,0,0.0,0,0.0,0,0.0,0,0.0,0,0.0,5,,,,,0,5,5,5,,,,,46.759242500000255,46.759242500000255,46.759242500000255,46.759242500000255,46.759242500000255,46.759242500000255,46.759242500000255,46.759242500000255,46.65655375033142,46.759242500000255,46.759242500000255,46.759242500000255,46.65655375033142,46.759242500000255,46.759242500000255,46.759242500000255,46.759242500000255,46.759242500000255,46.759242500000255,46.759242500000255,46.759242500000255,46.759242500000255,46.759242500000255,46.759242500000255,46.759242500000255,46.759242500000255,46.759242500000255,46.706553750331416,46.759242500000255,46.759242500000255,46.759242500000255,46.706553750331416,46.759242500000255,46.759242500000255,46.759242500000255,46.759242500000255,46.759242500000255,52.03159466699799,52.03159466699799,51.79766537500109,None,0,,,reldom2_s016,001,2025-02-18_14h52.32.618,practice_test1_AC,2022.2.5,None,
5,Second_Order,1.0,viswhere,stimulus/viswhere_stim/150-deg_dot-right_slateblue.png,stimulus/viswhere_stim/150-deg_dot-left_turquoise.png,stimulus/viswhere_stim/90-deg_dot-left_mediumslateblue.png,stimulus/viswhere_stim/90-deg_dot-right_peru.png,stimulus/viswhere_stim/match_blank.png,stimulus/viswhere_stim/match_box.png,stimulus/viswhere_stim/match_yes.png,stimulus/viswhere_stim/match_no.png,1.0,Match,Line,Line,1,5.25,0,5.25,0,5.25,0,5.25,0,0.75,0.75,1,0.5,1,2.125,1,0.5,1,2.125,0,0.0,0,0.0,0,0.0,0,0.0,0,,,,,0,6,6,6,,,,,52.03159466699799,57.27487525000106,52.50866870900063,53.50028137499976,54.13476399999854,55.1348006670014,52.03159466699799,52.03159466699799,52.0419315833334,52.03159466699799,52.03159466699799,52.03159466699799,52.0419315833334,52.03159466699799,57.27487525000106,58.07597495899972,60.14708833400073,64.01940850000028,58.07597495899972,58.07597495899972,63.3393552919988,58.51449445899925,59.53755191700111,60.14708833400073,61.156554624998535,58.07597495899972,58.07597495899972,58.058058625000555,58.07597495899972,58.07597495899972,58.07597495899972,58.058058625000555,58.07597495899972,58.07597495899972,63.3393552919988,58.07597495899972,63.3393552919988,63.27684366700123,64.0590234170013,58.07597495899972,1,1,1.0364408749992435,,reldom2_s016,001,2025-02-18_14h52.32.618,practice_test1_AC,2022.2.5,None,
6,Second_Order,1.0,viswhere,stimulus/viswhere_stim/150-deg_dot-right_mediumslateblue.png,stimulus/viswhere_stim/30-deg_dot-right_salmon.png,stimulus/viswhere_stim/120-deg_dot-right_royalblue.png,stimulus/viswhere_stim/120-deg_dot-left_salmon.png,stimulus/viswhere_stim/match_blank.png,stimulus/viswhere_stim/match_box.png,stimulus/viswhere_stim/match_yes.png,stimulus/viswhere_stim/match_no.png,2.0,Match,Dot,Line,2,5.25,0,5.25,0,5.25,0,5.25,0,0.75,0.75,1,0.5,1,2.125,1,0.5,1,2.125,0,0.0,0,0.0,0,0.0,0,0.0,0,,,,,0,7,7,7,,,,,64.0590234170013,69.30093962499814,64.54245583399825,65.53379395899901,66.16805520900016,67.15852408399951,64.0590234170013,64.0590234170013,64.06940850000028,64.0590234170013,64.0590234170013,64.0590234170013,64.06940850000028,64.0590234170013,69.30093962499814,70.0984729999982,72.18623929200112,76.0358659170015,70.0984729999982,70.0984729999982,75.36439612499817,70.55947708399981,71.57820087499931,72.18623929200112,73.2112983750012,70.0984729999982,70.0984729999982,70.06800537533175,70.0984729999982,70.0984729999982,70.0984729999982,70.06800537533175,70.0984729999982,70.0984729999982,75.36439612499817,70.0984729999982,75.36439612499817,75.3024097919988,76.22805212499952,70.0984729999982,1,0,1.254701832003775,,reldom2_s016,001,2025-02-18_14h52.32.618,practice_test1_AC,2022.2.5,None,
0,0.0,None,fixation,stimulus/viswhere_stim/blank_white.png,stimulus/viswhere_stim/blank_white.png,stimulus/audwhere_stim/blank_white.png,stimulus/audwhere_stim/blank_white.png,stimulus/viswhere_stim/blank_white.png,stimulus/viswhere_stim/blank_white.png,stimulus/viswhere_stim/blank_white.png,stimulus/viswhere_stim/blank_white.png,0.0,0.0,0.0,0.0,0,0.0,0,0.0,0,0.0,0,0.0,0,0.0,0.0,0,0.0,0,0.0,0,0.0,0,0.0,0,0.0,0,0.0,0,0.0,0,0.0,7,,,,,0,8,8,8,,,,,76.22805212499952,76.22805212499952,76.22805212499952,76.22805212499952,76.22805212499952,76.22805212499952,76.22805212499952,76.22805212499952,76.11919925033483,76.22805212499952,76.22805212499952,76.22805212499952,76.11919925033483,76.22805212499952,76.22805212499952,76.22805212499952,76.22805212499952,76.22805212499952,76.22805212499952,76.22805212499952,76.22805212499952,76.22805212499952,76.22805212499952,76.22805212499952,76.22805212499952,76.22805212499952,76.22805212499952,76.18586591700151,76.22805212499952,76.22805212499952,76.22805212499952,76.18586591700151,76.22805212499952,76.22805212499952,76.22805212499952,76.22805212499952,76.22805212499952,81.439284125001,81.439284125001,83.47794420900027,None,0,,,reldom2_s016,001,2025-02-18_14h52.32.618,practice_test1_AC,2022.2.5,None,
7,First_Order,2.0,audwhere,stimulus/audwhere_stim/dummy.wav,stimulus/audwhere_stim/dummy.wav,stimulus/audwhere_stim/left_toward_270h.wav,stimulus/audwhere_stim/right_toward_270h.wav,stimulus/audwhere_stim/blank_white.png,stimulus/audwhere_stim/direction_box.png,stimulus/audwhere_stim/direction_yes.png,stimulus/audwhere_stim/direction_no.png,None,Direction,None,Direction,1,0.0,0,5.25,0,5.25,0,5.25,0,0.0,0.75,0,0.0,0,0.0,0,0.0,0,0.0,0,0.0,0,0.0,1,0.5,1,2.125,0,,,,,0,9,9,9,,,,,83.47794420900027,83.47794420900027,83.47794420900027,83.47794420900027,83.47794420900027,83.47794420900027,83.47794420900027,83.47794420900027,83.39850166666535,83.47794420900027,83.47794420900027,83.47794420900027,83.39850166666535,83.47794420900027,83.47794420900027,83.47794420900027,85.58199999999852,89.43577608399937,83.47794420900027,83.47794420900027,88.77989612500096,83.47794420900027,83.47794420900027,83.47794420900027,83.47794420900027,83.93003804199907,84.98185858400029,83.89601933366454,,85.58199999999852,86.63689495899962,85.54850520866627,,83.47794420900027,88.77989612500096,83.47794420900027,88.77989612500096,88.68585516700114,89.65703066700007,83.47794420900027,None,0,,,reldom2_s016,001,2025-02-18_14h52.32.618,practice_test1_AC,2022.2.5,None,
8,First_Order,2.0,audwhere,stimulus/audwhere_stim/dummy.wav,stimulus/audwhere_stim/dummy.wav,stimulus/audwhere_stim/right_away_280h.wav,stimulus/audwhere_stim/right_toward_290h.wav,stimulus/audwhere_stim/blank_white.png,stimulus/audwhere_stim/side_box.png,stimulus/audwhere_stim/side_yes.png,stimulus/audwhere_stim/side_no.png,None,Side,None,Side,1,0.0,0,5.25,0,5.25,0,5.25,0,0.0,0.75,0,0.0,0,0.0,0,0.0,0,0.0,0,0.0,0,0.0,1,0.5,1,2.125,0,,,,,0,10,10,10,,,,,89.65703066700007,89.65703066700007,89.65703066700007,89.65703066700007,89.65703066700007,89.65703066700007,89.65703066700007,89.65703066700007,89.5691094173327,89.65703066700007,89.65703066700007,89.65703066700007,89.5691094173327,89.65703066700007,89.65703066700007,89.65703066700007,91.75185533400145,95.60846216699792,89.65703066700007,89.65703066700007,94.9513814589991,89.65703066700007,89.65703066700007,89.65703066700007,89.65703066700007,90.10614720900048,91.15468129199871,90.07274550066747,,91.75185533400145,92.80188158400051,91.71819995866487,92.75185158399836,89.65703066700007,94.9513814589991,89.65703066700007,94.9513814589991,94.85728999999992,95.82751774999997,89.65703066700007,2,0,2.5919916660022864,,reldom2_s016,001,2025-02-18_14h52.32.618,practice_test1_AC,2022.2.5,None,
9,First_Order,2.0,audwhere,stimulus/audwhere_stim/dummy.wav,stimulus/audwhere_stim/dummy.wav,stimulus/audwhere_stim/right_away_270h.wav,stimulus/audwhere_stim/right_toward_300h.wav,stimulus/audwhere_stim/blank_white.png,stimulus/audwhere_stim/side_box.png,stimulus/audwhere_stim/side_yes.png,stimulus/audwhere_stim/side_no.png,None,Side,None,Side,1,0.0,0,5.25,0,5.25,0,5.25,0,0.0,0.75,0,0.0,0,0.0,0,0.0,0,0.0,0,0.0,0,0.0,1,0.5,1,2.125,0,,,,,0,11,11,11,,,,,95.82751774999997,95.82751774999997,95.82751774999997,95.82751774999997,95.82751774999997,95.82751774999997,95.82751774999997,95.82751774999997,95.74179550033125,95.82751774999997,95.82751774999997,95.82751774999997,95.74179550033125,95.82751774999997,95.82751774999997,95.82751774999997,97.92253250000067,101.76951995899799,95.82751774999997,95.82751774999997,101.11307483400014,95.82751774999997,95.82751774999997,95.82751774999997,95.82751774999997,96.27701491699918,97.32366762499805,96.24350704166524,,97.92253250000067,98.96988766700088,97.8889409586666,,95.82751774999997,101.11307483400014,95.82751774999997,101.11307483400014,101.06974433399955,102.0313903339993,95.82751774999997,1,1,1.7921884579991456,,reldom2_s016,001,2025-02-18_14h52.32.618,practice_test1_AC,2022.2.5,None,
10,First_Order,2.0,audwhere,stimulus/audwhere_stim/dummy.wav,stimulus/audwhere_stim/dummy.wav,stimulus/audwhere_stim/right_toward_300h.wav,stimulus/audwhere_stim/right_away_290h.wav,stimulus/audwhere_stim/blank_white.png,stimulus/audwhere_stim/direction_box.png,stimulus/audwhere_stim/direction_yes.png,stimulus/audwhere_stim/direction_no.png,None,Direction,None,Side,2,0.0,0,5.25,0,5.25,0,5.25,0,0.0,0.75,0,0.0,0,0.0,0,0.0,0,0.0,0,0.0,0,0.0,1,0.5,1,2.125,0,,,,,0,12,12,12,,,,,102.0313903339993,102.0313903339993,102.0313903339993,102.0313903339993,102.0313903339993,102.0313903339993,102.0313903339993,102.0313903339993,101.94657662533257,102.0313903339993,102.0313903339993,102.0313903339993,101.94657662533257,102.0313903339993,102.0313903339993,102.0313903339993,104.13639954199971,108.0062294169984,102.0313903339993,102.0313903339993,107.34673787499923,102.0313903339993,102.0313903339993,102.0313903339993,102.0313903339993,102.48597970899937,103.53556941699935,102.45265004166528,103.4854001249987,104.13639954199971,105.19207174999974,104.10244483366502,,102.0313903339993,107.34673787499923,102.0313903339993,107.34673787499923,107.25300612499996,108.2454719999987,102.0313903339993,2,1,1.4109648740013654,,reldom2_s016,001,2025-02-18_14h52.32.618,practice_test1_AC,2022.2.5,None,
0,0.0,None,fixation,stimulus/viswhere_stim/blank_white.png,stimulus/viswhere_stim/blank_white.png,stimulus/audwhere_stim/blank_white.png,stimulus/audwhere_stim/blank_white.png,stimulus/viswhere_stim/blank_white.png,stimulus/viswhere_stim/blank_white.png,stimulus/viswhere_stim/blank_white.png,stimulus/viswhere_stim/blank_white.png,0.0,0.0,0.0,0.0,0,0.0,0,0.0,0,0.0,0,0.0,0,0.0,0.0,0,0.0,0,0.0,0,0.0,0,0.0,0,0.0,0,0.0,0,0.0,0,0.0,5,,,,,0,13,13,13,,,,,108.2454719999987,108.2454719999987,108.2454719999987,108.2454719999987,108.2454719999987,108.2454719999987,108.2454719999987,108.2454719999987,108.13956275033172,108.2454719999987,108.2454719999987,108.2454719999987,108.13956275033172,108.2454719999987,108.2454719999987,108.2454719999987,108.2454719999987,108.2454719999987,108.2454719999987,108.2454719999987,108.2454719999987,108.2454719999987,108.2454719999987,108.2454719999987,108.2454719999987,108.2454719999987,108.2454719999987,108.18956275033173,108.2454719999987,108.2454719999987,108.2454719999987,108.18956275033173,108.2454719999987,108.2454719999987,108.2454719999987,108.2454719999987,108.2454719999987,113.57033179199789,113.57033179199789,113.30859950000013,None,0,,,reldom2_s016,001,2025-02-18_14h52.32.618,practice_test1_AC,2022.2.5,None,
11,Second_Order,2.0,audwhere,stimulus/audwhere_stim/right_toward_270h.wav,stimulus/audwhere_stim/left_toward_290h.wav,stimulus/audwhere_stim/left_away_270h.wav,stimulus/audwhere_stim/left_toward_290h.wav,stimulus/viswhere_stim/match_blank.png,stimulus/viswhere_stim/match_box.png,stimulus/viswhere_stim/match_yes.png,stimulus/viswhere_stim/match_no.png,2.0,Match,Direction,Side,2,5.25,0,5.25,0,5.25,0,5.25,0,0.75,0.75,0,0.0,0,0.0,0,0.0,0,0.0,1,0.5,1,2.125,1,0.5,1,2.125,0,,,,,0,14,14,14,,,,,113.57033179199789,118.81676066699947,113.57033179199789,113.57033179199789,113.57033179199789,113.57033179199789,114.01683395899818,115.00827495900012,114.02501108366802,115.01669716700053,115.64309850000063,116.64114033399892,115.65122350066692,116.64114033399892,118.81676066699947,119.67719883400059,121.7179564170001,125.61261995899986,119.67719883400059,119.67719883400059,124.95487187500112,119.67719883400059,119.67719883400059,119.67719883400059,119.67719883400059,120.12100566699883,121.16857137500119,120.08764400066526,,121.7179564170001,122.76869520900073,121.68482995866749,,119.67719883400059,124.95487187500112,119.67719883400059,124.95487187500112,124.86041199999818,125.73606329199902,119.67719883400059,2,1,1.3503064579999773,,reldom2_s016,001,2025-02-18_14h52.32.618,practice_test1_AC,2022.2.5,None,
12,Second_Order,2.0,audwhere,stimulus/audwhere_stim/left_toward_270h.wav,stimulus/audwhere_stim/right_toward_300h.wav,stimulus/audwhere_stim/right_toward_300h.wav,stimulus/audwhere_stim/right_away_270h.wav,stimulus/viswhere_stim/match_blank.png,stimulus/viswhere_stim/match_box.png,stimulus/viswhere_stim/match_yes.png,stimulus/viswhere_stim/match_no.png,2.0,Match,Direction,Side,2,5.25,0,5.25,0,5.25,0,5.25,0,0.75,0.75,0,0.0,0,0.0,0,0.0,0,0.0,1,0.5,1,2.125,1,0.5,1,2.125,0,,,,,0,15,15,15,,,,,125.73606329199902,130.98465837500044,125.73606329199902,125.73606329199902,125.73606329199902,125.73606329199902,126.18334612499893,127.1739285420008,126.19105245866764,,127.8080500420001,128.80000070900132,127.81748375066697,128.80763183399904,130.98465837500044,131.84304274999886,133.89457725000102,137.76092579200122,131.84304274999886,131.84304274999886,137.1460697500006,131.84304274999886,131.84304274999886,131.84304274999886,131.84304274999886,132.2881010839992,133.34463358399807,132.25445208366753,,133.89457725000102,134.94873174999884,133.86095616666742,,131.84304274999886,137.1460697500006,131.84304274999886,137.1460697500006,137.00190799999837,138.00067016699904,131.84304274999886,2,1,1.349266916000488,,reldom2_s016,001,2025-02-18_14h52.32.618,practice_test1_AC,2022.2.5,None,
0,0.0,None,fixation,stimulus/viswhere_stim/blank_white.png,stimulus/viswhere_stim/blank_white.png,stimulus/audwhere_stim/blank_white.png,stimulus/audwhere_stim/blank_white.png,stimulus/viswhere_stim/blank_white.png,stimulus/viswhere_stim/blank_white.png,stimulus/viswhere_stim/blank_white.png,stimulus/viswhere_stim/blank_white.png,0.0,0.0,0.0,0.0,0,0.0,0,0.0,0,0.0,0,0.0,0,0.0,0.0,0,0.0,0,0.0,0,0.0,0,0.0,0,0.0,0,0.0,0,0.0,0,0.0,5,,,,,0,16,16,16,,,,,138.00067016699904,138.00067016699904,138.00067016699904,138.00067016699904,138.00067016699904,138.00067016699904,138.00067016699904,138.00067016699904,137.89425912533457,138.00067016699904,138.00067016699904,138.00067016699904,137.89425912533457,138.00067016699904,138.00067016699904,138.00067016699904,138.00067016699904,138.00067016699904,138.00067016699904,138.00067016699904,138.00067016699904,138.00067016699904,138.00067016699904,138.00067016699904,138.00067016699904,138.00067016699904,138.00067016699904,137.94425912533455,138.00067016699904,138.00067016699904,138.00067016699904,137.94425912533455,138.00067016699904,138.00067016699904,138.00067016699904,138.00067016699904,138.00067016699904,143.374774584001,143.374774584001,143.05930699999954,None,0,,,reldom2_s016,001,2025-02-18_14h52.32.618,practice_test1_AC,2022.2.5,None,
13,First_Order,3.0,viswhat,stimulus/viswhat_stim/blank_white.png,stimulus/viswhat_stim/blank_white.png,stimulus/viswhat_stim/land_animal-ostrich.png,stimulus/viswhat_stim/land_vehicle-trolley.png,stimulus/viswhat_stim/blank_white.png,stimulus/viswhat_stim/location_box.png,stimulus/viswhat_stim/location_yes.png,stimulus/viswhat_stim/location_no.png,None,Location,None,Location,1,0.0,0,5.25,0,5.25,0,5.25,0,0.0,0.75,0,0.0,0,0.0,1,0.5,1,2.125,0,0.0,0,0.0,0,0.0,0,0.0,0,,,,,0,17,17,17,,,,,143.374774584001,143.374774584001,143.374774584001,143.374774584001,143.374774584001,143.374774584001,143.374774584001,143.374774584001,143.33839516666802,143.374774584001,143.374774584001,143.374774584001,143.33839516666802,143.374774584001,143.374774584001,143.374774584001,145.48309633399913,149.3303484169992,143.374774584001,143.374774584001,148.62958908400105,143.84694300000046,144.87313483400067,145.48309633399913,146.52042070899915,143.374774584001,143.374774584001,143.35506183333467,143.374774584001,143.374774584001,143.374774584001,143.35506183333467,143.374774584001,143.374774584001,148.62958908400105,143.374774584001,148.62958908400105,148.6078036250001,149.5694244590013,143.374774584001,2,0,2.3941250829993805,,reldom2_s016,001,2025-02-18_14h52.32.618,practice_test1_AC,2022.2.5,None,
14,First_Order,3.0,viswhat,stimulus/viswhat_stim/blank_white.png,stimulus/viswhat_stim/blank_white.png,stimulus/viswhat_stim/water_vehicle-cruiser.png,stimulus/viswhat_stim/water_animal-stingray.png,stimulus/viswhat_stim/blank_white.png,stimulus/viswhat_stim/location_box.png,stimulus/viswhat_stim/location_yes.png,stimulus/viswhat_stim/location_no.png,None,Location,None,Location,1,0.0,0,5.25,0,5.25,0,5.25,0,0.0,0.75,0,0.0,0,0.0,1,0.5,1,2.125,0,0.0,0,0.0,0,0.0,0,0.0,0,,,,,0,18,18,18,,,,,149.5694244590013,149.5694244590013,149.5694244590013,149.5694244590013,149.5694244590013,149.5694244590013,149.5694244590013,149.5694244590013,149.4515467920006,149.5694244590013,149.5694244590013,149.5694244590013,149.4515467920006,149.5694244590013,149.5694244590013,149.5694244590013,151.6733427500003,155.54061258399815,149.5694244590013,149.5694244590013,154.92831358400144,150.0442572920001,151.13105104200076,151.6733427500003,152.76030162499956,149.5694244590013,149.5694244590013,149.5015467920006,149.5694244590013,149.5694244590013,149.5694244590013,149.5015467920006,149.5694244590013,149.5694244590013,154.92831358400144,149.5694244590013,154.92831358400144,154.799053499999,155.76592041700133,149.5694244590013,1,1,1.0272080819995608,,reldom2_s016,001,2025-02-18_14h52.32.618,practice_test1_AC,2022.2.5,None,
15,First_Order,3.0,viswhat,stimulus/viswhat_stim/blank_white.png,stimulus/viswhat_stim/blank_white.png,stimulus/viswhat_stim/water_vehicle-cargoboat.png,stimulus/viswhat_stim/water_animal-squid.png,stimulus/viswhat_stim/blank_white.png,stimulus/viswhat_stim/type_box.png,stimulus/viswhat_stim/type_yes.png,stimulus/viswhat_stim/type_no.png,None,Type,None,Location,2,0.0,0,5.25,0,5.25,0,5.25,0,0.0,0.75,0,0.0,0,0.0,1,0.5,1,2.125,0,0.0,0,0.0,0,0.0,0,0.0,0,,,,,0,19,19,19,,,,,155.76592041700133,155.76592041700133,155.76592041700133,155.76592041700133,155.76592041700133,155.76592041700133,155.76592041700133,155.76592041700133,155.70727925066484,155.76592041700133,155.76592041700133,155.76592041700133,155.70727925066484,155.76592041700133,155.76592041700133,155.76592041700133,157.87187033399823,161.72428691700043,155.76592041700133,155.76592041700133,161.0490693339998,156.24871504199837,157.2867839169994,157.87187033399823,158.9113177090003,155.76592041700133,155.76592041700133,155.74061258399817,155.76592041700133,155.76592041700133,155.76592041700133,155.74061258399817,155.76592041700133,155.76592041700133,161.0490693339998,155.76592041700133,161.0490693339998,160.98693337499935,161.88693987499937,155.76592041700133,2,1,2.205090874002053,,reldom2_s016,001,2025-02-18_14h52.32.618,practice_test1_AC,2022.2.5,None,
16,First_Order,3.0,viswhat,stimulus/viswhat_stim/blank_white.png,stimulus/viswhat_stim/blank_white.png,stimulus/viswhat_stim/water_vehicle-ferryboat.png,stimulus/viswhat_stim/water_animal-seaturtle.png,stimulus/viswhat_stim/blank_white.png,stimulus/viswhat_stim/type_box.png,stimulus/viswhat_stim/type_yes.png,stimulus/viswhat_stim/type_no.png,None,Type,None,Location,2,0.0,0,5.25,0,5.25,0,5.25,0,0.0,0.75,0,0.0,0,0.0,1,0.5,1,2.125,0,0.0,0,0.0,0,0.0,0,0.0,0,,,,,0,20,20,20,,,,,161.88693987499937,161.88693987499937,161.88693987499937,161.88693987499937,161.88693987499937,161.88693987499937,161.88693987499937,161.88693987499937,161.82428691700045,161.88693987499937,161.88693987499937,161.88693987499937,161.82428691700045,161.88693987499937,161.88693987499937,161.88693987499937,164.00133566699878,167.8435443749986,161.88693987499937,161.88693987499937,167.15874687500036,162.37502841699825,163.4010559999988,164.00133566699878,165.05898850000085,161.88693987499937,161.88693987499937,161.85762025033378,161.88693987499937,161.88693987499937,161.88693987499937,161.85762025033378,161.88693987499937,161.88693987499937,167.15874687500036,161.88693987499937,167.15874687500036,167.12774320899916,168.09056458399937,161.88693987499937,2,1,0.9820073330010928,,reldom2_s016,001,2025-02-18_14h52.32.618,practice_test1_AC,2022.2.5,None,
0,0.0,None,fixation,stimulus/viswhat_stim/blank_white.png,stimulus/viswhat_stim/blank_white.png,stimulus/audwhat_stim/blank_white.png,stimulus/audwhat_stim/blank_white.png,stimulus/viswhat_stim/blank_white.png,stimulus/viswhat_stim/blank_white.png,stimulus/viswhere_stim/blank_white.png,stimulus/viswhere_stim/blank_white.png,0.0,0.0,0.0,0.0,0,0.0,0,0.0,0,0.0,0,0.0,0,0.0,0.0,0,0.0,0,0.0,0,0.0,0,0.0,0,0.0,0,0.0,0,0.0,0,0.0,5,,,,,0,21,21,21,,,,,168.09056458399937,168.09056458399937,168.09056458399937,168.09056458399937,168.09056458399937,168.09056458399937,168.09056458399937,168.09056458399937,167.99164916666803,168.09056458399937,168.09056458399937,168.09056458399937,167.99164916666803,168.09056458399937,168.09056458399937,168.09056458399937,168.09056458399937,168.09056458399937,168.09056458399937,168.09056458399937,168.09056458399937,168.09056458399937,168.09056458399937,168.09056458399937,168.09056458399937,168.09056458399937,168.09056458399937,168.04164916666804,168.09056458399937,168.09056458399937,168.09056458399937,168.04164916666804,168.09056458399937,168.09056458399937,168.09056458399937,168.09056458399937,168.09056458399937,173.40030783399925,173.40030783399925,173.15345479199823,None,0,,,reldom2_s016,001,2025-02-18_14h52.32.618,practice_test1_AC,2022.2.5,None,
17,Second_Order,3.0,viswhat,stimulus/viswhat_stim/land_vehicle-motorcycle.png,stimulus/viswhat_stim/land_animal-dog.png,stimulus/viswhat_stim/water_animal-seahorse.png,stimulus/viswhat_stim/water_vehicle-cargoboat.png,stimulus/viswhere_stim/match_blank.png,stimulus/viswhere_stim/match_box.png,stimulus/viswhere_stim/match_yes.png,stimulus/viswhere_stim/match_no.png,1.0,Match,Location,Location,1,5.25,0,5.25,0,5.25,0,5.25,0,0.75,0.75,1,0.5,1,2.125,1,0.5,1,2.125,0,0.0,0,0.0,0,0.0,0,0.0,0,,,,,0,22,22,22,,,,,173.40030783399925,178.6414453340003,173.8675527919986,174.85831091699947,175.49079916700066,176.48291049999898,173.40030783399925,173.40030783399925,173.39825095833126,173.40030783399925,173.40030783399925,173.40030783399925,173.39825095833126,173.40030783399925,178.6414453340003,179.462016417001,181.5353058340006,185.4408626250006,179.462016417001,179.462016417001,184.7191661249999,179.91585375000068,180.94968529199832,181.5353058340006,182.5508884589981,179.462016417001,179.462016417001,179.43418850000018,179.462016417001,179.462016417001,179.462016417001,179.43418850000018,179.462016417001,179.462016417001,184.7191661249999,179.462016417001,184.7191661249999,184.64548791700145,185.4408626250006,179.462016417001,1,1,1.9526874990006036,,reldom2_s016,001,2025-02-18_14h52.32.618,practice_test1_AC,2022.2.5,None,
18,Second_Order,3.0,viswhat,stimulus/viswhat_stim/water_animal-squid.png,stimulus/viswhat_stim/land_animal-snake.png,stimulus/viswhat_stim/land_animal-fox.png,stimulus/viswhat_stim/land_vehicle-oldcar.png,stimulus/viswhere_stim/match_blank.png,stimulus/viswhere_stim/match_box.png,stimulus/viswhere_stim/match_yes.png,stimulus/viswhere_stim/match_no.png,2.0,Match,Type,Location,2,5.25,0,5.25,0,5.25,0,5.25,0,0.75,0.75,1,0.5,1,2.125,1,0.5,1,2.125,0,0.0,0,0.0,0,0.0,0,0.0,0,,,,,0,23,23,23,,,,,185.4408626250006,190.68376233399977,185.90808429200115,186.89912754200122,187.53342570899986,188.52417058399806,185.4408626250006,185.4408626250006,185.4477085836671,185.4408626250006,185.4408626250006,185.4408626250006,185.4477085836671,185.4408626250006,190.68376233399977,191.53183187499963,193.60055629199996,197.45479799999885,191.53183187499963,191.53183187499963,196.83514749999813,191.98054079199937,193.0151264999986,193.60055629199996,194.64076687499983,191.53183187499963,191.53183187499963,191.48406845866802,191.53183187499963,191.53183187499963,191.53183187499963,191.48406845866802,191.53183187499963,191.53183187499963,196.83514749999813,191.53183187499963,196.83514749999813,196.70692508399952,197.68686841700037,191.53183187499963,2,1,0.8966346660017734,,reldom2_s016,001,2025-02-18_14h52.32.618,practice_test1_AC,2022.2.5,None,
0,0.0,None,fixation,stimulus/viswhat_stim/blank_white.png,stimulus/viswhat_stim/blank_white.png,stimulus/audwhat_stim/blank_white.png,stimulus/audwhat_stim/blank_white.png,stimulus/viswhat_stim/blank_white.png,stimulus/viswhat_stim/blank_white.png,stimulus/viswhere_stim/blank_white.png,stimulus/viswhere_stim/blank_white.png,0.0,0.0,0.0,0.0,0,0.0,0,0.0,0,0.0,0,0.0,0,0.0,0.0,0,0.0,0,0.0,0,0.0,0,0.0,0,0.0,0,0.0,0,0.0,0,0.0,6,,,,,0,24,24,24,,,,,197.68686841700037,197.68686841700037,197.68686841700037,197.68686841700037,197.68686841700037,197.68686841700037,197.68686841700037,197.68686841700037,197.5881313333322,197.68686841700037,197.68686841700037,197.68686841700037,197.5881313333322,197.68686841700037,197.68686841700037,197.68686841700037,197.68686841700037,197.68686841700037,197.68686841700037,197.68686841700037,197.68686841700037,197.68686841700037,197.68686841700037,197.68686841700037,197.68686841700037,197.68686841700037,197.68686841700037,197.63813133333218,197.68686841700037,197.68686841700037,197.68686841700037,197.63813133333218,197.68686841700037,197.68686841700037,197.68686841700037,197.68686841700037,197.68686841700037,202.86744533399906,202.86744533399906,203.95600495899998,None,0,,,reldom2_s016,001,2025-02-18_14h52.32.618,practice_test1_AC,2022.2.5,None,
19,First_Order,4.0,audwhat,stimulus/audwhat_stim/dummy.wav,stimulus/audwhat_stim/dummy.wav,stimulus/audwhat_stim/percussion xylophone_high-pitch_D_loud.wav,stimulus/audwhat_stim/string viola_high-pitch_D_loud.wav,stimulus/audwhat_stim/blank_white.png,stimulus/audwhat_stim/pitch_box.png,stimulus/audwhat_stim/pitch_yes.png,stimulus/audwhat_stim/pitch_no.png,None,Pitch,None,Pitch,1,0.0,0,5.25,0,5.25,0,5.25,0,0.0,0.75,0,0.0,0,0.0,0,0.0,0,0.0,0,0.0,0,0.0,1,0.5,1,2.125,0,,,,,0,25,25,25,,,,,203.95600495899998,203.95600495899998,203.95600495899998,203.95600495899998,203.95600495899998,203.95600495899998,203.95600495899998,203.95600495899998,203.87654616666504,203.95600495899998,203.95600495899998,203.95600495899998,203.87654616666504,203.95600495899998,203.95600495899998,203.95600495899998,206.05735654199816,209.91654129200106,203.95600495899998,203.95600495899998,209.2571182920001,203.95600495899998,203.95600495899998,203.95600495899998,203.95600495899998,204.40709566700025,205.45744012499927,204.37342575066603,205.40795095900103,206.05735654199816,207.10956675000125,206.02364370866806,,203.95600495899998,209.2571182920001,203.95600495899998,209.2571182920001,209.1635614170009,210.13627483399978,203.95600495899998,2,0,3.2122889580023184,,reldom2_s016,001,2025-02-18_14h52.32.618,practice_test1_AC,2022.2.5,None,
20,First_Order,4.0,audwhat,stimulus/audwhat_stim/dummy.wav,stimulus/audwhat_stim/dummy.wav,stimulus/audwhat_stim/string cello_high-pitch_Ftri_loud.wav,stimulus/audwhat_stim/string viola_low-pitch_F_loud.wav,stimulus/audwhat_stim/blank_white.png,stimulus/audwhat_stim/pitch_box.png,stimulus/audwhat_stim/pitch_yes.png,stimulus/audwhat_stim/pitch_no.png,None,Pitch,None,Category,2,0.0,0,5.25,0,5.25,0,5.25,0,0.0,0.75,0,0.0,0,0.0,0,0.0,0,0.0,0,0.0,0,0.0,1,0.5,1,2.125,0,,,,,0,26,26,26,,,,,210.13627483399978,210.13627483399978,210.13627483399978,210.13627483399978,210.13627483399978,210.13627483399978,210.13627483399978,210.13627483399978,210.0498746253344,210.13627483399978,210.13627483399978,210.13627483399978,210.0498746253344,210.13627483399978,210.13627483399978,210.13627483399978,212.23484233400086,216.08705937500054,210.13627483399978,210.13627483399978,215.42918420899878,210.13627483399978,210.13627483399978,210.13627483399978,210.13627483399978,210.58548245899874,211.63472600000023,210.5522314586672,,212.23484233400086,213.28566000000137,212.2012873756651,,210.13627483399978,215.42918420899878,210.13627483399978,215.42918420899878,215.3350703340002,216.30416762499954,210.13627483399978,1,0,1.4116542490010033,,reldom2_s016,001,2025-02-18_14h52.32.618,practice_test1_AC,2022.2.5,None,
21,First_Order,4.0,audwhat,stimulus/audwhat_stim/dummy.wav,stimulus/audwhat_stim/dummy.wav,stimulus/audwhat_stim/string viola_high-pitch_D_loud.wav,stimulus/audwhat_stim/percussion xylophone_high-pitch_D_loud.wav,stimulus/audwhat_stim/blank_white.png,stimulus/audwhat_stim/pitch_box.png,stimulus/audwhat_stim/pitch_yes.png,stimulus/audwhat_stim/pitch_no.png,None,Pitch,None,Pitch,1,0.0,0,5.25,0,5.25,0,5.25,0,0.0,0.75,0,0.0,0,0.0,0,0.0,0,0.0,0,0.0,0,0.0,1,0.5,1,2.125,0,,,,,0,27,27,27,,,,,216.30416762499954,216.30416762499954,216.30416762499954,216.30416762499954,216.30416762499954,216.30416762499954,216.30416762499954,216.30416762499954,216.2203927083339,216.30416762499954,216.30416762499954,216.30416762499954,216.2203927083339,216.30416762499954,216.30416762499954,216.30416762499954,218.4014356250009,222.25286150000102,216.30416762499954,216.30416762499954,221.59585591699943,216.30416762499954,216.30416762499954,216.30416762499954,216.30416762499954,216.75198470900068,217.8012985839996,216.71870679166776,,218.4014356250009,219.45131641699845,218.3680573756649,219.40135216699855,216.30416762499954,221.59585591699943,216.30416762499954,221.59585591699943,221.50203816700014,222.47191812500023,216.30416762499954,2,0,1.1431952909988468,,reldom2_s016,001,2025-02-18_14h52.32.618,practice_test1_AC,2022.2.5,None,
22,First_Order,4.0,audwhat,stimulus/audwhat_stim/dummy.wav,stimulus/audwhat_stim/dummy.wav,stimulus/audwhat_stim/string cello_low-pitch_F_loud.wav,stimulus/audwhat_stim/string viola_high-pitch_Ftri_loud.wav,stimulus/audwhat_stim/blank_white.png,stimulus/audwhat_stim/category_box.png,stimulus/audwhat_stim/category_yes.png,stimulus/audwhat_stim/category_no.png,None,Category,None,Category,1,0.0,0,5.25,0,5.25,0,5.25,0,0.0,0.75,0,0.0,0,0.0,0,0.0,0,0.0,0,0.0,0,0.0,1,0.5,1,2.125,0,,,,,0,28,28,28,,,,,222.47191812500023,222.47191812500023,222.47191812500023,222.47191812500023,222.47191812500023,222.47191812500023,222.47191812500023,222.47191812500023,222.38619483333437,222.47191812500023,222.47191812500023,222.47191812500023,222.38619483333437,222.47191812500023,222.47191812500023,222.47191812500023,224.58596870900146,228.413167374998,222.47191812500023,222.47191812500023,227.75262841699805,222.47191812500023,222.47191812500023,222.47191812500023,222.47191812500023,222.92626345900135,223.98075141699883,222.89234037566737,,224.58596870900146,225.64296616700085,224.55215370866816,,222.47191812500023,227.75262841699805,222.47191812500023,227.75262841699805,227.70823179199942,228.69831708399943,222.47191812500023,1,1,1.4112887080009386,,reldom2_s016,001,2025-02-18_14h52.32.618,practice_test1_AC,2022.2.5,None,
0,0.0,None,fixation,stimulus/viswhat_stim/blank_white.png,stimulus/viswhat_stim/blank_white.png,stimulus/audwhat_stim/blank_white.png,stimulus/audwhat_stim/blank_white.png,stimulus/viswhat_stim/blank_white.png,stimulus/viswhat_stim/blank_white.png,stimulus/viswhere_stim/blank_white.png,stimulus/viswhere_stim/blank_white.png,0.0,0.0,0.0,0.0,0,0.0,0,0.0,0,0.0,0,0.0,0,0.0,0.0,0,0.0,0,0.0,0,0.0,0,0.0,0,0.0,0,0.0,0,0.0,0,0.0,5,,,,,0,29,29,29,,,,,228.69831708399943,228.69831708399943,228.69831708399943,228.69831708399943,228.69831708399943,228.69831708399943,228.69831708399943,228.69831708399943,228.59036212533297,228.69831708399943,228.69831708399943,228.69831708399943,228.59036212533297,228.69831708399943,228.69831708399943,228.69831708399943,228.69831708399943,228.69831708399943,228.69831708399943,228.69831708399943,228.69831708399943,228.69831708399943,228.69831708399943,228.69831708399943,228.69831708399943,228.69831708399943,228.69831708399943,228.65702879199964,228.69831708399943,228.69831708399943,228.69831708399943,228.65702879199964,228.69831708399943,228.69831708399943,228.69831708399943,228.69831708399943,228.69831708399943,233.97641654199833,233.97641654199833,233.77017683400118,None,0,,,reldom2_s016,001,2025-02-18_14h52.32.618,practice_test1_AC,2022.2.5,None,
23,Second_Order,4.0,audwhat,stimulus/audwhat_stim/percussion mallet_high-pitch_D_loud.wav,stimulus/audwhat_stim/string cello_high-pitch_D_loud.wav,stimulus/audwhat_stim/percussion mallet_low-pitch_F_loud.wav,stimulus/audwhat_stim/percussion xylophone_high-pitch_Ftri_loud.wav,stimulus/viswhere_stim/match_blank.png,stimulus/viswhere_stim/match_box.png,stimulus/viswhere_stim/match_yes.png,stimulus/viswhere_stim/match_no.png,2.0,Match,Pitch,Category,2,5.25,0,5.25,0,5.25,0,5.25,0,0.75,0.75,0,0.0,0,0.0,0,0.0,0,0.0,1,0.5,1,2.125,1,0.5,1,2.125,0,,,,,0,30,30,30,,,,,233.97641654199833,239.22441312500086,233.97641654199833,233.97641654199833,233.97641654199833,233.97641654199833,234.4248597500009,235.4174454999993,234.43404612566545,,236.049033416999,237.04152500000055,236.05738729166504,,239.22441312500086,240.09144208399812,242.13995587499812,246.0106560839995,240.09144208399812,240.09144208399812,245.39709408400086,240.09144208399812,240.09144208399812,240.09144208399812,240.09144208399812,240.53955045900148,241.5905106249993,240.50630045866663,,242.13995587499812,243.19322158399882,242.10671875066717,243.14329258399812,240.09144208399812,245.39709408400086,240.09144208399812,245.39709408400086,245.2522929170009,246.13430608400085,240.09144208399812,2,1,1.61852591600109,,reldom2_s016,001,2025-02-18_14h52.32.618,practice_test1_AC,2022.2.5,None,
24,Second_Order,4.0,audwhat,stimulus/audwhat_stim/percussion mallet_low-pitch_Ftri_loud.wav,stimulus/audwhat_stim/percussion xylophone_high-pitch_F_loud.wav,stimulus/audwhat_stim/string cello_low-pitch_F_loud.wav,stimulus/audwhat_stim/string cello_high-pitch_Ftri_loud.wav,stimulus/viswhere_stim/match_blank.png,stimulus/viswhere_stim/match_box.png,stimulus/viswhere_stim/match_yes.png,stimulus/viswhere_stim/match_no.png,1.0,Match,Category,Category,1,5.25,0,5.25,0,5.25,0,5.25,0,0.75,0.75,0,0.0,0,0.0,0,0.0,0,0.0,1,0.5,1,2.125,1,0.5,1,2.125,0,,,,,0,31,31,31,,,,,246.13430608400085,251.3741298749992,246.13430608400085,246.13430608400085,246.13430608400085,246.13430608400085,246.58235762500044,247.57278029200097,246.58974629166576,,248.20858833400052,249.20027724999818,248.217285541665,249.2068077920012,251.3741298749992,252.2442516250012,254.29510012500032,258.1625214589985,252.2442516250012,252.2442516250012,257.5471870000001,252.2442516250012,252.2442516250012,252.2442516250012,252.2442516250012,252.69584487500106,253.74476654200043,252.66209783366529,,254.29510012500032,255.34577954199995,254.26199462566754,,252.2442516250012,257.5471870000001,252.2442516250012,257.5471870000001,257.40217920899886,258.4017368749992,252.2442516250012,2,0,2.6883109570007946,,reldom2_s016,001,2025-02-18_14h52.32.618,practice_test1_AC,2022.2.5,None,
0,0.0,None,fixation,stimulus/viswhat_stim/blank_white.png,stimulus/viswhat_stim/blank_white.png,stimulus/audwhat_stim/blank_white.png,stimulus/audwhat_stim/blank_white.png,stimulus/viswhat_stim/blank_white.png,stimulus/viswhat_stim/blank_white.png,stimulus/viswhere_stim/blank_white.png,stimulus/viswhere_stim/blank_white.png,0.0,0.0,0.0,0.0,0,0.0,0,0.0,0,0.0,0,0.0,0,0.0,0.0,0,0.0,0,0.0,0,0.0,0,0.0,0,0.0,0,0.0,0,0.0,0,0.0,5,,,,,0,32,32,32,,,,,258.4017368749992,258.4017368749992,258.4017368749992,258.4017368749992,258.4017368749992,258.4017368749992,258.4017368749992,258.4017368749992,258.29585479233185,258.4017368749992,258.4017368749992,258.4017368749992,258.29585479233185,258.4017368749992,258.4017368749992,258.4017368749992,258.4017368749992,258.4017368749992,258.4017368749992,258.4017368749992,258.4017368749992,258.4017368749992,258.4017368749992,258.4017368749992,258.4017368749992,258.4017368749992,258.4017368749992,258.34585479233186,258.4017368749992,258.4017368749992,258.4017368749992,258.34585479233186,258.4017368749992,258.4017368749992,258.4017368749992,258.4017368749992,258.4017368749992,263.7136305839995,263.7136305839995,263.4616249589999,None,0,,,reldom2_s016,001,2025-02-18_14h52.32.618,practice_test1_AC,2022.2.5,None,
,,,,,,,,,,,,,,,,,,,,,,,,,,,,,,,,,,,,,,,,,,,,,,,,,,,,,,,,,,,,,,,,,,,,,,,,,,,,,,,,,,,,,,,,,,,,,,,,,,,263.7136305839995,,,,,,,
