Trial,Order,Block,Type,Stimuli_File1,Stimuli_File2,Stimuli_File3,Stimuli_File4,Cue_File1,Cue_File2,Response_File_Yes,Response_File_No,Match,Cue_Dimension,Pair1_Dimension,Pair2_Dimension,Key,Cue1_Duration,Cue1_Onset,Cue2_Duration,Cue2_Onset,ResponseYes_Duration,ResponseYes_Onset,ResponseNo_Duration,ResponseNo_Onset,ITI_Within,ITI_Between,Image1_Duration,Image1_Onset,Image2_Duration,Image2_Onset,Image3_Duration,Image3_Onset,Image4_Duration,Image4_Onset,Sound1_Duration,Sound1_Onset,Sound2_Duration,Sound2_Onset,Sound3_Duration,Sound3_Onset,Sound4_Duration,Sound4_Onset,Fixation_Duration,trials_2.thisRepN,trials_2.thisTrialN,trials_2.thisN,trials_2.thisIndex,trials.thisRepN,trials.thisTrialN,trials.thisN,trials.thisIndex,text_start.started,key_resp_start.started,key_resp_start.keys,key_resp_start.rt,text2.started,key_resp_2.started,key_resp_2.keys,key_resp_2.rt,cue_file1.started,cue_file1.stopped,image_1.started,image_1.stopped,image_2.started,image_2.stopped,sound_icon1.started,sound_icon1.stopped,sound_1.started,sound_1.stopped,sound_icon2.started,sound_icon2.stopped,sound_2.started,sound_2.stopped,image_blank_1.started,image_blank_1.stopped,key_press.started,key_press.stopped,fixation_text.started,cue_file2.started,cue_file2.stopped,image_3.started,image_3.stopped,image_4.started,image_4.stopped,sound_icon3.started,sound_icon3.stopped,sound_3.started,sound_3.stopped,sound_icon4.started,sound_icon4.stopped,sound_4.started,sound_4.stopped,response_yes.started,response_yes.stopped,response_no.started,response_no.stopped,iti_blank.started,iti_blank.stopped,fixation_text.stopped,key_press.keys,key_press.corr,key_press.rt,participant,session,date,expName,psychopyVersion,frameRate,
,,,,,,,,,,,,,,,,,,,,,,,,,,,,,,,,,,,,,,,,,,,,,,,,,,,,7.051233249999996,7.051233249999996,2,1.1859760830000141,,,,,,,,,,,,,,,,,,,,,,,,,,,,,,,,,,,,,,,,,,,,,,,,reldom2_s016,001,2025-02-18_15h26.23.693,What-A-Scan_AC,2022.2.5,None,
,,,,,,,,,,,,,,,,,,,,,,,,,,,,,,,,,,,,,,,,,,,,0,0,0,0,,,,,,,,,8.273921041999984,8.273921041999984,5,17.83416575000001,,,,,,,,,,,,,,,,,,,,,,,,,,,,,,,,,,,,,,,,,,,,reldom2_s016,001,2025-02-18_15h26.23.693,What-A-Scan_AC,2022.2.5,None,
,,,,,,,,,,,,,,,,,,,,,,,,,,,,,,,,,,,,,,,,,,,,1,0,1,0,,,,,,,,,26.132307457999786,26.132307457999786,5,1.9726921250000942,,,,,,,,,,,,,,,,,,,,,,,,,,,,,,,,,,,,,,,,,,,,reldom2_s016,001,2025-02-18_15h26.23.693,What-A-Scan_AC,2022.2.5,None,
,,,,,,,,,,,,,,,,,,,,,,,,,,,,,,,,,,,,,,,,,,,,2,0,2,0,,,,,,,,,28.12690670799998,28.12690670799998,5,1.9774474580001424,,,,,,,,,,,,,,,,,,,,,,,,,,,,,,,,,,,,,,,,,,,,reldom2_s016,001,2025-02-18_15h26.23.693,What-A-Scan_AC,2022.2.5,None,
,,,,,,,,,,,,,,,,,,,,,,,,,,,,,,,,,,,,,,,,,,,,3,0,3,0,,,,,,,,,30.12387866699987,30.12387866699987,5,1.9823401250000643,,,,,,,,,,,,,,,,,,,,,,,,,,,,,,,,,,,,,,,,,,,,reldom2_s016,001,2025-02-18_15h26.23.693,What-A-Scan_AC,2022.2.5,None,
0,0.0,None,fixation,stimulus/audwhat_stim/blank_white.png,stimulus/audwhat_stim/blank_white.png,stimulus/viswhat_stim/blank_white.png,stimulus/viswhat_stim/blank_white.png,stimulus/audwhat_stim/blank_white.png,stimulus/audwhat_stim/blank_white.png,stimulus/audwhat_stim/blank_white.png,stimulus/audwhat_stim/blank_white.png,0.0,0.0,0.0,0.0,0,0.0,0,0.0,0,0.0,0,0.0,0,0.0,0.0,0,0.0,0,0.0,0,0.0,0,0.0,0,0.0,0,0.0,0,0.0,0,0.0,16,,,,,0,0,0,0,,,,,,,,,32.32491904199992,32.32491904199992,32.32491904199992,32.32491904199992,32.32491904199992,32.32491904199992,32.32491904199992,32.32491904199992,32.223703499666605,32.32491904199992,32.32491904199992,32.32491904199992,32.223703499666605,32.32491904199992,32.32491904199992,32.32491904199992,32.32491904199992,32.32491904199992,32.32491904199992,32.32491904199992,32.32491904199992,32.32491904199992,32.32491904199992,32.32491904199992,32.32491904199992,32.32491904199992,32.32491904199992,32.29037016633327,32.32491904199992,32.32491904199992,32.32491904199992,32.29037016633327,32.32491904199992,32.32491904199992,32.32491904199992,32.32491904199992,32.32491904199992,37.4990943329999,37.4990943329999,48.562346041999945,None,0,,reldom2_s016,001,2025-02-18_15h26.23.693,What-A-Scan_AC,2022.2.5,None,
1,First_Order,1.0,audwhat,stimulus/audwhat_stim/dummy.wav,stimulus/audwhat_stim/dummy.wav,stimulus/audwhat_stim/percussion mallet_low-pitch_Dtri_loud.wav,stimulus/audwhat_stim/percussion xylophone_high-pitch_F_loud.wav,stimulus/audwhat_stim/blank_white.png,stimulus/audwhat_stim/pitch_box.png,stimulus/audwhat_stim/pitch_yes.png,stimulus/audwhat_stim/pitch_no.png,None,Pitch,None,Category,2,0.0,0,5.125,0,5.125,0,5.125,0,0.0,0.625,0,0.0,0,0.0,0,0.0,0,0.0,0,0.0,0,0.0,1,0.5,1,2.125,0,,,,,0,1,1,1,,,,,,,,,48.562346041999945,48.562346041999945,48.562346041999945,48.562346041999945,48.562346041999945,48.562346041999945,48.562346041999945,48.562346041999945,48.49537149999983,48.562346041999945,48.562346041999945,48.562346041999945,48.49537149999983,48.562346041999945,48.562346041999945,48.562346041999945,50.64656449999984,,48.562346041999945,48.562346041999945,53.71217545799982,48.562346041999945,48.562346041999945,48.562346041999945,48.562346041999945,49.05077379199997,50.11521999999991,49.02294387466647,,50.64656449999984,51.715162874999805,50.61886987466666,51.669565707999936,48.562346041999945,53.71217545799982,48.562346041999945,53.71217545799982,53.790408458,54.453923999999915,48.562346041999945,2,1,1.9893487920001007,reldom2_s016,001,2025-02-18_15h26.23.693,What-A-Scan_AC,2022.2.5,None,
2,First_Order,1.0,audwhat,stimulus/audwhat_stim/dummy.wav,stimulus/audwhat_stim/dummy.wav,stimulus/audwhat_stim/percussion xylophone_high-pitch_Dtri_loud.wav,stimulus/audwhat_stim/percussion mallet_low-pitch_D_loud.wav,stimulus/audwhat_stim/blank_white.png,stimulus/audwhat_stim/pitch_box.png,stimulus/audwhat_stim/pitch_yes.png,stimulus/audwhat_stim/pitch_no.png,None,Pitch,None,Category,2,0.0,0,5.125,0,5.125,0,5.125,0,0.0,0.625,0,0.0,0,0.0,0,0.0,0,0.0,0,0.0,0,0.0,1,0.5,1,2.125,0,,,,,0,2,2,2,,,,,,,,,54.658954374999894,54.658954374999894,54.658954374999894,54.658954374999894,54.658954374999894,54.658954374999894,54.658954374999894,54.658954374999894,54.58725733333325,54.658954374999894,54.658954374999894,54.658954374999894,54.58725733333325,54.658954374999894,54.658954374999894,54.658954374999894,56.75172470799998,60.773967874999926,54.658954374999894,54.658954374999894,59.82620708299987,54.658954374999894,54.658954374999894,54.658954374999894,54.658954374999894,55.10483404199999,56.17496725000001,55.07680008366653,56.12988445799988,56.75172470799998,57.821925792,56.7233074996666,,54.658954374999894,59.82620708299987,54.658954374999894,59.82620708299987,59.86547804199995,60.530186125,54.658954374999894,1,0,1.78211879100013,reldom2_s016,001,2025-02-18_15h26.23.693,What-A-Scan_AC,2022.2.5,None,
3,First_Order,1.0,audwhat,stimulus/audwhat_stim/dummy.wav,stimulus/audwhat_stim/dummy.wav,stimulus/audwhat_stim/percussion mallet_low-pitch_F_loud.wav,stimulus/audwhat_stim/percussion xylophone_high-pitch_Ftri_loud.wav,stimulus/audwhat_stim/blank_white.png,stimulus/audwhat_stim/category_box.png,stimulus/audwhat_stim/category_yes.png,stimulus/audwhat_stim/category_no.png,None,Category,None,Category,1,0.0,0,5.125,0,5.125,0,5.125,0,0.0,0.625,0,0.0,0,0.0,0,0.0,0,0.0,0,0.0,0,0.0,1,0.5,1,2.125,0,,,,,0,3,3,3,,,,,,,,,60.773967874999926,60.773967874999926,60.773967874999926,60.773967874999926,60.773967874999926,60.773967874999926,60.773967874999926,60.773967874999926,60.70265658333313,60.773967874999926,60.773967874999926,60.773967874999926,60.70265658333313,60.773967874999926,60.773967874999926,60.773967874999926,62.8838646669999,,60.773967874999926,60.773967874999926,65.94344279199981,60.773967874999926,60.773967874999926,60.773967874999926,60.773967874999926,61.22170516699998,62.2552183329999,61.193810124666484,,62.8838646669999,63.91864399999986,62.85568954166662,63.91864399999986,60.773967874999926,65.94344279199981,60.773967874999926,65.94344279199981,65.98298437499989,66.65549658299983,60.773967874999926,1,1,1.0436532090000128,reldom2_s016,001,2025-02-18_15h26.23.693,What-A-Scan_AC,2022.2.5,None,
4,First_Order,1.0,audwhat,stimulus/audwhat_stim/dummy.wav,stimulus/audwhat_stim/dummy.wav,stimulus/audwhat_stim/percussion mallet_low-pitch_Dtri_loud.wav,stimulus/audwhat_stim/percussion mallet_high-pitch_F_loud.wav,stimulus/audwhat_stim/blank_white.png,stimulus/audwhat_stim/category_box.png,stimulus/audwhat_stim/category_yes.png,stimulus/audwhat_stim/category_no.png,None,Category,None,Category,1,0.0,0,5.125,0,5.125,0,5.125,0,0.0,0.625,0,0.0,0,0.0,0,0.0,0,0.0,0,0.0,0,0.0,1,0.5,1,2.125,0,,,,,0,4,4,4,,,,,,,,,66.86261220799997,66.86261220799997,66.86261220799997,66.86261220799997,66.86261220799997,66.86261220799997,66.86261220799997,66.86261220799997,66.78882991633316,66.86261220799997,66.86261220799997,66.86261220799997,66.78882991633316,66.86261220799997,66.86261220799997,66.86261220799997,68.94057037499988,72.99645391699983,66.86261220799997,66.86261220799997,72.01648429199986,66.86261220799997,66.86261220799997,66.86261220799997,66.86261220799997,67.31360362499981,68.35322158299982,67.2849347496665,,68.94057037499988,69.98213266699986,68.91184574966657,,66.86261220799997,72.01648429199986,66.86261220799997,72.01648429199986,72.05659470799992,72.7323131669998,66.86261220799997,1,1,1.0788279580001472,reldom2_s016,001,2025-02-18_15h26.23.693,What-A-Scan_AC,2022.2.5,None,
0,0.0,None,fixation,stimulus/audwhat_stim/blank_white.png,stimulus/audwhat_stim/blank_white.png,stimulus/viswhat_stim/blank_white.png,stimulus/viswhat_stim/blank_white.png,stimulus/audwhat_stim/blank_white.png,stimulus/audwhat_stim/blank_white.png,stimulus/audwhat_stim/blank_white.png,stimulus/audwhat_stim/blank_white.png,0.0,0.0,0.0,0.0,0,0.0,0,0.0,0,0.0,0,0.0,0,0.0,0.0,0,0.0,0,0.0,0,0.0,0,0.0,0,0.0,0,0.0,0,0.0,0,0.0,10,,,,,0,5,5,5,,,,,,,,,72.99645391699983,72.99645391699983,72.99645391699983,72.99645391699983,72.99645391699983,72.99645391699983,72.99645391699983,72.99645391699983,72.90517770833333,72.99645391699983,72.99645391699983,72.99645391699983,72.90517770833333,72.99645391699983,72.99645391699983,72.99645391699983,72.99645391699983,72.99645391699983,72.99645391699983,72.99645391699983,72.99645391699983,72.99645391699983,72.99645391699983,72.99645391699983,72.99645391699983,72.99645391699983,72.99645391699983,72.95517770833334,72.99645391699983,72.99645391699983,72.99645391699983,72.95517770833334,72.99645391699983,72.99645391699983,72.99645391699983,72.99645391699983,72.99645391699983,78.22776974999988,78.22776974999988,83.15582212499999,None,0,,reldom2_s016,001,2025-02-18_15h26.23.693,What-A-Scan_AC,2022.2.5,None,
5,Second_Order,1.0,audwhat,stimulus/audwhat_stim/string cello_low-pitch_D_loud.wav,stimulus/audwhat_stim/string viola_high-pitch_Dtri_loud.wav,stimulus/audwhat_stim/percussion mallet_low-pitch_D_loud.wav,stimulus/audwhat_stim/string viola_low-pitch_D_loud.wav,stimulus/audwhat_stim/match_blank.png,stimulus/audwhat_stim/match_box.png,stimulus/audwhat_stim/match_yes.png,stimulus/audwhat_stim/match_no.png,2.0,Match,Category,Pitch,2,5.125,0,5.125,0,5.125,0,5.125,0,0.75,0.75,0,0.0,0,0.0,0,0.0,0,0.0,1,0.5,1,2.125,1,0.5,1,2.125,0,,,,,0,6,6,6,,,,,,,,,83.15582212499999,88.27185083299969,83.15582212499999,83.15582212499999,83.15582212499999,83.15582212499999,83.6089492919998,84.60753091699985,83.6221584166665,,85.23025162499994,86.22851312499984,85.24258595866651,,88.27185083299969,89.12265237499992,91.19097616699969,,89.12265237499992,89.12265237499992,94.3001779169997,89.12265237499992,89.12265237499992,89.12265237499992,89.12265237499992,89.57049483300011,90.6072462919999,89.54189654166659,,91.19097616699969,92.22283441700006,91.16251516666672,,89.12265237499992,94.3001779169997,89.12265237499992,94.3001779169997,94.3001779169997,,89.12265237499992,2,1,1.0009617499999877,reldom2_s016,001,2025-02-18_15h26.23.693,What-A-Scan_AC,2022.2.5,None,
6,Second_Order,1.0,audwhat,stimulus/audwhat_stim/string cello_high-pitch_Dtri_loud.wav,stimulus/audwhat_stim/percussion mallet_high-pitch_Dtri_loud.wav,stimulus/audwhat_stim/percussion mallet_low-pitch_Ftri_loud.wav,stimulus/audwhat_stim/string cello_low-pitch_Ftri_loud.wav,stimulus/audwhat_stim/match_blank.png,stimulus/audwhat_stim/match_box.png,stimulus/audwhat_stim/match_yes.png,stimulus/audwhat_stim/match_no.png,1.0,Match,Pitch,Pitch,1,5.125,0,5.125,0,5.125,0,5.125,0,0.625,0.625,0,0.0,0,0.0,0,0.0,0,0.0,1,0.5,1,2.125,1,0.5,1,2.125,0,,,,,0,7,7,7,,,,,,,,,95.0925277079998,100.2151162079997,95.0925277079998,95.0925277079998,95.0925277079998,95.0925277079998,95.55135566700005,96.53849404199968,95.56593562466652,,97.17436112499968,98.17246079199981,97.18654883366663,,100.2151162079997,100.94781074999969,103.00661849999983,107.0426373329999,100.94781074999969,100.94781074999969,106.10429499999987,100.94781074999969,100.94781074999969,100.94781074999969,100.94781074999969,101.39402345799977,102.42549620799969,101.36573262466665,,103.00661849999983,104.03972762499984,102.97842887466642,,100.94781074999969,106.10429499999987,100.94781074999969,106.10429499999987,106.10429499999987,106.77767954199976,100.94781074999969,2,0,2.7560592500003622,reldom2_s016,001,2025-02-18_15h26.23.693,What-A-Scan_AC,2022.2.5,None,
0,0.0,None,fixation,stimulus/audwhat_stim/blank_white.png,stimulus/audwhat_stim/blank_white.png,stimulus/viswhat_stim/blank_white.png,stimulus/viswhat_stim/blank_white.png,stimulus/audwhat_stim/blank_white.png,stimulus/audwhat_stim/blank_white.png,stimulus/audwhat_stim/blank_white.png,stimulus/audwhat_stim/blank_white.png,0.0,0.0,0.0,0.0,0,0.0,0,0.0,0,0.0,0,0.0,0,0.0,0.0,0,0.0,0,0.0,0,0.0,0,0.0,0,0.0,0,0.0,0,0.0,0,0.0,9,,,,,0,8,8,8,,,,,,,,,107.0426373329999,107.0426373329999,107.0426373329999,107.0426373329999,107.0426373329999,107.0426373329999,107.0426373329999,107.0426373329999,106.95064025033332,107.0426373329999,107.0426373329999,107.0426373329999,106.95064025033332,107.0426373329999,107.0426373329999,107.0426373329999,107.0426373329999,107.0426373329999,107.0426373329999,107.0426373329999,107.0426373329999,107.0426373329999,107.0426373329999,107.0426373329999,107.0426373329999,107.0426373329999,107.0426373329999,107.00064025033333,107.0426373329999,107.0426373329999,107.0426373329999,107.00064025033333,107.0426373329999,107.0426373329999,107.0426373329999,107.0426373329999,107.0426373329999,112.26809066700002,112.26809066700002,116.30092433300001,None,0,,reldom2_s016,001,2025-02-18_15h26.23.693,What-A-Scan_AC,2022.2.5,None,
7,First_Order,2.0,audwhat,stimulus/audwhat_stim/dummy.wav,stimulus/audwhat_stim/dummy.wav,stimulus/audwhat_stim/string cello_low-pitch_F_loud.wav,stimulus/audwhat_stim/percussion mallet_low-pitch_F_loud.wav,stimulus/audwhat_stim/blank_white.png,stimulus/audwhat_stim/pitch_box.png,stimulus/audwhat_stim/pitch_yes.png,stimulus/audwhat_stim/pitch_no.png,None,Pitch,None,Pitch,1,0.0,0,5.125,0,5.125,0,5.125,0,0.0,0.625,0,0.0,0,0.0,0,0.0,0,0.0,0,0.0,0,0.0,1,0.5,1,2.125,0,,,,,0,9,9,9,,,,,,,,,116.30092433300001,116.30092433300001,116.30092433300001,116.30092433300001,116.30092433300001,116.30092433300001,116.30092433300001,116.30092433300001,116.22067737466652,116.30092433300001,116.30092433300001,116.30092433300001,116.22067737466652,116.30092433300001,116.30092433300001,116.30092433300001,118.3942868329998,,116.30092433300001,116.30092433300001,121.45170099999973,116.30092433300001,116.30092433300001,116.30092433300001,116.30092433300001,116.75721112499991,117.80148208300011,116.72768670866664,,118.3942868329998,119.44306887500011,118.36485404166662,,116.30092433300001,121.45170099999973,116.30092433300001,121.45170099999973,121.49235924999971,122.17639395799984,116.30092433300001,1,1,3.0495531250003296,reldom2_s016,001,2025-02-18_15h26.23.693,What-A-Scan_AC,2022.2.5,None,
8,First_Order,2.0,audwhat,stimulus/audwhat_stim/dummy.wav,stimulus/audwhat_stim/dummy.wav,stimulus/audwhat_stim/string cello_low-pitch_Dtri_loud.wav,stimulus/audwhat_stim/percussion mallet_low-pitch_Dtri_loud.wav,stimulus/audwhat_stim/blank_white.png,stimulus/audwhat_stim/category_box.png,stimulus/audwhat_stim/category_yes.png,stimulus/audwhat_stim/category_no.png,None,Category,None,Pitch,2,0.0,0,5.125,0,5.125,0,5.125,0,0.0,0.625,0,0.0,0,0.0,0,0.0,0,0.0,0,0.0,0,0.0,1,0.5,1,2.125,0,,,,,0,10,10,10,,,,,,,,,122.38683345799996,122.38683345799996,122.38683345799996,122.38683345799996,122.38683345799996,122.38683345799996,122.38683345799996,122.38683345799996,122.30972729133316,122.38683345799996,122.38683345799996,122.38683345799996,122.30972729133316,122.38683345799996,122.38683345799996,122.38683345799996,124.50043691699989,128.50812683299978,122.38683345799996,122.38683345799996,127.57077445799973,122.38683345799996,122.38683345799996,122.38683345799996,122.38683345799996,122.84683466699994,123.9016415829999,122.81759908366668,,124.50043691699989,125.55586833299981,124.47128983366657,,122.38683345799996,127.57077445799973,122.38683345799996,127.57077445799973,127.61146399999984,128.29818141700002,122.38683345799996,2,1,1.2343249159998777,reldom2_s016,001,2025-02-18_15h26.23.693,What-A-Scan_AC,2022.2.5,None,
9,First_Order,2.0,audwhat,stimulus/audwhat_stim/dummy.wav,stimulus/audwhat_stim/dummy.wav,stimulus/audwhat_stim/string cello_high-pitch_F_loud.wav,stimulus/audwhat_stim/percussion mallet_high-pitch_F_loud.wav,stimulus/audwhat_stim/blank_white.png,stimulus/audwhat_stim/pitch_box.png,stimulus/audwhat_stim/pitch_yes.png,stimulus/audwhat_stim/pitch_no.png,None,Pitch,None,Pitch,1,0.0,0,5.125,0,5.125,0,5.125,0,0.0,0.625,0,0.0,0,0.0,0,0.0,0,0.0,0,0.0,0,0.0,1,0.5,1,2.125,0,,,,,0,11,11,11,,,,,,,,,128.50812683299978,128.50812683299978,128.50812683299978,128.50812683299978,128.50812683299978,128.50812683299978,128.50812683299978,128.50812683299978,128.43151475033338,128.50812683299978,128.50812683299978,128.50812683299978,128.43151475033338,128.50812683299978,128.50812683299978,128.50812683299978,130.61258270799976,134.6284518330001,128.50812683299978,128.50812683299978,133.6863394579998,128.50812683299978,128.50812683299978,128.50812683299978,128.50812683299978,128.96656179199977,130.01710412499983,128.9371932086665,,130.61258270799976,131.66773770799978,130.5835104996668,,128.50812683299978,133.6863394579998,128.50812683299978,133.6863394579998,133.72598212499975,134.37649529199984,128.50812683299978,1,1,0.9295853749999878,reldom2_s016,001,2025-02-18_15h26.23.693,What-A-Scan_AC,2022.2.5,None,
10,First_Order,2.0,audwhat,stimulus/audwhat_stim/dummy.wav,stimulus/audwhat_stim/dummy.wav,stimulus/audwhat_stim/percussion xylophone_high-pitch_D_loud.wav,stimulus/audwhat_stim/string cello_high-pitch_D_loud.wav,stimulus/audwhat_stim/blank_white.png,stimulus/audwhat_stim/category_box.png,stimulus/audwhat_stim/category_yes.png,stimulus/audwhat_stim/category_no.png,None,Category,None,Pitch,2,0.0,0,5.125,0,5.125,0,5.125,0,0.0,0.625,0,0.0,0,0.0,0,0.0,0,0.0,0,0.0,0,0.0,1,0.5,1,2.125,0,,,,,0,12,12,12,,,,,,,,,134.6284518330001,134.6284518330001,134.6284518330001,134.6284518330001,134.6284518330001,134.6284518330001,134.6284518330001,134.6284518330001,134.54993058333312,134.6284518330001,134.6284518330001,134.6284518330001,134.54993058333312,134.6284518330001,134.6284518330001,134.6284518330001,136.7053463750001,140.76165420799975,134.6284518330001,134.6284518330001,139.7995248750001,134.6284518330001,134.6284518330001,134.6284518330001,134.6284518330001,135.0906788750001,136.15329899999983,135.06090541666666,136.105854958,136.7053463750001,137.76789737500008,136.67574837466648,,134.6284518330001,139.7995248750001,134.6284518330001,139.7995248750001,139.84043395799995,140.49142104199996,134.6284518330001,2,1,1.9672560829999384,reldom2_s016,001,2025-02-18_15h26.23.693,What-A-Scan_AC,2022.2.5,None,
0,0.0,None,fixation,stimulus/audwhat_stim/blank_white.png,stimulus/audwhat_stim/blank_white.png,stimulus/viswhat_stim/blank_white.png,stimulus/viswhat_stim/blank_white.png,stimulus/audwhat_stim/blank_white.png,stimulus/audwhat_stim/blank_white.png,stimulus/audwhat_stim/blank_white.png,stimulus/audwhat_stim/blank_white.png,0.0,0.0,0.0,0.0,0,0.0,0,0.0,0,0.0,0,0.0,0,0.0,0.0,0,0.0,0,0.0,0,0.0,0,0.0,0,0.0,0,0.0,0,0.0,0,0.0,10,,,,,0,13,13,13,,,,,,,,,140.76165420799975,140.76165420799975,140.76165420799975,140.76165420799975,140.76165420799975,140.76165420799975,140.76165420799975,140.76165420799975,140.66515825033312,140.76165420799975,140.76165420799975,140.76165420799975,140.66515825033312,140.76165420799975,140.76165420799975,140.76165420799975,140.76165420799975,140.76165420799975,140.76165420799975,140.76165420799975,140.76165420799975,140.76165420799975,140.76165420799975,140.76165420799975,140.76165420799975,140.76165420799975,140.76165420799975,140.7151582503331,140.76165420799975,140.76165420799975,140.76165420799975,140.7151582503331,140.76165420799975,140.76165420799975,140.76165420799975,140.76165420799975,140.76165420799975,145.9488913329999,145.9488913329999,150.91130412500002,None,0,,reldom2_s016,001,2025-02-18_15h26.23.693,What-A-Scan_AC,2022.2.5,None,
11,Second_Order,2.0,audwhat,stimulus/audwhat_stim/string viola_high-pitch_D_loud.wav,stimulus/audwhat_stim/percussion xylophone_high-pitch_D_loud.wav,stimulus/audwhat_stim/percussion mallet_low-pitch_F_loud.wav,stimulus/audwhat_stim/string viola_low-pitch_F_loud.wav,stimulus/audwhat_stim/match_blank.png,stimulus/audwhat_stim/match_box.png,stimulus/audwhat_stim/match_yes.png,stimulus/audwhat_stim/match_no.png,1.0,Match,Pitch,Pitch,1,5.125,0,5.125,0,5.125,0,5.125,0,0.75,0.75,0,0.0,0,0.0,0,0.0,0,0.0,1,0.5,1,2.125,1,0.5,1,2.125,0,,,,,0,14,14,14,,,,,,,,,150.91130412500002,156.02726662500004,150.91130412500002,150.91130412500002,150.91130412500002,150.91130412500002,151.36404345799997,152.350543667,151.3781679586664,,152.98677537499975,153.984540875,152.99871754166637,153.9890709169997,156.02726662500004,156.8784989999997,158.92681391700012,162.87564562500006,156.8784989999997,156.8784989999997,162.03409608300012,156.8784989999997,156.8784989999997,156.8784989999997,156.8784989999997,157.33215070799974,158.38124620799977,157.30307787466657,,158.92681391700012,159.97780495799975,158.89739929166674,,156.8784989999997,162.03409608300012,156.8784989999997,162.03409608300012,162.0746710830001,,156.8784989999997,2,0,1.464133167,reldom2_s016,001,2025-02-18_15h26.23.693,What-A-Scan_AC,2022.2.5,None,
12,Second_Order,2.0,audwhat,stimulus/audwhat_stim/percussion mallet_high-pitch_Dtri_loud.wav,stimulus/audwhat_stim/string viola_high-pitch_Dtri_loud.wav,stimulus/audwhat_stim/string viola_low-pitch_Dtri_loud.wav,stimulus/audwhat_stim/percussion mallet_low-pitch_Dtri_loud.wav,stimulus/audwhat_stim/match_blank.png,stimulus/audwhat_stim/match_box.png,stimulus/audwhat_stim/match_yes.png,stimulus/audwhat_stim/match_no.png,1.0,Match,Pitch,Pitch,1,5.125,0,5.125,0,5.125,0,5.125,0,0.625,0.625,0,0.0,0,0.0,0,0.0,0,0.0,1,0.5,1,2.125,1,0.5,1,2.125,0,,,,,0,15,15,15,,,,,,,,,162.87564562500006,167.98856649999993,162.87564562500006,162.87564562500006,162.87564562500006,162.87564562500006,163.32615170799977,164.31218429199976,163.33925949966672,,164.96006250000005,165.94937404200004,164.96302712466652,,167.98856649999993,168.71833212499973,170.79807525,,168.71833212499973,168.71833212499973,173.8883294169998,168.71833212499973,168.71833212499973,168.71833212499973,168.71833212499973,169.16854391699985,170.20970899999998,169.1399242496664,,170.79807525,171.84307295799977,170.7698334996667,,168.71833212499973,173.8883294169998,168.71833212499973,173.8883294169998,173.8883294169998,174.56754012499982,168.71833212499973,2,0,2.6080976250000276,reldom2_s016,001,2025-02-18_15h26.23.693,What-A-Scan_AC,2022.2.5,None,
0,0.0,None,fixation,stimulus/audwhat_stim/blank_white.png,stimulus/audwhat_stim/blank_white.png,stimulus/viswhat_stim/blank_white.png,stimulus/viswhat_stim/blank_white.png,stimulus/audwhat_stim/blank_white.png,stimulus/audwhat_stim/blank_white.png,stimulus/audwhat_stim/blank_white.png,stimulus/audwhat_stim/blank_white.png,0.0,0.0,0.0,0.0,0,0.0,0,0.0,0,0.0,0,0.0,0,0.0,0.0,0,0.0,0,0.0,0,0.0,0,0.0,0,0.0,0,0.0,0,0.0,0,0.0,8,,,,,0,16,16,16,,,,,,,,,174.79714283299995,174.79714283299995,174.79714283299995,174.79714283299995,174.79714283299995,174.79714283299995,174.79714283299995,174.79714283299995,174.70087345833318,174.79714283299995,174.79714283299995,174.79714283299995,174.70087345833318,174.79714283299995,174.79714283299995,174.79714283299995,174.79714283299995,174.79714283299995,174.79714283299995,174.79714283299995,174.79714283299995,174.79714283299995,174.79714283299995,174.79714283299995,174.79714283299995,174.79714283299995,174.79714283299995,174.75087345833316,174.79714283299995,174.79714283299995,174.79714283299995,174.75087345833316,174.79714283299995,174.79714283299995,174.79714283299995,174.79714283299995,174.79714283299995,180.0257395420001,180.0257395420001,183.16378666700007,None,0,,reldom2_s016,001,2025-02-18_15h26.23.693,What-A-Scan_AC,2022.2.5,None,
13,First_Order,3.0,viswhat,stimulus/viswhat_stim/blank_white.png,stimulus/viswhat_stim/blank_white.png,stimulus/viswhat_stim/water_vehicle-cruiseship.png,stimulus/viswhat_stim/land_vehicle-pickuptruck.png,stimulus/viswhat_stim/blank_white.png,stimulus/viswhat_stim/type_box.png,stimulus/viswhat_stim/type_yes.png,stimulus/viswhat_stim/type_no.png,None,Type,None,Type,1,0.0,0,5.125,0,5.125,0,5.125,0,0.0,0.625,0,0.0,0,0.0,1,0.5,1,2.125,0,0.0,0,0.0,0,0.0,0,0.0,0,,,,,0,17,17,17,,,,,,,,,183.16378666700007,183.16378666700007,183.16378666700007,183.16378666700007,183.16378666700007,183.16378666700007,183.16378666700007,183.16378666700007,182.97149229166638,183.16378666700007,183.16378666700007,183.16378666700007,182.97149229166638,183.16378666700007,183.16378666700007,183.16378666700007,185.18822549999982,,183.16378666700007,183.16378666700007,188.36672729199995,183.54902320799988,184.7072175830001,185.18822549999982,186.34558945799995,183.16378666700007,183.16378666700007,183.07149229166637,183.16378666700007,183.16378666700007,183.16378666700007,183.07149229166637,183.16378666700007,183.16378666700007,188.36672729199995,183.16378666700007,188.36672729199995,188.36672729199995,,183.16378666700007,1,1,1.8475974170000882,reldom2_s016,001,2025-02-18_15h26.23.693,What-A-Scan_AC,2022.2.5,None,
14,First_Order,3.0,viswhat,stimulus/viswhat_stim/blank_white.png,stimulus/viswhat_stim/blank_white.png,stimulus/viswhat_stim/water_animal-lobster.png,stimulus/viswhat_stim/water_vehicle-cruiseship.png,stimulus/viswhat_stim/blank_white.png,stimulus/viswhat_stim/location_box.png,stimulus/viswhat_stim/location_yes.png,stimulus/viswhat_stim/location_no.png,None,Location,None,Location,1,0.0,0,5.125,0,5.125,0,5.125,0,0.0,0.625,0,0.0,0,0.0,1,0.5,1,2.125,0,0.0,0,0.0,0,0.0,0,0.0,0,,,,,0,18,18,18,,,,,,,,,189.58622066699968,189.58622066699968,189.58622066699968,189.58622066699968,189.58622066699968,189.58622066699968,189.58622066699968,189.58622066699968,189.14667008333345,189.58622066699968,189.58622066699968,189.58622066699968,189.14667008333345,189.58622066699968,189.58622066699968,189.58622066699968,191.57481841699996,,189.58622066699968,189.58622066699968,195.1038485419997,190.02892912499988,191.35341437500006,191.57481841699996,192.90080645800003,189.58622066699968,189.58622066699968,189.36333675000012,189.58622066699968,189.58622066699968,189.58622066699968,189.36333675000012,189.58622066699968,189.58622066699968,195.1038485419997,189.58622066699968,195.1038485419997,194.66767295799968,,189.58622066699968,1,1,2.7078605000001517,reldom2_s016,001,2025-02-18_15h26.23.693,What-A-Scan_AC,2022.2.5,None,
15,First_Order,3.0,viswhat,stimulus/viswhat_stim/blank_white.png,stimulus/viswhat_stim/blank_white.png,stimulus/viswhat_stim/water_vehicle-cruiseship.png,stimulus/viswhat_stim/land_vehicle-bus.png,stimulus/viswhat_stim/blank_white.png,stimulus/viswhat_stim/location_box.png,stimulus/viswhat_stim/location_yes.png,stimulus/viswhat_stim/location_no.png,None,Location,None,Type,2,0.0,0,5.125,0,5.125,0,5.125,0,0.0,0.625,0,0.0,0,0.0,1,0.5,1,2.125,0,0.0,0,0.0,0,0.0,0,0.0,0,,,,,0,19,19,19,,,,,,,,,195.78166762499973,195.78166762499973,195.78166762499973,195.78166762499973,195.78166762499973,195.78166762499973,195.78166762499973,195.78166762499973,195.58718187533304,195.78166762499973,195.78166762499973,195.78166762499973,195.58718187533304,195.78166762499973,195.78166762499973,195.78166762499973,197.80337524999982,,195.78166762499973,195.78166762499973,201.03126291700005,196.18699179200007,197.29871987499996,197.80337524999982,198.91477904199996,195.78166762499973,195.78166762499973,195.68718187533304,195.78166762499973,195.78166762499973,195.78166762499973,195.68718187533304,195.78166762499973,195.78166762499973,201.03126291700005,195.78166762499973,201.03126291700005,200.936485125,,195.78166762499973,2,1,1.4822034579997307,reldom2_s016,001,2025-02-18_15h26.23.693,What-A-Scan_AC,2022.2.5,None,
16,First_Order,3.0,viswhat,stimulus/viswhat_stim/blank_white.png,stimulus/viswhat_stim/blank_white.png,stimulus/viswhat_stim/land_vehicle-oldcar.png,stimulus/viswhat_stim/water_vehicle-pirateship.png,stimulus/viswhat_stim/blank_white.png,stimulus/viswhat_stim/type_box.png,stimulus/viswhat_stim/type_yes.png,stimulus/viswhat_stim/type_no.png,None,Type,None,Type,1,0.0,0,5.125,0,5.125,0,5.125,0,0.0,0.625,0,0.0,0,0.0,1,0.5,1,2.125,0,0.0,0,0.0,0,0.0,0,0.0,0,,,,,0,20,20,20,,,,,,,,,201.8266824169998,201.8266824169998,201.8266824169998,201.8266824169998,201.8266824169998,201.8266824169998,201.8266824169998,201.8266824169998,201.7569080830001,201.8266824169998,201.8266824169998,201.8266824169998,201.7569080830001,201.8266824169998,201.8266824169998,201.8266824169998,203.92618587499987,,201.8266824169998,201.8266824169998,207.01383216699992,202.29817449999996,203.32771783299972,203.92618587499987,204.95611866700006,201.8266824169998,201.8266824169998,201.79024141633346,201.8266824169998,201.8266824169998,201.8266824169998,201.79024141633346,201.8266824169998,201.8266824169998,207.01383216699992,201.8266824169998,207.01383216699992,207.05101441700003,207.72216116699997,201.8266824169998,1,1,1.4683356250002362,reldom2_s016,001,2025-02-18_15h26.23.693,What-A-Scan_AC,2022.2.5,None,
0,0.0,None,fixation,stimulus/audwhat_stim/blank_white.png,stimulus/audwhat_stim/blank_white.png,stimulus/viswhat_stim/blank_white.png,stimulus/viswhat_stim/blank_white.png,stimulus/audwhat_stim/blank_white.png,stimulus/audwhat_stim/blank_white.png,stimulus/audwhat_stim/blank_white.png,stimulus/audwhat_stim/blank_white.png,0.0,0.0,0.0,0.0,0,0.0,0,0.0,0,0.0,0,0.0,0,0.0,0.0,0,0.0,0,0.0,0,0.0,0,0.0,0,0.0,0,0.0,0,0.0,0,0.0,9,,,,,0,21,21,21,,,,,,,,,207.94770487499977,207.94770487499977,207.94770487499977,207.94770487499977,207.94770487499977,207.94770487499977,207.94770487499977,207.94770487499977,207.85549450033332,207.94770487499977,207.94770487499977,207.94770487499977,207.85549450033332,207.94770487499977,207.94770487499977,207.94770487499977,207.94770487499977,207.94770487499977,207.94770487499977,207.94770487499977,207.94770487499977,207.94770487499977,207.94770487499977,207.94770487499977,207.94770487499977,207.94770487499977,207.94770487499977,207.9054945003333,207.94770487499977,207.94770487499977,207.94770487499977,207.9054945003333,207.94770487499977,207.94770487499977,207.94770487499977,207.94770487499977,207.94770487499977,213.18015212499972,213.18015212499972,217.11474020799983,None,0,,reldom2_s016,001,2025-02-18_15h26.23.693,What-A-Scan_AC,2022.2.5,None,
17,Second_Order,3.0,viswhat,stimulus/viswhat_stim/water_animal-shark.png,stimulus/viswhat_stim/water_vehicle-pirateship.png,stimulus/viswhat_stim/water_animal-squid.png,stimulus/viswhat_stim/land_animal-elephant.png,stimulus/audwhat_stim/match_blank.png,stimulus/audwhat_stim/match_box.png,stimulus/audwhat_stim/match_yes.png,stimulus/audwhat_stim/match_no.png,2.0,Match,Location,Type,2,5.125,0,5.125,0,5.125,0,5.125,0,0.75,0.75,1,0.5,1,2.125,1,0.5,1,2.125,0,0.0,0,0.0,0,0.0,0,0.0,0,,,,,0,22,22,22,,,,,,,,,217.11474020799983,222.23034350000012,217.56877400000008,218.56748704200004,219.20180670800005,220.19088233299976,217.11474020799983,217.11474020799983,217.12535541699995,217.11474020799983,217.11474020799983,217.11474020799983,217.12535541699995,217.11474020799983,222.23034350000012,223.1225740829998,225.181582167,,223.1225740829998,223.1225740829998,228.31803429199977,223.5185795,224.5850711669998,225.181582167,226.2488350420001,223.1225740829998,223.1225740829998,223.06365037500007,223.1225740829998,223.1225740829998,223.1225740829998,223.06365037500007,223.1225740829998,223.1225740829998,228.31803429199977,223.1225740829998,228.31803429199977,228.31803429199977,,223.1225740829998,2,1,2.6580822500000068,reldom2_s016,001,2025-02-18_15h26.23.693,What-A-Scan_AC,2022.2.5,None,
18,Second_Order,3.0,viswhat,stimulus/viswhat_stim/land_vehicle-pickuptruck.png,stimulus/viswhat_stim/water_vehicle-pirateship.png,stimulus/viswhat_stim/water_animal-jellyfish.png,stimulus/viswhat_stim/land_animal-snake.png,stimulus/audwhat_stim/match_blank.png,stimulus/audwhat_stim/match_box.png,stimulus/audwhat_stim/match_yes.png,stimulus/audwhat_stim/match_no.png,1.0,Match,Type,Type,1,5.125,0,5.125,0,5.125,0,5.125,0,0.625,0.625,1,0.5,1,2.125,1,0.5,1,2.125,0,0.0,0,0.0,0,0.0,0,0.0,0,,,,,0,23,23,23,,,,,,,,,229.06545649999975,234.18663254199987,229.54632354199998,230.5452709169997,231.16696441699992,232.16492516699986,229.06545649999975,229.06545649999975,229.07910774999996,229.06545649999975,229.06545649999975,229.06545649999975,229.07910774999996,229.06545649999975,234.18663254199987,234.8804385830001,236.9436665830001,240.9931287920001,234.8804385830001,234.8804385830001,240.0262234999998,235.32260949999977,236.3402074170001,236.9436665830001,237.96450945799984,234.8804385830001,234.8804385830001,234.85546433299993,234.8804385830001,234.8804385830001,234.8804385830001,234.85546433299993,234.8804385830001,234.8804385830001,240.0262234999998,234.8804385830001,240.0262234999998,240.06972491700003,240.70771841700002,234.8804385830001,2,0,1.9768739170003755,reldom2_s016,001,2025-02-18_15h26.23.693,What-A-Scan_AC,2022.2.5,None,
0,0.0,None,fixation,stimulus/audwhat_stim/blank_white.png,stimulus/audwhat_stim/blank_white.png,stimulus/viswhat_stim/blank_white.png,stimulus/viswhat_stim/blank_white.png,stimulus/audwhat_stim/blank_white.png,stimulus/audwhat_stim/blank_white.png,stimulus/audwhat_stim/blank_white.png,stimulus/audwhat_stim/blank_white.png,0.0,0.0,0.0,0.0,0,0.0,0,0.0,0,0.0,0,0.0,0,0.0,0.0,0,0.0,0,0.0,0,0.0,0,0.0,0,0.0,0,0.0,0,0.0,0,0.0,8,,,,,0,24,24,24,,,,,,,,,240.9931287920001,240.9931287920001,240.9931287920001,240.9931287920001,240.9931287920001,240.9931287920001,240.9931287920001,240.9931287920001,240.89526862499986,240.9931287920001,240.9931287920001,240.9931287920001,240.89526862499986,240.9931287920001,240.9931287920001,240.9931287920001,240.9931287920001,240.9931287920001,240.9931287920001,240.9931287920001,240.9931287920001,240.9931287920001,240.9931287920001,240.9931287920001,240.9931287920001,240.9931287920001,240.9931287920001,240.94526862499984,240.9931287920001,240.9931287920001,240.9931287920001,240.94526862499984,240.9931287920001,240.9931287920001,240.9931287920001,240.9931287920001,240.9931287920001,246.2260088749997,246.2260088749997,249.1835696669998,None,0,,reldom2_s016,001,2025-02-18_15h26.23.693,What-A-Scan_AC,2022.2.5,None,
19,First_Order,4.0,viswhat,stimulus/viswhat_stim/blank_white.png,stimulus/viswhat_stim/blank_white.png,stimulus/viswhat_stim/land_animal-wolf.png,stimulus/viswhat_stim/water_animal-squid.png,stimulus/viswhat_stim/blank_white.png,stimulus/viswhat_stim/location_box.png,stimulus/viswhat_stim/location_yes.png,stimulus/viswhat_stim/location_no.png,None,Location,None,Type,2,0.0,0,5.125,0,5.125,0,5.125,0,0.0,0.625,0,0.0,0,0.0,1,0.5,1,2.125,0,0.0,0,0.0,0,0.0,0,0.0,0,,,,,0,25,25,25,,,,,,,,,249.1835696669998,249.1835696669998,249.1835696669998,249.1835696669998,249.1835696669998,249.1835696669998,249.1835696669998,249.1835696669998,249.1433789996667,249.1835696669998,249.1835696669998,249.1835696669998,249.1433789996667,249.1835696669998,249.1835696669998,249.1835696669998,251.27498704200002,,249.1835696669998,249.1835696669998,254.31903991700005,249.66955770799973,250.6999264169997,251.27498704200002,252.31367670799978,249.1835696669998,249.1835696669998,249.16004566633336,249.1835696669998,249.1835696669998,249.1835696669998,249.16004566633336,249.1835696669998,249.1835696669998,254.31903991700005,249.1835696669998,254.31903991700005,254.39290400000004,255.0344134579998,249.1835696669998,2,1,1.167538874999991,reldom2_s016,001,2025-02-18_15h26.23.693,What-A-Scan_AC,2022.2.5,None,
20,First_Order,4.0,viswhat,stimulus/viswhat_stim/blank_white.png,stimulus/viswhat_stim/blank_white.png,stimulus/viswhat_stim/water_animal-jellyfish.png,stimulus/viswhat_stim/water_vehicle-motorboatraft.png,stimulus/viswhat_stim/blank_white.png,stimulus/viswhat_stim/location_box.png,stimulus/viswhat_stim/location_yes.png,stimulus/viswhat_stim/location_no.png,None,Location,None,Location,1,0.0,0,5.125,0,5.125,0,5.125,0,0.0,0.625,0,0.0,0,0.0,1,0.5,1,2.125,0,0.0,0,0.0,0,0.0,0,0.0,0,,,,,0,26,26,26,,,,,,,,,255.252724875,255.252724875,255.252724875,255.252724875,255.252724875,255.252724875,255.252724875,255.252724875,255.20814129200005,255.252724875,255.252724875,255.252724875,255.20814129200005,255.252724875,255.252724875,255.252724875,257.36355924999975,261.42731725,255.252724875,255.252724875,260.38245545799987,255.71794091700008,256.73545654199984,257.36355924999975,258.3805075419998,255.252724875,255.252724875,255.24147462533338,255.252724875,255.252724875,255.252724875,255.24147462533338,255.252724875,255.252724875,260.38245545799987,255.252724875,260.38245545799987,260.4692387499997,261.1187512079998,255.252724875,1,1,1.3727179170000454,reldom2_s016,001,2025-02-18_15h26.23.693,What-A-Scan_AC,2022.2.5,None,
21,First_Order,4.0,viswhat,stimulus/viswhat_stim/blank_white.png,stimulus/viswhat_stim/blank_white.png,stimulus/viswhat_stim/land_animal-elephant.png,stimulus/viswhat_stim/land_vehicle-buldozer.png,stimulus/viswhat_stim/blank_white.png,stimulus/viswhat_stim/type_box.png,stimulus/viswhat_stim/type_yes.png,stimulus/viswhat_stim/type_no.png,None,Type,None,Location,2,0.0,0,5.125,0,5.125,0,5.125,0,0.0,0.625,0,0.0,0,0.0,1,0.5,1,2.125,0,0.0,0,0.0,0,0.0,0,0.0,0,,,,,0,27,27,27,,,,,,,,,261.42731725,261.42731725,261.42731725,261.42731725,261.42731725,261.42731725,261.42731725,261.42731725,261.30459595799977,261.42731725,261.42731725,261.42731725,261.30459595799977,261.42731725,261.42731725,261.42731725,263.51492462500005,267.54940120800006,261.42731725,261.42731725,266.64167058299995,261.9149451249998,263.0285350829997,263.51492462500005,264.63078062499994,261.42731725,261.42731725,261.37126262466643,261.42731725,261.42731725,261.42731725,261.37126262466643,261.42731725,261.42731725,266.64167058299995,261.42731725,266.64167058299995,266.64167058299995,267.54940120800006,261.42731725,2,1,0.7249345000000176,reldom2_s016,001,2025-02-18_15h26.23.693,What-A-Scan_AC,2022.2.5,None,
22,First_Order,4.0,viswhat,stimulus/viswhat_stim/blank_white.png,stimulus/viswhat_stim/blank_white.png,stimulus/viswhat_stim/water_animal-shark.png,stimulus/viswhat_stim/water_vehicle-cabincruiser.png,stimulus/viswhat_stim/blank_white.png,stimulus/viswhat_stim/type_box.png,stimulus/viswhat_stim/type_yes.png,stimulus/viswhat_stim/type_no.png,None,Type,None,Location,2,0.0,0,5.125,0,5.125,0,5.125,0,0.0,0.625,0,0.0,0,0.0,1,0.5,1,2.125,0,0.0,0,0.0,0,0.0,0,0.0,0,,,,,0,28,28,28,,,,,,,,,267.54940120800006,267.54940120800006,267.54940120800006,267.54940120800006,267.54940120800006,267.54940120800006,267.54940120800006,267.54940120800006,267.46680895833305,267.54940120800006,267.54940120800006,267.54940120800006,267.46680895833305,267.54940120800006,267.54940120800006,267.54940120800006,269.6419027919999,273.6823105830001,267.54940120800006,267.54940120800006,272.73370491699984,268.0234545830001,269.0728396669999,269.6419027919999,270.6921809170001,267.54940120800006,267.54940120800006,267.516808958333,267.54940120800006,267.54940120800006,267.54940120800006,267.516808958333,267.54940120800006,267.54940120800006,272.73370491699984,267.54940120800006,272.73370491699984,272.73370491699984,273.402642667,267.54940120800006,2,1,0.9380250000003798,reldom2_s016,001,2025-02-18_15h26.23.693,What-A-Scan_AC,2022.2.5,None,
0,0.0,None,fixation,stimulus/audwhat_stim/blank_white.png,stimulus/audwhat_stim/blank_white.png,stimulus/viswhat_stim/blank_white.png,stimulus/viswhat_stim/blank_white.png,stimulus/audwhat_stim/blank_white.png,stimulus/audwhat_stim/blank_white.png,stimulus/audwhat_stim/blank_white.png,stimulus/audwhat_stim/blank_white.png,0.0,0.0,0.0,0.0,0,0.0,0,0.0,0,0.0,0,0.0,0,0.0,0.0,0,0.0,0,0.0,0,0.0,0,0.0,0,0.0,0,0.0,0,0.0,0,0.0,9,,,,,0,29,29,29,,,,,,,,,273.6823105830001,273.6823105830001,273.6823105830001,273.6823105830001,273.6823105830001,273.6823105830001,273.6823105830001,273.6823105830001,273.5779372503333,273.6823105830001,273.6823105830001,273.6823105830001,273.5779372503333,273.6823105830001,273.6823105830001,273.6823105830001,273.6823105830001,273.6823105830001,273.6823105830001,273.6823105830001,273.6823105830001,273.6823105830001,273.6823105830001,273.6823105830001,273.6823105830001,273.6823105830001,273.6823105830001,273.644603917,273.6823105830001,273.6823105830001,273.6823105830001,273.644603917,273.6823105830001,273.6823105830001,273.6823105830001,273.6823105830001,273.6823105830001,278.90552995799976,278.90552995799976,282.8201634579998,None,0,,reldom2_s016,001,2025-02-18_15h26.23.693,What-A-Scan_AC,2022.2.5,None,
23,Second_Order,4.0,viswhat,stimulus/viswhat_stim/water_vehicle-canoe(1).png,stimulus/viswhat_stim/land_vehicle-vespa.png,stimulus/viswhat_stim/land_animal-dog.png,stimulus/viswhat_stim/water_animal-jellyfish.png,stimulus/audwhat_stim/match_blank.png,stimulus/audwhat_stim/match_box.png,stimulus/audwhat_stim/match_yes.png,stimulus/audwhat_stim/match_no.png,1.0,Match,Type,Type,1,5.125,0,5.125,0,5.125,0,5.125,0,0.75,0.75,1,0.5,1,2.125,1,0.5,1,2.125,0,0.0,0,0.0,0,0.0,0,0.0,0,,,,,0,30,30,30,,,,,,,,,282.8201634579998,287.94393558299976,283.2877284579997,284.2852749169999,284.9086406250001,285.90588624999987,282.8201634579998,282.8201634579998,282.8196031253332,282.8201634579998,282.8201634579998,282.8201634579998,282.8196031253332,282.8201634579998,287.94393558299976,288.76086466699985,290.8413657919998,294.73266629199975,288.76086466699985,288.76086466699985,293.91726754199976,289.21593849999977,290.24462470799995,290.8413657919998,291.8680970419998,288.76086466699985,288.76086466699985,288.7291835829997,288.76086466699985,288.76086466699985,288.76086466699985,288.7291835829997,288.76086466699985,288.76086466699985,293.91726754199976,288.76086466699985,293.91726754199976,293.9404702919999,294.73266629199975,288.76086466699985,1,1,3.3623117910001383,reldom2_s016,001,2025-02-18_15h26.23.693,What-A-Scan_AC,2022.2.5,None,
24,Second_Order,4.0,viswhat,stimulus/viswhat_stim/land_vehicle-tank.png,stimulus/viswhat_stim/water_vehicle-canoe(1).png,stimulus/viswhat_stim/water_animal-orka.png,stimulus/viswhat_stim/water_vehicle-cabincruiser.png,stimulus/audwhat_stim/match_blank.png,stimulus/audwhat_stim/match_box.png,stimulus/audwhat_stim/match_yes.png,stimulus/audwhat_stim/match_no.png,2.0,Match,Type,Location,2,5.125,0,5.125,0,5.125,0,5.125,0,0.625,0.625,1,0.5,1,2.125,1,0.5,1,2.125,0,0.0,0,0.0,0,0.0,0,0.0,0,,,,,0,31,31,31,,,,,,,,,294.73266629199975,299.85483087499983,295.21455308300006,296.213527958,296.836335833,297.8336630000001,294.73266629199975,294.73266629199975,294.74036674966675,294.73266629199975,294.73266629199975,294.73266629199975,294.74036674966675,294.73266629199975,299.85483087499983,300.65385175000006,302.6653051249998,,300.65385175000006,300.65385175000006,305.83696162499996,301.03934275000006,302.1235732919997,302.6653051249998,303.7489200419998,300.65385175000006,300.65385175000006,300.5898677086667,300.65385175000006,300.65385175000006,300.65385175000006,300.5898677086667,300.65385175000006,300.65385175000006,305.83696162499996,300.65385175000006,305.83696162499996,305.83696162499996,,300.65385175000006,2,1,1.9795130829998016,reldom2_s016,001,2025-02-18_15h26.23.693,What-A-Scan_AC,2022.2.5,None,
0,0.0,None,fixation,stimulus/audwhat_stim/blank_white.png,stimulus/audwhat_stim/blank_white.png,stimulus/viswhat_stim/blank_white.png,stimulus/viswhat_stim/blank_white.png,stimulus/audwhat_stim/blank_white.png,stimulus/audwhat_stim/blank_white.png,stimulus/audwhat_stim/blank_white.png,stimulus/audwhat_stim/blank_white.png,0.0,0.0,0.0,0.0,0,0.0,0,0.0,0,0.0,0,0.0,0,0.0,0.0,0,0.0,0,0.0,0,0.0,0,0.0,0,0.0,0,0.0,0,0.0,0,0.0,9,,,,,0,32,32,32,,,,,,,,,306.7104792499997,306.7104792499997,306.7104792499997,306.7104792499997,306.7104792499997,306.7104792499997,306.7104792499997,306.7104792499997,306.61335916699994,306.7104792499997,306.7104792499997,306.7104792499997,306.61335916699994,306.7104792499997,306.7104792499997,306.7104792499997,306.7104792499997,306.7104792499997,306.7104792499997,306.7104792499997,306.7104792499997,306.7104792499997,306.7104792499997,306.7104792499997,306.7104792499997,306.7104792499997,306.7104792499997,306.66335916699995,306.7104792499997,306.7104792499997,306.7104792499997,306.66335916699995,306.7104792499997,306.7104792499997,306.7104792499997,306.7104792499997,306.7104792499997,311.9396301669997,311.9396301669997,315.9386367079999,None,0,,reldom2_s016,001,2025-02-18_15h26.23.693,What-A-Scan_AC,2022.2.5,None,
25,First_Order,5.0,audwhat,stimulus/audwhat_stim/dummy.wav,stimulus/audwhat_stim/dummy.wav,stimulus/audwhat_stim/string cello_low-pitch_Dtri_loud.wav,stimulus/audwhat_stim/percussion mallet_low-pitch_Dtri_loud.wav,stimulus/audwhat_stim/blank_white.png,stimulus/audwhat_stim/pitch_box.png,stimulus/audwhat_stim/pitch_yes.png,stimulus/audwhat_stim/pitch_no.png,None,Pitch,None,Pitch,1,0.0,0,5.125,0,5.125,0,5.125,0,0.0,0.625,0,0.0,0,0.0,0,0.0,0,0.0,0,0.0,0,0.0,1,0.5,1,2.125,0,,,,,0,33,33,33,,,,,,,,,315.9386367079999,315.9386367079999,315.9386367079999,315.9386367079999,315.9386367079999,315.9386367079999,315.9386367079999,315.9386367079999,315.8673262496667,315.9386367079999,315.9386367079999,315.9386367079999,315.8673262496667,315.9386367079999,315.9386367079999,315.9386367079999,318.01641912499986,322.0527986249997,315.9386367079999,315.9386367079999,321.10891449999986,315.9386367079999,315.9386367079999,315.9386367079999,315.9386367079999,316.4018277499997,317.46368529200004,316.37219083366654,,318.01641912499986,319.08073949999994,317.98707058366654,,315.9386367079999,321.10891449999986,315.9386367079999,321.10891449999986,321.149674042,321.80082904200003,315.9386367079999,2,0,2.098277416000201,reldom2_s016,001,2025-02-18_15h26.23.693,What-A-Scan_AC,2022.2.5,None,
26,First_Order,5.0,audwhat,stimulus/audwhat_stim/dummy.wav,stimulus/audwhat_stim/dummy.wav,stimulus/audwhat_stim/string cello_low-pitch_F_loud.wav,stimulus/audwhat_stim/percussion mallet_low-pitch_F_loud.wav,stimulus/audwhat_stim/blank_white.png,stimulus/audwhat_stim/pitch_box.png,stimulus/audwhat_stim/pitch_yes.png,stimulus/audwhat_stim/pitch_no.png,None,Pitch,None,Pitch,1,0.0,0,5.125,0,5.125,0,5.125,0,0.0,0.625,0,0.0,0,0.0,0,0.0,0,0.0,0,0.0,0,0.0,1,0.5,1,2.125,0,,,,,0,34,34,34,,,,,,,,,322.0527986249997,322.0527986249997,322.0527986249997,322.0527986249997,322.0527986249997,322.0527986249997,322.0527986249997,322.0527986249997,321.9746856253331,322.0527986249997,322.0527986249997,322.0527986249997,321.9746856253331,322.0527986249997,322.0527986249997,322.0527986249997,324.1313629169997,328.1784722079999,322.0527986249997,322.0527986249997,327.2314142919997,322.0527986249997,322.0527986249997,322.0527986249997,322.0527986249997,322.5159595419998,323.5769029579999,322.48639549966674,,324.1313629169997,325.1967373750001,324.10018295866666,,322.0527986249997,327.2314142919997,322.0527986249997,327.2314142919997,327.2719840829998,327.9231159169997,322.0527986249997,1,1,2.0626297500002693,reldom2_s016,001,2025-02-18_15h26.23.693,What-A-Scan_AC,2022.2.5,None,
27,First_Order,5.0,audwhat,stimulus/audwhat_stim/dummy.wav,stimulus/audwhat_stim/dummy.wav,stimulus/audwhat_stim/string cello_high-pitch_D_loud.wav,stimulus/audwhat_stim/percussion mallet_high-pitch_D_loud.wav,stimulus/audwhat_stim/blank_white.png,stimulus/audwhat_stim/category_box.png,stimulus/audwhat_stim/category_yes.png,stimulus/audwhat_stim/category_no.png,None,Category,None,Pitch,2,0.0,0,5.125,0,5.125,0,5.125,0,0.0,0.625,0,0.0,0,0.0,0,0.0,0,0.0,0,0.0,0,0.0,1,0.5,1,2.125,0,,,,,0,35,35,35,,,,,,,,,328.1784722079999,328.1784722079999,328.1784722079999,328.1784722079999,328.1784722079999,328.1784722079999,328.1784722079999,328.1784722079999,328.0967356663331,328.1784722079999,328.1784722079999,328.1784722079999,328.0967356663331,328.1784722079999,328.1784722079999,328.1784722079999,330.2746017920001,334.2913927080001,328.1784722079999,328.1784722079999,333.34240658299973,328.1784722079999,328.1784722079999,328.1784722079999,328.1784722079999,328.64569854199976,329.71485179199976,328.61559833366664,,330.2746017920001,331.3448085419998,330.24466891666634,,328.1784722079999,333.34240658299973,328.1784722079999,333.34240658299973,333.38368429199977,334.03638208300003,328.1784722079999,2,1,1.4172815420001825,reldom2_s016,001,2025-02-18_15h26.23.693,What-A-Scan_AC,2022.2.5,None,
28,First_Order,5.0,audwhat,stimulus/audwhat_stim/dummy.wav,stimulus/audwhat_stim/dummy.wav,stimulus/audwhat_stim/percussion mallet_low-pitch_Ftri_loud.wav,stimulus/audwhat_stim/percussion mallet_high-pitch_F_loud.wav,stimulus/audwhat_stim/blank_white.png,stimulus/audwhat_stim/category_box.png,stimulus/audwhat_stim/category_yes.png,stimulus/audwhat_stim/category_no.png,None,Category,None,Category,1,0.0,0,5.125,0,5.125,0,5.125,0,0.0,0.625,0,0.0,0,0.0,0,0.0,0,0.0,0,0.0,0,0.0,1,0.5,1,2.125,0,,,,,0,36,36,36,,,,,,,,,334.2913927080001,334.2913927080001,334.2913927080001,334.2913927080001,334.2913927080001,334.2913927080001,334.2913927080001,334.2913927080001,334.21061225033316,334.2913927080001,334.2913927080001,334.2913927080001,334.21061225033316,334.2913927080001,334.2913927080001,334.2913927080001,336.38558520799984,340.43033304200003,334.2913927080001,334.2913927080001,339.4617622919998,334.2913927080001,334.2913927080001,334.2913927080001,334.2913927080001,334.7574642080001,335.82559045799985,334.7274878336666,,336.38558520799984,337.4590371669999,336.35549158366666,,334.2913927080001,339.4617622919998,334.2913927080001,339.4617622919998,339.5027223750001,340.155206917,334.2913927080001,1,1,1.117868124999859,reldom2_s016,001,2025-02-18_15h26.23.693,What-A-Scan_AC,2022.2.5,None,
0,0.0,None,fixation,stimulus/audwhat_stim/blank_white.png,stimulus/audwhat_stim/blank_white.png,stimulus/viswhat_stim/blank_white.png,stimulus/viswhat_stim/blank_white.png,stimulus/audwhat_stim/blank_white.png,stimulus/audwhat_stim/blank_white.png,stimulus/audwhat_stim/blank_white.png,stimulus/audwhat_stim/blank_white.png,0.0,0.0,0.0,0.0,0,0.0,0,0.0,0,0.0,0,0.0,0,0.0,0.0,0,0.0,0,0.0,0,0.0,0,0.0,0,0.0,0,0.0,0,0.0,0,0.0,8,,,,,0,37,37,37,,,,,,,,,340.43033304200003,340.43033304200003,340.43033304200003,340.43033304200003,340.43033304200003,340.43033304200003,340.43033304200003,340.43033304200003,340.3293570833333,340.43033304200003,340.43033304200003,340.43033304200003,340.3293570833333,340.43033304200003,340.43033304200003,340.43033304200003,340.43033304200003,340.43033304200003,340.43033304200003,340.43033304200003,340.43033304200003,340.43033304200003,340.43033304200003,340.43033304200003,340.43033304200003,340.43033304200003,340.43033304200003,340.37935708333333,340.43033304200003,340.43033304200003,340.43033304200003,340.37935708333333,340.43033304200003,340.43033304200003,340.43033304200003,340.43033304200003,340.43033304200003,345.61610429200005,345.61610429200005,348.58870358299987,None,0,,reldom2_s016,001,2025-02-18_15h26.23.693,What-A-Scan_AC,2022.2.5,None,
29,Second_Order,5.0,audwhat,stimulus/audwhat_stim/percussion xylophone_high-pitch_Dtri_loud.wav,stimulus/audwhat_stim/percussion mallet_low-pitch_Ftri_loud.wav,stimulus/audwhat_stim/string viola_high-pitch_Ftri_loud.wav,stimulus/audwhat_stim/string viola_low-pitch_Dtri_loud.wav,stimulus/audwhat_stim/match_blank.png,stimulus/audwhat_stim/match_box.png,stimulus/audwhat_stim/match_yes.png,stimulus/audwhat_stim/match_no.png,1.0,Match,Category,Category,1,5.125,0,5.125,0,5.125,0,5.125,0,0.75,0.75,0,0.0,0,0.0,0,0.0,0,0.0,1,0.5,1,2.125,1,0.5,1,2.125,0,,,,,0,38,38,38,,,,,,,,,348.58870358299987,353.7014162079997,348.58870358299987,348.58870358299987,348.58870358299987,348.58870358299987,349.03872454199995,350.0375906669999,349.05197479166645,350.04109512499986,350.672036792,351.6619384580001,350.6757354586666,351.6619384580001,353.7014162079997,354.5498678749998,356.6184892919998,,354.5498678749998,354.5498678749998,359.7097047499999,354.5498678749998,354.5498678749998,354.5498678749998,354.5498678749998,355.0081132079997,356.06636008300006,354.9785409586666,,356.6184892919998,357.6825538329997,356.58896895866656,,354.5498678749998,359.7097047499999,354.5498678749998,359.7097047499999,359.7097047499999,,354.5498678749998,2,0,0.7973798749999332,reldom2_s016,001,2025-02-18_15h26.23.693,What-A-Scan_AC,2022.2.5,None,
30,Second_Order,5.0,audwhat,stimulus/audwhat_stim/percussion mallet_low-pitch_F_loud.wav,stimulus/audwhat_stim/percussion mallet_high-pitch_Ftri_loud.wav,stimulus/audwhat_stim/string viola_low-pitch_F_loud.wav,stimulus/audwhat_stim/string viola_high-pitch_Ftri_loud.wav,stimulus/audwhat_stim/match_blank.png,stimulus/audwhat_stim/match_box.png,stimulus/audwhat_stim/match_yes.png,stimulus/audwhat_stim/match_no.png,1.0,Match,Category,Category,1,5.125,0,5.125,0,5.125,0,5.125,0,0.625,0.625,0,0.0,0,0.0,0,0.0,0,0.0,1,0.5,1,2.125,1,0.5,1,2.125,0,,,,,0,39,39,39,,,,,,,,,360.5189897499997,365.64045837499975,360.5189897499997,360.5189897499997,360.5189897499997,360.5189897499997,360.96664908299977,361.96476604199984,360.9793742916668,,362.60471325000003,363.602370417,362.61658870866677,,365.64045837499975,366.3748827080001,368.4256364999999,372.4745418750001,366.3748827080001,366.3748827080001,371.55317274999993,366.3748827080001,366.3748827080001,366.3748827080001,366.3748827080001,366.827455375,367.8774633749997,366.7988107086667,,368.4256364999999,369.48371762500005,368.39638537466635,,366.3748827080001,371.55317274999993,366.3748827080001,371.55317274999993,371.55317274999993,372.20371491699984,366.3748827080001,1,1,3.3370382920002157,reldom2_s016,001,2025-02-18_15h26.23.693,What-A-Scan_AC,2022.2.5,None,
0,0.0,None,fixation,stimulus/audwhat_stim/blank_white.png,stimulus/audwhat_stim/blank_white.png,stimulus/viswhat_stim/blank_white.png,stimulus/viswhat_stim/blank_white.png,stimulus/audwhat_stim/blank_white.png,stimulus/audwhat_stim/blank_white.png,stimulus/audwhat_stim/blank_white.png,stimulus/audwhat_stim/blank_white.png,0.0,0.0,0.0,0.0,0,0.0,0,0.0,0,0.0,0,0.0,0,0.0,0.0,0,0.0,0,0.0,0,0.0,0,0.0,0,0.0,0,0.0,0,0.0,0,0.0,9,,,,,0,40,40,40,,,,,,,,,372.4745418750001,372.4745418750001,372.4745418750001,372.4745418750001,372.4745418750001,372.4745418750001,372.4745418750001,372.4745418750001,372.3767629583334,372.4745418750001,372.4745418750001,372.4745418750001,372.3767629583334,372.4745418750001,372.4745418750001,372.4745418750001,372.4745418750001,372.4745418750001,372.4745418750001,372.4745418750001,372.4745418750001,372.4745418750001,372.4745418750001,372.4745418750001,372.4745418750001,372.4745418750001,372.4745418750001,372.4267629583334,372.4745418750001,372.4745418750001,372.4745418750001,372.4267629583334,372.4745418750001,372.4745418750001,372.4745418750001,372.4745418750001,372.4745418750001,377.6618934169999,377.6618934169999,381.7260637920001,None,0,,reldom2_s016,001,2025-02-18_15h26.23.693,What-A-Scan_AC,2022.2.5,None,
31,First_Order,6.0,audwhat,stimulus/audwhat_stim/dummy.wav,stimulus/audwhat_stim/dummy.wav,stimulus/audwhat_stim/string viola_high-pitch_F_loud.wav,stimulus/audwhat_stim/percussion xylophone_high-pitch_F_loud.wav,stimulus/audwhat_stim/blank_white.png,stimulus/audwhat_stim/category_box.png,stimulus/audwhat_stim/category_yes.png,stimulus/audwhat_stim/category_no.png,None,Category,None,Pitch,2,0.0,0,5.125,0,5.125,0,5.125,0,0.0,0.625,0,0.0,0,0.0,0,0.0,0,0.0,0,0.0,0,0.0,1,0.5,1,2.125,0,,,,,0,41,41,41,,,,,,,,,381.7260637920001,381.7260637920001,381.7260637920001,381.7260637920001,381.7260637920001,381.7260637920001,381.7260637920001,381.7260637920001,381.65259949966674,381.7260637920001,381.7260637920001,381.7260637920001,381.65259949966674,381.7260637920001,381.7260637920001,381.7260637920001,383.81798670800003,387.8368013749998,381.7260637920001,381.7260637920001,386.88520908299984,381.7260637920001,381.7260637920001,381.7260637920001,381.7260637920001,382.1913888749998,383.26026558299986,382.16106104166647,,383.81798670800003,384.88705345799985,383.7876850836665,384.8416945829997,381.7260637920001,386.88520908299984,381.7260637920001,386.88520908299984,386.9267756249999,387.58252549999975,381.7260637920001,2,1,1.163154165999913,reldom2_s016,001,2025-02-18_15h26.23.693,What-A-Scan_AC,2022.2.5,None,
32,First_Order,6.0,audwhat,stimulus/audwhat_stim/dummy.wav,stimulus/audwhat_stim/dummy.wav,stimulus/audwhat_stim/percussion mallet_high-pitch_F_loud.wav,stimulus/audwhat_stim/percussion mallet_low-pitch_D_loud.wav,stimulus/audwhat_stim/blank_white.png,stimulus/audwhat_stim/pitch_box.png,stimulus/audwhat_stim/pitch_yes.png,stimulus/audwhat_stim/pitch_no.png,None,Pitch,None,Category,2,0.0,0,5.125,0,5.125,0,5.125,0,0.0,0.625,0,0.0,0,0.0,0,0.0,0,0.0,0,0.0,0,0.0,1,0.5,1,2.125,0,,,,,0,42,42,42,,,,,,,,,387.8368013749998,387.8368013749998,387.8368013749998,387.8368013749998,387.8368013749998,387.8368013749998,387.8368013749998,387.8368013749998,387.7567744163333,387.8368013749998,387.8368013749998,387.8368013749998,387.7567744163333,387.8368013749998,387.8368013749998,387.8368013749998,389.9226687079997,,387.8368013749998,387.8368013749998,393.0292122919998,387.8368013749998,387.8368013749998,387.8368013749998,387.8368013749998,388.3009757499997,389.36664904199984,388.2710542496666,,389.9226687079997,390.991767708,389.89312241666676,,387.8368013749998,393.0292122919998,387.8368013749998,393.0292122919998,393.0292122919998,393.6792499579999,387.8368013749998,2,1,1.9878188330003468,reldom2_s016,001,2025-02-18_15h26.23.693,What-A-Scan_AC,2022.2.5,None,
33,First_Order,6.0,audwhat,stimulus/audwhat_stim/dummy.wav,stimulus/audwhat_stim/dummy.wav,stimulus/audwhat_stim/string cello_high-pitch_D_loud.wav,stimulus/audwhat_stim/string cello_low-pitch_Dtri_loud.wav,stimulus/audwhat_stim/blank_white.png,stimulus/audwhat_stim/category_box.png,stimulus/audwhat_stim/category_yes.png,stimulus/audwhat_stim/category_no.png,None,Category,None,Category,1,0.0,0,5.125,0,5.125,0,5.125,0,0.0,0.625,0,0.0,0,0.0,0,0.0,0,0.0,0,0.0,0,0.0,1,0.5,1,2.125,0,,,,,0,43,43,43,,,,,,,,,393.93292529199994,393.93292529199994,393.93292529199994,393.93292529199994,393.93292529199994,393.93292529199994,393.93292529199994,393.93292529199994,393.8533281663334,393.93292529199994,393.93292529199994,393.93292529199994,393.8533281663334,393.93292529199994,393.93292529199994,393.93292529199994,396.0289863749997,400.05012320799983,393.93292529199994,393.93292529199994,399.0998098329999,393.93292529199994,393.93292529199994,393.93292529199994,393.93292529199994,394.3998288749997,395.4694819169997,394.36947199966653,,396.0289863749997,397.10028254199983,395.99895083366664,,393.93292529199994,399.0998098329999,393.93292529199994,399.0998098329999,399.14071016699995,399.7951686670001,393.93292529199994,1,1,1.8278662910001913,reldom2_s016,001,2025-02-18_15h26.23.693,What-A-Scan_AC,2022.2.5,None,
34,First_Order,6.0,audwhat,stimulus/audwhat_stim/dummy.wav,stimulus/audwhat_stim/dummy.wav,stimulus/audwhat_stim/string cello_high-pitch_F_loud.wav,stimulus/audwhat_stim/string viola_low-pitch_Ftri_loud.wav,stimulus/audwhat_stim/blank_white.png,stimulus/audwhat_stim/pitch_box.png,stimulus/audwhat_stim/pitch_yes.png,stimulus/audwhat_stim/pitch_no.png,None,Pitch,None,Category,2,0.0,0,5.125,0,5.125,0,5.125,0,0.0,0.625,0,0.0,0,0.0,0,0.0,0,0.0,0,0.0,0,0.0,1,0.5,1,2.125,0,,,,,0,44,44,44,,,,,,,,,400.05012320799983,400.05012320799983,400.05012320799983,400.05012320799983,400.05012320799983,400.05012320799983,400.05012320799983,400.05012320799983,399.96931458333336,400.05012320799983,400.05012320799983,400.05012320799983,399.96931458333336,400.05012320799983,400.05012320799983,400.05012320799983,402.138233333,,400.05012320799983,400.05012320799983,405.1999277499997,400.05012320799983,400.05012320799983,400.05012320799983,400.05012320799983,400.5152162500001,401.58016495800007,400.48518758366663,,402.138233333,403.2061434579998,402.10684579166673,,400.05012320799983,405.1999277499997,400.05012320799983,405.1999277499997,405.24116312499996,405.89354312499995,400.05012320799983,2,1,1.716173124999841,reldom2_s016,001,2025-02-18_15h26.23.693,What-A-Scan_AC,2022.2.5,None,
0,0.0,None,fixation,stimulus/audwhat_stim/blank_white.png,stimulus/audwhat_stim/blank_white.png,stimulus/viswhat_stim/blank_white.png,stimulus/viswhat_stim/blank_white.png,stimulus/audwhat_stim/blank_white.png,stimulus/audwhat_stim/blank_white.png,stimulus/audwhat_stim/blank_white.png,stimulus/audwhat_stim/blank_white.png,0.0,0.0,0.0,0.0,0,0.0,0,0.0,0,0.0,0,0.0,0,0.0,0.0,0,0.0,0,0.0,0,0.0,0,0.0,0,0.0,0,0.0,0,0.0,0,0.0,10,,,,,0,45,45,45,,,,,,,,,406.1690437499999,406.1690437499999,406.1690437499999,406.1690437499999,406.1690437499999,406.1690437499999,406.1690437499999,406.1690437499999,406.06775608333317,406.1690437499999,406.1690437499999,406.1690437499999,406.06775608333317,406.1690437499999,406.1690437499999,406.1690437499999,406.1690437499999,406.1690437499999,406.1690437499999,406.1690437499999,406.1690437499999,406.1690437499999,406.1690437499999,406.1690437499999,406.1690437499999,406.1690437499999,406.1690437499999,406.1177560833332,406.1690437499999,406.1690437499999,406.1690437499999,406.1177560833332,406.1690437499999,406.1690437499999,406.1690437499999,406.1690437499999,406.1690437499999,411.35089349999976,411.35089349999976,416.3088950419999,None,0,,reldom2_s016,001,2025-02-18_15h26.23.693,What-A-Scan_AC,2022.2.5,None,
35,Second_Order,6.0,audwhat,stimulus/audwhat_stim/percussion xylophone_high-pitch_D_loud.wav,stimulus/audwhat_stim/string viola_high-pitch_D_loud.wav,stimulus/audwhat_stim/percussion mallet_high-pitch_Dtri_loud.wav,stimulus/audwhat_stim/percussion mallet_low-pitch_D_loud.wav,stimulus/audwhat_stim/match_blank.png,stimulus/audwhat_stim/match_box.png,stimulus/audwhat_stim/match_yes.png,stimulus/audwhat_stim/match_no.png,2.0,Match,Pitch,Category,2,5.125,0,5.125,0,5.125,0,5.125,0,0.75,0.75,0,0.0,0,0.0,0,0.0,0,0.0,1,0.5,1,2.125,1,0.5,1,2.125,0,,,,,0,46,46,46,,,,,,,,,416.3088950419999,421.4239314169997,416.3088950419999,416.3088950419999,416.3088950419999,416.3088950419999,416.76032491699993,417.74693012500006,416.77472537466656,417.7637415829997,418.38402874999997,419.3812087079998,418.3958275836667,,421.4239314169997,422.2705779999999,424.3482657500001,428.261356667,422.2705779999999,422.2705779999999,427.4511679579998,422.2705779999999,422.2705779999999,422.2705779999999,422.2705779999999,422.73112883299996,423.7919642919999,422.70136708366636,,424.3482657500001,425.416802042,424.3182503336666,,422.2705779999999,427.4511679579998,422.2705779999999,427.4511679579998,427.4511679579998,,422.2705779999999,1,0,1.2327302909998252,reldom2_s016,001,2025-02-18_15h26.23.693,What-A-Scan_AC,2022.2.5,None,
36,Second_Order,6.0,audwhat,stimulus/audwhat_stim/percussion mallet_high-pitch_Dtri_loud.wav,stimulus/audwhat_stim/string viola_high-pitch_Dtri_loud.wav,stimulus/audwhat_stim/string cello_high-pitch_Dtri_loud.wav,stimulus/audwhat_stim/string viola_low-pitch_F_loud.wav,stimulus/audwhat_stim/match_blank.png,stimulus/audwhat_stim/match_box.png,stimulus/audwhat_stim/match_yes.png,stimulus/audwhat_stim/match_no.png,2.0,Match,Pitch,Category,2,5.125,0,5.125,0,5.125,0,5.125,0,0.625,0.625,0,0.0,0,0.0,0,0.0,0,0.0,1,0.5,1,2.125,1,0.5,1,2.125,0,,,,,0,47,47,47,,,,,,,,,428.261356667,433.38535524999975,428.261356667,428.261356667,428.261356667,428.261356667,428.7186589579999,429.70910849999996,428.72170416666677,429.70910849999996,430.344734042,431.3422252079997,430.35643016666654,,433.38535524999975,434.1180150419998,436.1851502080001,,434.1180150419998,434.1180150419998,439.2738207919999,434.1180150419998,434.1180150419998,434.1180150419998,434.1180150419998,434.52977208299967,435.583719125,434.50084779166673,,436.1851502080001,437.2480035420001,436.15342770866664,,434.1180150419998,439.2738207919999,434.1180150419998,439.2738207919999,439.2738207919999,439.9227355830001,434.1180150419998,2,1,1.9395356250001896,reldom2_s016,001,2025-02-18_15h26.23.693,What-A-Scan_AC,2022.2.5,None,
0,0.0,None,fixation,stimulus/audwhat_stim/blank_white.png,stimulus/audwhat_stim/blank_white.png,stimulus/viswhat_stim/blank_white.png,stimulus/viswhat_stim/blank_white.png,stimulus/audwhat_stim/blank_white.png,stimulus/audwhat_stim/blank_white.png,stimulus/audwhat_stim/blank_white.png,stimulus/audwhat_stim/blank_white.png,0.0,0.0,0.0,0.0,0,0.0,0,0.0,0,0.0,0,0.0,0,0.0,0.0,0,0.0,0,0.0,0,0.0,0,0.0,0,0.0,0,0.0,0,0.0,0,0.0,8,,,,,0,48,48,48,,,,,,,,,440.1972276670001,440.1972276670001,440.1972276670001,440.1972276670001,440.1972276670001,440.1972276670001,440.1972276670001,440.1972276670001,440.0968768753331,440.1972276670001,440.1972276670001,440.1972276670001,440.0968768753331,440.1972276670001,440.1972276670001,440.1972276670001,440.1972276670001,440.1972276670001,440.1972276670001,440.1972276670001,440.1972276670001,440.1972276670001,440.1972276670001,440.1972276670001,440.1972276670001,440.1972276670001,440.1972276670001,440.14687687533313,440.1972276670001,440.1972276670001,440.1972276670001,440.14687687533313,440.1972276670001,440.1972276670001,440.1972276670001,440.1972276670001,440.1972276670001,445.39584899999977,445.39584899999977,448.4231909580001,None,0,,reldom2_s016,001,2025-02-18_15h26.23.693,What-A-Scan_AC,2022.2.5,None,
37,First_Order,7.0,viswhat,stimulus/viswhat_stim/blank_white.png,stimulus/viswhat_stim/blank_white.png,stimulus/viswhat_stim/land_animal-zebra.png,stimulus/viswhat_stim/water_animal-squid.png,stimulus/viswhat_stim/blank_white.png,stimulus/viswhat_stim/type_box.png,stimulus/viswhat_stim/type_yes.png,stimulus/viswhat_stim/type_no.png,None,Type,None,Type,1,0.0,0,5.125,0,5.125,0,5.125,0,0.0,0.625,0,0.0,0,0.0,1,0.5,1,2.125,0,0.0,0,0.0,0,0.0,0,0.0,0,,,,,0,49,49,49,,,,,,,,,448.4231909580001,448.4231909580001,448.4231909580001,448.4231909580001,448.4231909580001,448.4231909580001,448.4231909580001,448.4231909580001,448.3764149166667,448.4231909580001,448.4231909580001,448.4231909580001,448.3764149166667,448.4231909580001,448.4231909580001,448.4231909580001,450.516704333,,448.4231909580001,448.4231909580001,453.57323279199977,448.9067157500001,449.93650137500003,450.516704333,451.5495230419999,448.4231909580001,448.4231909580001,448.3930815833334,448.4231909580001,448.4231909580001,448.4231909580001,448.3930815833334,448.4231909580001,448.4231909580001,453.57323279199977,448.4231909580001,453.57323279199977,453.6267476669998,454.26314954199984,448.4231909580001,1,1,2.0091585000000123,reldom2_s016,001,2025-02-18_15h26.23.693,What-A-Scan_AC,2022.2.5,None,
38,First_Order,7.0,viswhat,stimulus/viswhat_stim/blank_white.png,stimulus/viswhat_stim/blank_white.png,stimulus/viswhat_stim/water_vehicle-submarine.png,stimulus/viswhat_stim/water_animal-lobster.png,stimulus/viswhat_stim/blank_white.png,stimulus/viswhat_stim/location_box.png,stimulus/viswhat_stim/location_yes.png,stimulus/viswhat_stim/location_no.png,None,Location,None,Location,1,0.0,0,5.125,0,5.125,0,5.125,0,0.0,0.625,0,0.0,0,0.0,1,0.5,1,2.125,0,0.0,0,0.0,0,0.0,0,0.0,0,,,,,0,50,50,50,,,,,,,,,454.7396249169999,454.7396249169999,454.7396249169999,454.7396249169999,454.7396249169999,454.7396249169999,454.7396249169999,454.7396249169999,454.4586369996665,454.7396249169999,454.7396249169999,454.7396249169999,454.4586369996665,454.7396249169999,454.7396249169999,454.7396249169999,456.7015011249998,,454.7396249169999,454.7396249169999,460.0204087079999,455.1931187079997,456.4002292499997,456.7015011249998,457.90996012499977,454.7396249169999,454.7396249169999,454.59197033299984,454.7396249169999,454.7396249169999,454.7396249169999,454.59197033299984,454.7396249169999,454.7396249169999,460.0204087079999,454.7396249169999,460.0204087079999,459.87494108299984,,454.7396249169999,1,1,1.4132635840001058,reldom2_s016,001,2025-02-18_15h26.23.693,What-A-Scan_AC,2022.2.5,None,
39,First_Order,7.0,viswhat,stimulus/viswhat_stim/blank_white.png,stimulus/viswhat_stim/blank_white.png,stimulus/viswhat_stim/land_vehicle-vespa.png,stimulus/viswhat_stim/water_vehicle-yacht.png,stimulus/viswhat_stim/blank_white.png,stimulus/viswhat_stim/location_box.png,stimulus/viswhat_stim/location_yes.png,stimulus/viswhat_stim/location_no.png,None,Location,None,Type,2,0.0,0,5.125,0,5.125,0,5.125,0,0.0,0.625,0,0.0,0,0.0,1,0.5,1,2.125,0,0.0,0,0.0,0,0.0,0,0.0,0,,,,,0,51,51,51,,,,,,,,,460.72764783299976,460.72764783299976,460.72764783299976,460.72764783299976,460.72764783299976,460.72764783299976,460.72764783299976,460.72764783299976,460.66120037499996,460.72764783299976,460.72764783299976,460.72764783299976,460.66120037499996,460.72764783299976,460.72764783299976,460.72764783299976,462.8267549579998,,460.72764783299976,460.72764783299976,465.89118887499967,461.1885038329999,462.2394435829999,462.8267549579998,463.88045175,460.72764783299976,460.72764783299976,460.6945337083333,460.72764783299976,460.72764783299976,460.72764783299976,460.6945337083333,460.72764783299976,460.72764783299976,465.89118887499967,460.72764783299976,465.89118887499967,465.927649,466.583657208,460.72764783299976,2,1,0.8415905420001764,reldom2_s016,001,2025-02-18_15h26.23.693,What-A-Scan_AC,2022.2.5,None,
40,First_Order,7.0,viswhat,stimulus/viswhat_stim/blank_white.png,stimulus/viswhat_stim/blank_white.png,stimulus/viswhat_stim/water_vehicle-canoe.png,stimulus/viswhat_stim/water_animal-whale (1).png,stimulus/viswhat_stim/blank_white.png,stimulus/viswhat_stim/location_box.png,stimulus/viswhat_stim/location_yes.png,stimulus/viswhat_stim/location_no.png,None,Location,None,Location,1,0.0,0,5.125,0,5.125,0,5.125,0,0.0,0.625,0,0.0,0,0.0,1,0.5,1,2.125,0,0.0,0,0.0,0,0.0,0,0.0,0,,,,,0,52,52,52,,,,,,,,,466.79248679199986,466.79248679199986,466.79248679199986,466.79248679199986,466.79248679199986,466.79248679199986,466.79248679199986,466.79248679199986,466.7532082083334,466.79248679199986,466.79248679199986,466.79248679199986,466.7532082083334,466.79248679199986,466.79248679199986,466.79248679199986,468.901913208,472.92939783299994,466.79248679199986,466.79248679199986,471.9242735,467.261065208,468.2880483329998,468.901913208,469.9323794999998,466.79248679199986,466.79248679199986,466.769874875,466.79248679199986,466.79248679199986,466.79248679199986,466.769874875,466.79248679199986,466.79248679199986,471.9242735,466.79248679199986,471.9242735,472.0183863750001,472.65760475,466.79248679199986,1,1,1.5908421250001084,reldom2_s016,001,2025-02-18_15h26.23.693,What-A-Scan_AC,2022.2.5,None,
0,0.0,None,fixation,stimulus/audwhat_stim/blank_white.png,stimulus/audwhat_stim/blank_white.png,stimulus/viswhat_stim/blank_white.png,stimulus/viswhat_stim/blank_white.png,stimulus/audwhat_stim/blank_white.png,stimulus/audwhat_stim/blank_white.png,stimulus/audwhat_stim/blank_white.png,stimulus/audwhat_stim/blank_white.png,0.0,0.0,0.0,0.0,0,0.0,0,0.0,0,0.0,0,0.0,0,0.0,0.0,0,0.0,0,0.0,0,0.0,0,0.0,0,0.0,0,0.0,0,0.0,0,0.0,10,,,,,0,53,53,53,,,,,,,,,472.92939783299994,472.92939783299994,472.92939783299994,472.92939783299994,472.92939783299994,472.92939783299994,472.92939783299994,472.92939783299994,472.8281221669998,472.92939783299994,472.92939783299994,472.92939783299994,472.8281221669998,472.92939783299994,472.92939783299994,472.92939783299994,472.92939783299994,472.92939783299994,472.92939783299994,472.92939783299994,472.92939783299994,472.92939783299994,472.92939783299994,472.92939783299994,472.92939783299994,472.92939783299994,472.92939783299994,472.8781221669998,472.92939783299994,472.92939783299994,472.92939783299994,472.8781221669998,472.92939783299994,472.92939783299994,472.92939783299994,472.92939783299994,472.92939783299994,478.12216108300004,478.12216108300004,483.1122935000001,None,0,,reldom2_s016,001,2025-02-18_15h26.23.693,What-A-Scan_AC,2022.2.5,None,
41,Second_Order,7.0,viswhat,stimulus/viswhat_stim/water_vehicle-cruiser.png,stimulus/viswhat_stim/land_vehicle-bus.png,stimulus/viswhat_stim/land_animal-fox.png,stimulus/viswhat_stim/water_animal-dolphin.png,stimulus/audwhat_stim/match_blank.png,stimulus/audwhat_stim/match_box.png,stimulus/audwhat_stim/match_yes.png,stimulus/audwhat_stim/match_no.png,1.0,Match,Type,Type,1,5.125,0,5.125,0,5.125,0,5.125,0,0.75,0.75,1,0.5,1,2.125,1,0.5,1,2.125,0,0.0,0,0.0,0,0.0,0,0.0,0,,,,,0,54,54,54,,,,,,,,,483.1122935000001,488.2298075420001,483.5311627499998,484.51829666699973,485.1663354579998,486.155429958,483.1122935000001,483.1122935000001,483.1244924583331,483.1122935000001,483.1122935000001,483.1122935000001,483.1244924583331,483.1122935000001,488.2298075420001,489.05518237499996,491.1266546669997,495.0313760419997,489.05518237499996,489.05518237499996,494.19976945799976,489.501143875,490.525698833,491.1266546669997,492.1546837499998,489.05518237499996,489.05518237499996,489.0253807499999,489.05518237499996,489.05518237499996,489.05518237499996,489.0253807499999,489.05518237499996,489.05518237499996,494.19976945799976,489.05518237499996,494.19976945799976,494.241411792,,489.05518237499996,2,0,2.803884540999661,reldom2_s016,001,2025-02-18_15h26.23.693,What-A-Scan_AC,2022.2.5,None,
42,Second_Order,7.0,viswhat,stimulus/viswhat_stim/water_animal-whale.png,stimulus/viswhat_stim/water_vehicle-ferryboat.png,stimulus/viswhat_stim/land_vehicle-tank.png,stimulus/viswhat_stim/land_animal-wolf.png,stimulus/audwhat_stim/match_blank.png,stimulus/audwhat_stim/match_box.png,stimulus/audwhat_stim/match_yes.png,stimulus/audwhat_stim/match_no.png,1.0,Match,Location,Location,1,5.125,0,5.125,0,5.125,0,5.125,0,0.625,0.625,1,0.5,1,2.125,1,0.5,1,2.125,0,0.0,0,0.0,0,0.0,0,0.0,0,,,,,0,55,55,55,,,,,,,,,495.0313760419997,500.15525950000006,495.495120542,496.49222779199977,497.1159143749999,498.11300041699974,495.0313760419997,495.0313760419997,495.0300480836666,495.0313760419997,495.0313760419997,495.0313760419997,495.0300480836666,495.0313760419997,500.15525950000006,500.8329265,502.901469958,506.95531770799994,500.8329265,500.8329265,505.9670051669998,501.277476083,502.2907204579999,502.901469958,503.9172042499997,500.8329265,500.8329265,500.81937662499973,500.8329265,500.8329265,500.8329265,500.81937662499973,500.8329265,500.8329265,505.9670051669998,500.8329265,505.9670051669998,506.03278487500006,506.6675749579997,500.8329265,2,0,1.2271479999999428,reldom2_s016,001,2025-02-18_15h26.23.693,What-A-Scan_AC,2022.2.5,None,
0,0.0,None,fixation,stimulus/audwhat_stim/blank_white.png,stimulus/audwhat_stim/blank_white.png,stimulus/viswhat_stim/blank_white.png,stimulus/viswhat_stim/blank_white.png,stimulus/audwhat_stim/blank_white.png,stimulus/audwhat_stim/blank_white.png,stimulus/audwhat_stim/blank_white.png,stimulus/audwhat_stim/blank_white.png,0.0,0.0,0.0,0.0,0,0.0,0,0.0,0,0.0,0,0.0,0,0.0,0.0,0,0.0,0,0.0,0,0.0,0,0.0,0,0.0,0,0.0,0,0.0,0,0.0,9,,,,,0,56,56,56,,,,,,,,,506.95531770799994,506.95531770799994,506.95531770799994,506.95531770799994,506.95531770799994,506.95531770799994,506.95531770799994,506.95531770799994,506.8510878333332,506.95531770799994,506.95531770799994,506.95531770799994,506.8510878333332,506.95531770799994,506.95531770799994,506.95531770799994,506.95531770799994,506.95531770799994,506.95531770799994,506.95531770799994,506.95531770799994,506.95531770799994,506.95531770799994,506.95531770799994,506.95531770799994,506.95531770799994,506.95531770799994,506.9177544999999,506.95531770799994,506.95531770799994,506.95531770799994,506.9177544999999,506.95531770799994,506.95531770799994,506.95531770799994,506.95531770799994,506.95531770799994,512.1699488329998,512.1699488329998,516.1764611669998,None,0,,reldom2_s016,001,2025-02-18_15h26.23.693,What-A-Scan_AC,2022.2.5,None,
43,First_Order,8.0,viswhat,stimulus/viswhat_stim/blank_white.png,stimulus/viswhat_stim/blank_white.png,stimulus/viswhat_stim/water_vehicle-canoe.png,stimulus/viswhat_stim/water_animal-octopus.png,stimulus/viswhat_stim/blank_white.png,stimulus/viswhat_stim/type_box.png,stimulus/viswhat_stim/type_yes.png,stimulus/viswhat_stim/type_no.png,None,Type,None,Location,2,0.0,0,5.125,0,5.125,0,5.125,0,0.0,0.625,0,0.0,0,0.0,1,0.5,1,2.125,0,0.0,0,0.0,0,0.0,0,0.0,0,,,,,0,57,57,57,,,,,,,,,516.1764611669998,516.1764611669998,516.1764611669998,516.1764611669998,516.1764611669998,516.1764611669998,516.1764611669998,516.1764611669998,516.1236197086668,516.1764611669998,516.1764611669998,516.1764611669998,516.1236197086668,516.1764611669998,516.1764611669998,516.1764611669998,518.2562601249999,,516.1764611669998,516.1764611669998,521.3280145420001,516.6537807499997,517.676211667,518.2562601249999,519.2828180829999,516.1764611669998,516.1764611669998,516.156953042,516.1764611669998,516.1764611669998,516.1764611669998,516.156953042,516.1764611669998,516.1764611669998,521.3280145420001,516.1764611669998,521.3280145420001,521.3848557499998,522.0378872919998,516.1764611669998,2,1,1.4079578329997275,reldom2_s016,001,2025-02-18_15h26.23.693,What-A-Scan_AC,2022.2.5,None,
44,First_Order,8.0,viswhat,stimulus/viswhat_stim/blank_white.png,stimulus/viswhat_stim/blank_white.png,stimulus/viswhat_stim/water_animal-octopus.png,stimulus/viswhat_stim/land_animal-snake.png,stimulus/viswhat_stim/blank_white.png,stimulus/viswhat_stim/type_box.png,stimulus/viswhat_stim/type_yes.png,stimulus/viswhat_stim/type_no.png,None,Type,None,Type,1,0.0,0,5.125,0,5.125,0,5.125,0,0.0,0.625,0,0.0,0,0.0,1,0.5,1,2.125,0,0.0,0,0.0,0,0.0,0,0.0,0,,,,,0,58,58,58,,,,,,,,,522.253979333,522.253979333,522.253979333,522.253979333,522.253979333,522.253979333,522.253979333,522.253979333,522.2111001246664,522.253979333,522.253979333,522.253979333,522.2111001246664,522.253979333,522.253979333,522.253979333,524.3387795829997,,522.253979333,522.253979333,527.4139720000001,522.721685833,523.7470917499998,524.3387795829997,525.370070792,522.253979333,522.253979333,522.227766791333,522.253979333,522.253979333,522.253979333,522.227766791333,522.253979333,522.253979333,527.4139720000001,522.253979333,527.4139720000001,527.4650317079997,528.0993689579998,522.253979333,1,1,0.6677177920000759,reldom2_s016,001,2025-02-18_15h26.23.693,What-A-Scan_AC,2022.2.5,None,
45,First_Order,8.0,viswhat,stimulus/viswhat_stim/blank_white.png,stimulus/viswhat_stim/blank_white.png,stimulus/viswhat_stim/land_vehicle-schoolbus.png,stimulus/viswhat_stim/land_animal-pig.png,stimulus/viswhat_stim/blank_white.png,stimulus/viswhat_stim/type_box.png,stimulus/viswhat_stim/type_yes.png,stimulus/viswhat_stim/type_no.png,None,Type,None,Location,2,0.0,0,5.125,0,5.125,0,5.125,0,0.0,0.625,0,0.0,0,0.0,1,0.5,1,2.125,0,0.0,0,0.0,0,0.0,0,0.0,0,,,,,0,59,59,59,,,,,,,,,528.3212449579999,528.3212449579999,528.3212449579999,528.3212449579999,528.3212449579999,528.3212449579999,528.3212449579999,528.3212449579999,528.277154667,528.3212449579999,528.3212449579999,528.3212449579999,528.277154667,528.3212449579999,528.3212449579999,528.3212449579999,530.4101584580001,534.429856042,528.3212449579999,528.3212449579999,533.4531501250001,528.7966464169997,529.827514542,530.4101584580001,531.4450680829998,528.3212449579999,528.3212449579999,528.3104880003333,528.3212449579999,528.3212449579999,528.3212449579999,528.3104880003333,528.3212449579999,528.3212449579999,533.4531501250001,528.3212449579999,533.4531501250001,533.5358436250001,534.182619083,528.3212449579999,2,1,0.6017845829996986,reldom2_s016,001,2025-02-18_15h26.23.693,What-A-Scan_AC,2022.2.5,None,
46,First_Order,8.0,viswhat,stimulus/viswhat_stim/blank_white.png,stimulus/viswhat_stim/blank_white.png,stimulus/viswhat_stim/land_vehicle-oldcar.png,stimulus/viswhat_stim/water_vehicle-powercruiser.png,stimulus/viswhat_stim/blank_white.png,stimulus/viswhat_stim/location_box.png,stimulus/viswhat_stim/location_yes.png,stimulus/viswhat_stim/location_no.png,None,Location,None,Type,2,0.0,0,5.125,0,5.125,0,5.125,0,0.0,0.625,0,0.0,0,0.0,1,0.5,1,2.125,0,0.0,0,0.0,0,0.0,0,0.0,0,,,,,0,60,60,60,,,,,,,,,534.429856042,534.429856042,534.429856042,534.429856042,534.429856042,534.429856042,534.429856042,534.429856042,534.3653856669997,534.429856042,534.429856042,534.429856042,534.3653856669997,534.429856042,534.429856042,534.429856042,536.5334850419997,,534.429856042,534.429856042,539.588096792,534.8853455420001,535.9161928329997,536.5334850419997,537.5685447079998,534.429856042,534.429856042,534.398719000333,534.429856042,534.429856042,534.429856042,534.398719000333,534.429856042,534.429856042,539.588096792,534.429856042,539.588096792,539.623766292,540.3011952079999,534.429856042,2,1,0.8727438329997312,reldom2_s016,001,2025-02-18_15h26.23.693,What-A-Scan_AC,2022.2.5,None,
0,0.0,None,fixation,stimulus/audwhat_stim/blank_white.png,stimulus/audwhat_stim/blank_white.png,stimulus/viswhat_stim/blank_white.png,stimulus/viswhat_stim/blank_white.png,stimulus/audwhat_stim/blank_white.png,stimulus/audwhat_stim/blank_white.png,stimulus/audwhat_stim/blank_white.png,stimulus/audwhat_stim/blank_white.png,0.0,0.0,0.0,0.0,0,0.0,0,0.0,0,0.0,0,0.0,0,0.0,0.0,0,0.0,0,0.0,0,0.0,0,0.0,0,0.0,0,0.0,0,0.0,0,0.0,9,,,,,0,61,61,61,,,,,,,,,540.5624526670001,540.5624526670001,540.5624526670001,540.5624526670001,540.5624526670001,540.5624526670001,540.5624526670001,540.5624526670001,540.4699471663333,540.5624526670001,540.5624526670001,540.5624526670001,540.4699471663333,540.5624526670001,540.5624526670001,540.5624526670001,540.5624526670001,540.5624526670001,540.5624526670001,540.5624526670001,540.5624526670001,540.5624526670001,540.5624526670001,540.5624526670001,540.5624526670001,540.5624526670001,540.5624526670001,540.5199471663333,540.5624526670001,540.5624526670001,540.5624526670001,540.5199471663333,540.5624526670001,540.5624526670001,540.5624526670001,540.5624526670001,540.5624526670001,545.7525160419998,545.7525160419998,549.7572299169999,None,0,,reldom2_s016,001,2025-02-18_15h26.23.693,What-A-Scan_AC,2022.2.5,None,
47,Second_Order,8.0,viswhat,stimulus/viswhat_stim/water_animal-dolphin.png,stimulus/viswhat_stim/water_vehicle-cruiseship.png,stimulus/viswhat_stim/land_vehicle-oldcar.png,stimulus/viswhat_stim/land_animal-giraffe.png,stimulus/audwhat_stim/match_blank.png,stimulus/audwhat_stim/match_box.png,stimulus/audwhat_stim/match_yes.png,stimulus/audwhat_stim/match_no.png,1.0,Match,Location,Location,1,5.125,0,5.125,0,5.125,0,5.125,0,0.75,0.75,1,0.5,1,2.125,1,0.5,1,2.125,0,0.0,0,0.0,0,0.0,0,0.0,0,,,,,0,62,62,62,,,,,,,,,549.7572299169999,554.8775173749998,550.1518234580001,551.1386692079998,551.7752225829997,552.772516833,549.7572299169999,549.7572299169999,549.7705072086667,549.7572299169999,549.7572299169999,549.7572299169999,549.7705072086667,549.7572299169999,554.8775173749998,555.7751180829998,557.8325203749998,,555.7751180829998,555.7751180829998,560.9529037079999,556.173718583,557.2366303329998,557.8325203749998,558.8997727499998,555.7751180829998,555.7751180829998,555.7125705829998,555.7751180829998,555.7751180829998,555.7751180829998,555.7125705829998,555.7751180829998,555.7751180829998,560.9529037079999,555.7751180829998,560.9529037079999,560.9529037079999,,555.7751180829998,2,0,1.7876683749996118,reldom2_s016,001,2025-02-18_15h26.23.693,What-A-Scan_AC,2022.2.5,None,
48,Second_Order,8.0,viswhat,stimulus/viswhat_stim/land_animal-ostrich.png,stimulus/viswhat_stim/water_animal-shark.png,stimulus/viswhat_stim/water_animal-whale.png,stimulus/viswhat_stim/water_vehicle-cargoboat.png,stimulus/audwhat_stim/match_blank.png,stimulus/audwhat_stim/match_box.png,stimulus/audwhat_stim/match_yes.png,stimulus/audwhat_stim/match_no.png,2.0,Match,Type,Location,2,5.125,0,5.125,0,5.125,0,5.125,0,0.625,0.625,1,0.5,1,2.125,1,0.5,1,2.125,0,0.0,0,0.0,0,0.0,0,0.0,0,,,,,0,63,63,63,,,,,,,,,561.7126434169998,566.8258963749997,562.1776161249998,563.1670940419997,563.8033872079998,564.8003465419999,561.7126434169998,561.7126434169998,561.7273394166667,561.7126434169998,561.7126434169998,561.7126434169998,561.7273394166667,561.7126434169998,566.8258963749997,567.5186528749998,569.5954239169998,573.6394607919999,567.5186528749998,567.5186528749998,572.6636930419997,567.97157025,568.986393417,569.5954239169998,570.6111196249997,567.5186528749998,567.5186528749998,567.4902179169999,567.5186528749998,567.5186528749998,567.5186528749998,567.4902179169999,567.5186528749998,567.5186528749998,572.6636930419997,567.5186528749998,572.6636930419997,572.706033917,573.3346462920001,567.5186528749998,2,1,1.6876407079998899,reldom2_s016,001,2025-02-18_15h26.23.693,What-A-Scan_AC,2022.2.5,None,
0,0.0,None,fixation,stimulus/audwhat_stim/blank_white.png,stimulus/audwhat_stim/blank_white.png,stimulus/viswhat_stim/blank_white.png,stimulus/viswhat_stim/blank_white.png,stimulus/audwhat_stim/blank_white.png,stimulus/audwhat_stim/blank_white.png,stimulus/audwhat_stim/blank_white.png,stimulus/audwhat_stim/blank_white.png,0.0,0.0,0.0,0.0,0,0.0,0,0.0,0,0.0,0,0.0,0,0.0,0.0,0,0.0,0,0.0,0,0.0,0,0.0,0,0.0,0,0.0,0,0.0,0,0.0,16,,,,,0,64,64,64,,,,,,,,,573.6394607919999,573.6394607919999,573.6394607919999,573.6394607919999,573.6394607919999,573.6394607919999,573.6394607919999,573.6394607919999,573.5391558750001,573.6394607919999,573.6394607919999,573.6394607919999,573.5391558750001,573.6394607919999,573.6394607919999,573.6394607919999,573.6394607919999,573.6394607919999,573.6394607919999,573.6394607919999,573.6394607919999,573.6394607919999,573.6394607919999,573.6394607919999,573.6394607919999,573.6394607919999,573.6394607919999,573.5891558750001,573.6394607919999,573.6394607919999,573.6394607919999,573.5891558750001,573.6394607919999,573.6394607919999,573.6394607919999,573.6394607919999,573.6394607919999,578.861242833,578.861242833,589.7941534169997,None,0,,reldom2_s016,001,2025-02-18_15h26.23.693,What-A-Scan_AC,2022.2.5,None,
