Trial,Order,Block,Type,Stimuli_File1,Stimuli_File2,Stimuli_File3,Stimuli_File4,Cue_File1,Cue_File2,Response_File_Yes,Response_File_No,Match,Cue_Dimension,Pair1_Dimension,Pair2_Dimension,Key,Cue1_Duration,Cue1_Onset,Cue2_Duration,Cue2_Onset,ResponseYes_Duration,ResponseYes_Onset,ResponseNo_Duration,ResponseNo_Onset,ITI_Within,ITI_Between,Image1_Duration,Image1_Onset,Image2_Duration,Image2_Onset,Image3_Duration,Image3_Onset,Image4_Duration,Image4_Onset,Sound1_Duration,Sound1_Onset,Sound2_Duration,Sound2_Onset,Sound3_Duration,Sound3_Onset,Sound4_Duration,Sound4_Onset,Fixation_Duration,trials_2.thisRepN,trials_2.thisTrialN,trials_2.thisN,trials_2.thisIndex,trials.thisRepN,trials.thisTrialN,trials.thisN,trials.thisIndex,text_start.started,key_resp_start.started,key_resp_start.keys,key_resp_start.rt,text2.started,key_resp_2.started,key_resp_2.keys,key_resp_2.rt,cue_file1.started,cue_file1.stopped,image_1.started,image_1.stopped,image_2.started,image_2.stopped,sound_icon1.started,sound_icon1.stopped,sound_1.started,sound_1.stopped,sound_icon2.started,sound_icon2.stopped,sound_2.started,sound_2.stopped,image_blank_1.started,image_blank_1.stopped,key_press.started,key_press.stopped,fixation_text.started,cue_file2.started,cue_file2.stopped,image_3.started,image_3.stopped,image_4.started,image_4.stopped,sound_icon3.started,sound_icon3.stopped,sound_3.started,sound_3.stopped,sound_icon4.started,sound_icon4.stopped,sound_4.started,sound_4.stopped,response_yes.started,response_yes.stopped,response_no.started,response_no.stopped,iti_blank.started,iti_blank.stopped,fixation_text.stopped,key_press.keys,key_press.corr,key_press.rt,participant,session,date,expName,psychopyVersion,frameRate,
,,,,,,,,,,,,,,,,,,,,,,,,,,,,,,,,,,,,,,,,,,,,,,,,,,,,7.052327750000131,7.052327750000131,2,0.687834832999215,,,,,,,,,,,,,,,,,,,,,,,,,,,,,,,,,,,,,,,,,,,,,,,,reldom2_s016,001,2025-02-18_15h52.22.459,Aud-A-Scan_AC,2022.2.5,None,
,,,,,,,,,,,,,,,,,,,,,,,,,,,,,,,,,,,,,,,,,,,,0,0,0,0,,,,,,,,,7.772899625000264,7.772899625000264,5,14.648201874999813,,,,,,,,,,,,,,,,,,,,,,,,,,,,,,,,,,,,,,,,,,,,reldom2_s016,001,2025-02-18_15h52.22.459,Aud-A-Scan_AC,2022.2.5,None,
,,,,,,,,,,,,,,,,,,,,,,,,,,,,,,,,,,,,,,,,,,,,1,0,1,0,,,,,,,,,22.441643874999954,22.441643874999954,5,1.981745666999359,,,,,,,,,,,,,,,,,,,,,,,,,,,,,,,,,,,,,,,,,,,,reldom2_s016,001,2025-02-18_15h52.22.459,Aud-A-Scan_AC,2022.2.5,None,
,,,,,,,,,,,,,,,,,,,,,,,,,,,,,,,,,,,,,,,,,,,,2,0,2,0,,,,,,,,,24.439877208000325,24.439877208000325,5,1.981667541999741,,,,,,,,,,,,,,,,,,,,,,,,,,,,,,,,,,,,,,,,,,,,reldom2_s016,001,2025-02-18_15h52.22.459,Aud-A-Scan_AC,2022.2.5,None,
,,,,,,,,,,,,,,,,,,,,,,,,,,,,,,,,,,,,,,,,,,,,3,0,3,0,,,,,,,,,26.433553167000355,26.433553167000355,5,1.9875074579999819,,,,,,,,,,,,,,,,,,,,,,,,,,,,,,,,,,,,,,,,,,,,reldom2_s016,001,2025-02-18_15h52.22.459,Aud-A-Scan_AC,2022.2.5,None,
0,0.0,None,fixation,stimulus/audwhere_stim/blank_white.png,stimulus/audwhere_stim/blank_white.png,stimulus/audwhat_stim/blank_white.png,stimulus/audwhat_stim/blank_white.png,stimulus/audwhere_stim/blank_white.png,stimulus/audwhere_stim/blank_white.png,stimulus/audwhere_stim/blank_white.png,stimulus/audwhere_stim/blank_white.png,0.0,0.0,0.0,0.0,0,0.0,0,0.0,0,0.0,0,0.0,0,0.0,0.0,0,0,0,0,0,0,0,0,0,0.0,0,0.0,0,0.0,0,0.0,16,,,,,0,0,0,0,,,,,,,,,28.64222087500002,28.64222087500002,28.64222087500002,28.64222087500002,28.64222087500002,28.64222087500002,28.64222087500002,28.64222087500002,28.54621570866663,28.64222087500002,28.64222087500002,28.64222087500002,28.54621570866663,28.64222087500002,28.64222087500002,28.64222087500002,28.64222087500002,28.64222087500002,28.64222087500002,28.64222087500002,28.64222087500002,28.64222087500002,28.64222087500002,28.64222087500002,28.64222087500002,28.64222087500002,28.64222087500002,28.596215708666627,28.64222087500002,28.64222087500002,28.64222087500002,28.596215708666627,28.64222087500002,28.64222087500002,28.64222087500002,28.64222087500002,28.64222087500002,33.81576529200038,33.81576529200038,44.87769287500032,None,0,,reldom2_s016,001,2025-02-18_15h52.22.459,Aud-A-Scan_AC,2022.2.5,None,
1,First_Order,1.0,audwhere,stimulus/audwhere_stim/dummy.wav,stimulus/audwhere_stim/dummy.wav,stimulus/audwhere_stim/left_away_280h.wav,stimulus/audwhere_stim/right_away_290h.wav,stimulus/audwhere_stim/blank_white.png,stimulus/audwhere_stim/direction_box.png,stimulus/audwhere_stim/direction_yes.png,stimulus/audwhere_stim/direction_no.png,None,Direction,None,Direction,1,0.0,0,5.125,0,5.125,0,5.125,0,0.0,0.625,0,0,0,0,0,0,0,0,0,0.0,0,0.0,1,0.5,1,2.125,0,,,,,0,1,1,1,,,,,,,,,44.87769287500032,44.87769287500032,44.87769287500032,44.87769287500032,44.87769287500032,44.87769287500032,44.87769287500032,44.87769287500032,44.81161816700014,44.87769287500032,44.87769287500032,44.87769287500032,44.81161816700014,44.87769287500032,44.87769287500032,44.87769287500032,46.981735583000045,,44.87769287500032,44.87769287500032,50.06490220800015,44.87769287500032,44.87769287500032,44.87769287500032,44.87769287500032,45.36949312500019,46.39870450000035,45.341300708666736,,46.981735583000045,48.01314058300022,46.95355570866674,,44.87769287500032,50.06490220800015,44.87769287500032,50.06490220800015,50.10490250000021,50.77488129200037,44.87769287500032,1,1,2.603804499999569,reldom2_s016,001,2025-02-18_15h52.22.459,Aud-A-Scan_AC,2022.2.5,None,
2,First_Order,1.0,audwhere,stimulus/audwhere_stim/dummy.wav,stimulus/audwhere_stim/dummy.wav,stimulus/audwhere_stim/left_away_270h.wav,stimulus/audwhere_stim/left_toward_270h.wav,stimulus/audwhere_stim/blank_white.png,stimulus/audwhere_stim/direction_box.png,stimulus/audwhere_stim/direction_yes.png,stimulus/audwhere_stim/direction_no.png,None,Direction,None,Side,2,0.0,0,5.125,0,5.125,0,5.125,0,0.0,0.625,0,0,0,0,0,0,0,0,0,0.0,0,0.0,1,0.5,1,2.125,0,,,,,0,2,2,2,,,,,,,,,50.97919941700002,50.97919941700002,50.97919941700002,50.97919941700002,50.97919941700002,50.97919941700002,50.97919941700002,50.97919941700002,50.908214625333706,50.97919941700002,50.97919941700002,50.97919941700002,50.908214625333706,50.97919941700002,50.97919941700002,50.97919941700002,53.091411332999996,,50.97919941700002,50.97919941700002,56.16032479200021,50.97919941700002,50.97919941700002,50.97919941700002,50.97919941700002,51.42835941700014,52.462822208000034,51.400218874666976,,53.091411332999996,54.13260833300001,53.062938083666964,,50.97919941700002,56.16032479200021,50.97919941700002,56.16032479200021,56.20019500000035,56.87335675000031,50.97919941700002,2,1,0.9393069579996336,reldom2_s016,001,2025-02-18_15h52.22.459,Aud-A-Scan_AC,2022.2.5,None,
3,First_Order,1.0,audwhere,stimulus/audwhere_stim/dummy.wav,stimulus/audwhere_stim/dummy.wav,stimulus/audwhere_stim/left_toward_300h.wav,stimulus/audwhere_stim/left_away_280h.wav,stimulus/audwhere_stim/blank_white.png,stimulus/audwhere_stim/direction_box.png,stimulus/audwhere_stim/direction_yes.png,stimulus/audwhere_stim/direction_no.png,None,Direction,None,Side,2,0.0,0,5.125,0,5.125,0,5.125,0,0.0,0.625,0,0,0,0,0,0,0,0,0,0.0,0,0.0,1,0.5,1,2.125,0,,,,,0,3,3,3,,,,,,,,,57.07834420800009,57.07834420800009,57.07834420800009,57.07834420800009,57.07834420800009,57.07834420800009,57.07834420800009,57.07834420800009,57.006690083333645,57.07834420800009,57.07834420800009,57.07834420800009,57.006690083333645,57.07834420800009,57.07834420800009,57.07834420800009,59.15957362500012,,57.07834420800009,57.07834420800009,62.24416725000037,57.07834420800009,57.07834420800009,57.07834420800009,57.07834420800009,57.53138895800021,58.572172458000296,57.50263016666692,,59.15957362500012,60.20588308300012,59.13095074966692,60.16054412500034,57.07834420800009,62.24416725000037,57.07834420800009,62.24416725000037,62.28410795800028,62.96124762499994,57.07834420800009,2,1,0.8053488749997086,reldom2_s016,001,2025-02-18_15h52.22.459,Aud-A-Scan_AC,2022.2.5,None,
4,First_Order,1.0,audwhere,stimulus/audwhere_stim/dummy.wav,stimulus/audwhere_stim/dummy.wav,stimulus/audwhere_stim/left_away_270h.wav,stimulus/audwhere_stim/left_toward_290h.wav,stimulus/audwhere_stim/blank_white.png,stimulus/audwhere_stim/side_box.png,stimulus/audwhere_stim/side_yes.png,stimulus/audwhere_stim/side_no.png,None,Side,None,Side,1,0.0,0,5.125,0,5.125,0,5.125,0,0.0,0.625,0,0,0,0,0,0,0,0,0,0.0,0,0.0,1,0.5,1,2.125,0,,,,,0,4,4,4,,,,,,,,,63.167500333000135,63.167500333000135,63.167500333000135,63.167500333000135,63.167500333000135,63.167500333000135,63.167500333000135,63.167500333000135,63.094580958333275,63.167500333000135,63.167500333000135,63.167500333000135,63.094580958333275,63.167500333000135,63.167500333000135,63.167500333000135,65.25212975000022,,63.167500333000135,63.167500333000135,68.33649108300006,63.167500333000135,63.167500333000135,63.167500333000135,63.167500333000135,63.62256008300028,64.66468379200023,63.59287404166686,,65.25212975000022,66.29471404200012,65.22322899966663,,63.167500333000135,68.33649108300006,63.167500333000135,68.33649108300006,68.37642512499997,69.05259358300009,63.167500333000135,1,1,0.7697737919993415,reldom2_s016,001,2025-02-18_15h52.22.459,Aud-A-Scan_AC,2022.2.5,None,
0,0.0,None,fixation,stimulus/audwhere_stim/blank_white.png,stimulus/audwhere_stim/blank_white.png,stimulus/audwhat_stim/blank_white.png,stimulus/audwhat_stim/blank_white.png,stimulus/audwhere_stim/blank_white.png,stimulus/audwhere_stim/blank_white.png,stimulus/audwhere_stim/blank_white.png,stimulus/audwhere_stim/blank_white.png,0.0,0.0,0.0,0.0,0,0.0,0,0.0,0,0.0,0,0.0,0,0.0,0.0,0,0,0,0,0,0,0,0,0,0.0,0,0.0,0,0.0,0,0.0,9,,,,,0,5,5,5,,,,,,,,,69.27949004200036,69.27949004200036,69.27949004200036,69.27949004200036,69.27949004200036,69.27949004200036,69.27949004200036,69.27949004200036,69.18592691633341,69.27949004200036,69.27949004200036,69.27949004200036,69.18592691633341,69.27949004200036,69.27949004200036,69.27949004200036,69.27949004200036,69.27949004200036,69.27949004200036,69.27949004200036,69.27949004200036,69.27949004200036,69.27949004200036,69.27949004200036,69.27949004200036,69.27949004200036,69.27949004200036,69.23592691633343,69.27949004200036,69.27949004200036,69.27949004200036,69.23592691633343,69.27949004200036,69.27949004200036,69.27949004200036,69.27949004200036,69.27949004200036,74.49188604200026,74.49188604200026,78.45467550000012,None,0,,reldom2_s016,001,2025-02-18_15h52.22.459,Aud-A-Scan_AC,2022.2.5,None,
5,Second_Order,1.0,audwhere,stimulus/audwhere_stim/left_away_290h.wav,stimulus/audwhere_stim/right_away_300h.wav,stimulus/audwhere_stim/right_toward_290h.wav,stimulus/audwhere_stim/left_toward_300h.wav,stimulus/audwhere_stim/match_blank.png,stimulus/audwhere_stim/match_box.png,stimulus/audwhere_stim/match_yes.png,stimulus/audwhere_stim/match_no.png,1.0,Match,Direction,Direction,1,5.125,0,5.125,0,5.125,0,5.125,0,0.75,0.75,0,0,0,0,0,0,0,0,1,0.5,1,2.125,1,0.5,1,2.125,0,,,,,0,6,6,6,,,,,,,,,78.45467550000012,83.58000033300004,78.45467550000012,78.45467550000012,78.45467550000012,78.45467550000012,78.89914941699999,79.88517116699995,78.91304895866666,79.9022653750003,80.53784687500001,81.53530287500007,80.550046749667,,83.58000033300004,84.44697925000037,86.52195429200037,90.42883633300016,84.44697925000037,84.44697925000037,89.63225366699999,84.44697925000037,84.44697925000037,84.44697925000037,84.44697925000037,84.89649529200005,85.97376250000025,84.8677040416667,,86.52195429200037,87.58097924999993,86.48878749966686,,84.44697925000037,89.63225366699999,84.44697925000037,89.63225366699999,89.63225366699999,,84.44697925000037,2,0,1.3304670839993378,reldom2_s016,001,2025-02-18_15h52.22.459,Aud-A-Scan_AC,2022.2.5,None,
6,Second_Order,1.0,audwhere,stimulus/audwhere_stim/left_away_280h.wav,stimulus/audwhere_stim/right_away_280h.wav,stimulus/audwhere_stim/left_away_300h.wav,stimulus/audwhere_stim/left_toward_280h.wav,stimulus/audwhere_stim/match_blank.png,stimulus/audwhere_stim/match_box.png,stimulus/audwhere_stim/match_yes.png,stimulus/audwhere_stim/match_no.png,2.0,Match,Direction,Side,2,5.125,0,5.125,0,5.125,0,5.125,0,0.625,0.625,0,0,0,0,0,0,0,0,1,0.5,1,2.125,1,0.5,1,2.125,0,,,,,0,7,7,7,,,,,,,,,90.42883633300016,95.55104762500014,90.42883633300016,90.42883633300016,90.42883633300016,90.42883633300016,90.87826075000021,91.87600695800029,90.89065245866665,,92.51132104199996,93.50029175000009,92.51495962466676,,95.55104762500014,96.28534112500029,98.3558159170002,102.38458091700022,96.28534112500029,96.28534112500029,101.43878041700009,96.28534112500029,96.28534112500029,96.28534112500029,96.28534112500029,96.73422125000025,97.76788783300026,96.70588733366664,,98.3558159170002,99.40351937500009,98.32635966666682,,96.28534112500029,101.43878041700009,96.28534112500029,101.43878041700009,101.4784785830002,102.15513108300001,96.28534112500029,2,1,1.062323832999482,reldom2_s016,001,2025-02-18_15h52.22.459,Aud-A-Scan_AC,2022.2.5,None,
0,0.0,None,fixation,stimulus/audwhere_stim/blank_white.png,stimulus/audwhere_stim/blank_white.png,stimulus/audwhat_stim/blank_white.png,stimulus/audwhat_stim/blank_white.png,stimulus/audwhere_stim/blank_white.png,stimulus/audwhere_stim/blank_white.png,stimulus/audwhere_stim/blank_white.png,stimulus/audwhere_stim/blank_white.png,0.0,0.0,0.0,0.0,0,0.0,0,0.0,0,0.0,0,0.0,0,0.0,0.0,0,0,0,0,0,0,0,0,0,0.0,0,0.0,0,0.0,0,0.0,10,,,,,0,8,8,8,,,,,,,,,102.38458091700022,102.38458091700022,102.38458091700022,102.38458091700022,102.38458091700022,102.38458091700022,102.38458091700022,102.38458091700022,102.28846441633334,102.38458091700022,102.38458091700022,102.38458091700022,102.28846441633334,102.38458091700022,102.38458091700022,102.38458091700022,102.38458091700022,102.38458091700022,102.38458091700022,102.38458091700022,102.38458091700022,102.38458091700022,102.38458091700022,102.38458091700022,102.38458091700022,102.38458091700022,102.38458091700022,102.33846441633335,102.38458091700022,102.38458091700022,102.38458091700022,102.33846441633335,102.38458091700022,102.38458091700022,102.38458091700022,102.38458091700022,102.38458091700022,107.59960958300007,107.59960958300007,112.65163504200018,None,0,,reldom2_s016,001,2025-02-18_15h52.22.459,Aud-A-Scan_AC,2022.2.5,None,
7,First_Order,2.0,audwhere,stimulus/audwhere_stim/dummy.wav,stimulus/audwhere_stim/dummy.wav,stimulus/audwhere_stim/left_away_300h.wav,stimulus/audwhere_stim/right_away_300h.wav,stimulus/audwhere_stim/blank_white.png,stimulus/audwhere_stim/side_box.png,stimulus/audwhere_stim/side_yes.png,stimulus/audwhere_stim/side_no.png,None,Side,None,Direction,2,0.0,0,5.125,0,5.125,0,5.125,0,0.0,0.625,0,0,0,0,0,0,0,0,0,0.0,0,0.0,1,0.5,1,2.125,0,,,,,0,9,9,9,,,,,,,,,112.65163504200018,112.65163504200018,112.65163504200018,112.65163504200018,112.65163504200018,112.65163504200018,112.65163504200018,112.65163504200018,112.58228199966668,112.65163504200018,112.65163504200018,112.65163504200018,112.58228199966668,112.65163504200018,112.65163504200018,112.65163504200018,114.75808758300036,118.7618010000001,112.65163504200018,112.65163504200018,117.82492883300029,112.65163504200018,112.65163504200018,112.65163504200018,112.65163504200018,113.11019045800003,114.16102579200015,113.08104479166674,,114.75808758300036,115.81156099999998,114.7289437916668,,112.65163504200018,117.82492883300029,112.65163504200018,117.82492883300029,117.86547179200033,118.55243100000007,112.65163504200018,2,1,0.6106450829993264,reldom2_s016,001,2025-02-18_15h52.22.459,Aud-A-Scan_AC,2022.2.5,None,
8,First_Order,2.0,audwhere,stimulus/audwhere_stim/dummy.wav,stimulus/audwhere_stim/dummy.wav,stimulus/audwhere_stim/left_away_280h.wav,stimulus/audwhere_stim/right_away_270h.wav,stimulus/audwhere_stim/blank_white.png,stimulus/audwhere_stim/side_box.png,stimulus/audwhere_stim/side_yes.png,stimulus/audwhere_stim/side_no.png,None,Side,None,Direction,2,0.0,0,5.125,0,5.125,0,5.125,0,0.0,0.625,0,0,0,0,0,0,0,0,0,0.0,0,0.0,1,0.5,1,2.125,0,,,,,0,10,10,10,,,,,,,,,118.7618010000001,118.7618010000001,118.7618010000001,118.7618010000001,118.7618010000001,118.7618010000001,118.7618010000001,118.7618010000001,118.6857643333334,118.7618010000001,118.7618010000001,118.7618010000001,118.6857643333334,118.7618010000001,118.7618010000001,118.7618010000001,120.87088308300008,124.88958512499994,118.7618010000001,118.7618010000001,123.94772862500031,118.7618010000001,118.7618010000001,118.7618010000001,118.7618010000001,119.21947249999994,120.27338516700001,119.19087312466696,,120.87088308300008,121.93002470800002,120.84152679166688,,118.7618010000001,123.94772862500031,118.7618010000001,123.94772862500031,123.98832658300034,124.638709458,118.7618010000001,2,1,0.6373971669995626,reldom2_s016,001,2025-02-18_15h52.22.459,Aud-A-Scan_AC,2022.2.5,None,
9,First_Order,2.0,audwhere,stimulus/audwhere_stim/dummy.wav,stimulus/audwhere_stim/dummy.wav,stimulus/audwhere_stim/left_away_280h.wav,stimulus/audwhere_stim/right_away_300h.wav,stimulus/audwhere_stim/blank_white.png,stimulus/audwhere_stim/direction_box.png,stimulus/audwhere_stim/direction_yes.png,stimulus/audwhere_stim/direction_no.png,None,Direction,None,Direction,1,0.0,0,5.125,0,5.125,0,5.125,0,0.0,0.625,0,0,0,0,0,0,0,0,0,0.0,0,0.0,1,0.5,1,2.125,0,,,,,0,11,11,11,,,,,,,,,124.88958512499994,124.88958512499994,124.88958512499994,124.88958512499994,124.88958512499994,124.88958512499994,124.88958512499994,124.88958512499994,124.81226516633353,124.88958512499994,124.88958512499994,124.88958512499994,124.81226516633353,124.88958512499994,124.88958512499994,124.88958512499994,126.97250441699998,,124.88958512499994,124.88958512499994,130.07606358300018,124.88958512499994,124.88958512499994,124.88958512499994,124.88958512499994,125.35040312499996,126.41514758300036,125.32081041666676,,126.97250441699998,128.0372130830001,126.94273458366685,,124.88958512499994,130.07606358300018,124.88958512499994,130.07606358300018,130.11722416700013,130.7707649580002,124.88958512499994,1,1,2.0512706669996987,reldom2_s016,001,2025-02-18_15h52.22.459,Aud-A-Scan_AC,2022.2.5,None,
10,First_Order,2.0,audwhere,stimulus/audwhere_stim/dummy.wav,stimulus/audwhere_stim/dummy.wav,stimulus/audwhere_stim/right_away_270h.wav,stimulus/audwhere_stim/right_toward_300h.wav,stimulus/audwhere_stim/blank_white.png,stimulus/audwhere_stim/side_box.png,stimulus/audwhere_stim/side_yes.png,stimulus/audwhere_stim/side_no.png,None,Side,None,Side,1,0.0,0,5.125,0,5.125,0,5.125,0,0.0,0.625,0,0,0,0,0,0,0,0,0,0.0,0,0.0,1,0.5,1,2.125,0,,,,,0,12,12,12,,,,,,,,,130.98267691699994,130.98267691699994,130.98267691699994,130.98267691699994,130.98267691699994,130.98267691699994,130.98267691699994,130.98267691699994,130.90409829133355,130.98267691699994,130.98267691699994,130.98267691699994,130.90409829133355,130.98267691699994,130.98267691699994,130.98267691699994,133.05857020800022,137.116652875,130.98267691699994,130.98267691699994,136.1510615420002,130.98267691699994,130.98267691699994,130.98267691699994,130.98267691699994,131.44296358300016,132.50375454200002,131.41345445866662,,133.05857020800022,134.12321545800023,133.02856154166673,,130.98267691699994,136.1510615420002,130.98267691699994,136.1510615420002,136.19222895800021,136.84398904199998,130.98267691699994,1,1,0.6419973749998462,reldom2_s016,001,2025-02-18_15h52.22.459,Aud-A-Scan_AC,2022.2.5,None,
0,0.0,None,fixation,stimulus/audwhere_stim/blank_white.png,stimulus/audwhere_stim/blank_white.png,stimulus/audwhat_stim/blank_white.png,stimulus/audwhat_stim/blank_white.png,stimulus/audwhere_stim/blank_white.png,stimulus/audwhere_stim/blank_white.png,stimulus/audwhere_stim/blank_white.png,stimulus/audwhere_stim/blank_white.png,0.0,0.0,0.0,0.0,0,0.0,0,0.0,0,0.0,0,0.0,0,0.0,0.0,0,0,0,0,0,0,0,0,0,0.0,0,0.0,0,0.0,0,0.0,8,,,,,0,13,13,13,,,,,,,,,137.116652875,137.116652875,137.116652875,137.116652875,137.116652875,137.116652875,137.116652875,137.116652875,137.01751691633368,137.116652875,137.116652875,137.116652875,137.01751691633368,137.116652875,137.116652875,137.116652875,137.116652875,137.116652875,137.116652875,137.116652875,137.116652875,137.116652875,137.116652875,137.116652875,137.116652875,137.116652875,137.116652875,137.06751691633366,137.116652875,137.116652875,137.116652875,137.06751691633366,137.116652875,137.116652875,137.116652875,137.116652875,137.116652875,142.32949666700006,142.32949666700006,145.28975945799993,None,0,,reldom2_s016,001,2025-02-18_15h52.22.459,Aud-A-Scan_AC,2022.2.5,None,
11,Second_Order,2.0,audwhere,stimulus/audwhere_stim/left_away_280h.wav,stimulus/audwhere_stim/left_toward_280h.wav,stimulus/audwhere_stim/right_toward_280h.wav,stimulus/audwhere_stim/left_toward_270h.wav,stimulus/audwhere_stim/match_blank.png,stimulus/audwhere_stim/match_box.png,stimulus/audwhere_stim/match_yes.png,stimulus/audwhere_stim/match_no.png,2.0,Match,Side,Direction,2,5.125,0,5.125,0,5.125,0,5.125,0,0.75,0.75,0,0,0,0,0,0,0,0,1,0.5,1,2.125,1,0.5,1,2.125,0,,,,,0,14,14,14,,,,,,,,,145.28975945799993,150.4115820830002,145.28975945799993,145.28975945799993,145.28975945799993,145.28975945799993,145.73777025000027,146.73631237500013,145.75072133366692,146.74011895800004,147.37083441699997,148.36047329200028,147.37435020866704,,150.4115820830002,151.26183900000024,153.3224082920001,157.25371058300016,151.26183900000024,151.26183900000024,156.4483841250003,151.26183900000024,151.26183900000024,151.26183900000024,151.26183900000024,151.71773974999996,152.77125637500012,151.6882384166668,,153.3224082920001,154.38123274999998,153.29339891666703,,151.26183900000024,156.4483841250003,151.26183900000024,156.4483841250003,156.4483841250003,,151.26183900000024,2,1,0.7803673749995141,reldom2_s016,001,2025-02-18_15h52.22.459,Aud-A-Scan_AC,2022.2.5,None,
12,Second_Order,2.0,audwhere,stimulus/audwhere_stim/left_away_300h.wav,stimulus/audwhere_stim/right_away_270h.wav,stimulus/audwhere_stim/left_toward_280h.wav,stimulus/audwhere_stim/right_toward_280h.wav,stimulus/audwhere_stim/match_blank.png,stimulus/audwhere_stim/match_box.png,stimulus/audwhere_stim/match_yes.png,stimulus/audwhere_stim/match_no.png,1.0,Match,Direction,Direction,1,5.125,0,5.125,0,5.125,0,5.125,0,0.625,0.625,0,0,0,0,0,0,0,0,1,0.5,1,2.125,1,0.5,1,2.125,0,,,,,0,15,15,15,,,,,,,,,157.25371058300016,162.37773666700014,157.25371058300016,157.25371058300016,157.25371058300016,157.25371058300016,157.71508591700012,158.71381191699993,157.72817691666685,,159.33657195800015,160.334416917,159.34895579166667,,162.37773666700014,163.10438700000032,165.1540503330002,169.21940566700005,163.10438700000032,163.10438700000032,168.26183616700018,163.10438700000032,163.10438700000032,163.10438700000032,163.10438700000032,163.55980991700017,164.60767608300011,163.53077587466694,,165.1540503330002,166.20712783299996,165.1249757496669,,163.10438700000032,168.26183616700018,163.10438700000032,168.26183616700018,168.3018577920002,168.98849479199998,163.10438700000032,1,1,0.9429366669996853,reldom2_s016,001,2025-02-18_15h52.22.459,Aud-A-Scan_AC,2022.2.5,None,
0,0.0,None,fixation,stimulus/audwhere_stim/blank_white.png,stimulus/audwhere_stim/blank_white.png,stimulus/audwhat_stim/blank_white.png,stimulus/audwhat_stim/blank_white.png,stimulus/audwhere_stim/blank_white.png,stimulus/audwhere_stim/blank_white.png,stimulus/audwhere_stim/blank_white.png,stimulus/audwhere_stim/blank_white.png,0.0,0.0,0.0,0.0,0,0.0,0,0.0,0,0.0,0,0.0,0,0.0,0.0,0,0,0,0,0,0,0,0,0,0.0,0,0.0,0,0.0,0,0.0,8,,,,,0,16,16,16,,,,,,,,,169.21940566700005,169.21940566700005,169.21940566700005,169.21940566700005,169.21940566700005,169.21940566700005,169.21940566700005,169.21940566700005,169.12182812533334,169.21940566700005,169.21940566700005,169.21940566700005,169.12182812533334,169.21940566700005,169.21940566700005,169.21940566700005,169.21940566700005,169.21940566700005,169.21940566700005,169.21940566700005,169.21940566700005,169.21940566700005,169.21940566700005,169.21940566700005,169.21940566700005,169.21940566700005,169.21940566700005,169.17182812533332,169.21940566700005,169.21940566700005,169.21940566700005,169.17182812533332,169.21940566700005,169.21940566700005,169.21940566700005,169.21940566700005,169.21940566700005,174.43106941700034,174.43106941700034,177.4678573330002,None,0,,reldom2_s016,001,2025-02-18_15h52.22.459,Aud-A-Scan_AC,2022.2.5,None,
13,First_Order,3.0,audwhat,stimulus/audwhat_stim/dummy.wav,stimulus/audwhat_stim/dummy.wav,stimulus/audwhat_stim/percussion xylophone_high-pitch_F_loud.wav,stimulus/audwhat_stim/percussion mallet_low-pitch_Dtri_loud.wav,stimulus/audwhat_stim/blank_white.png,stimulus/audwhat_stim/category_box.png,stimulus/audwhat_stim/category_yes.png,stimulus/audwhat_stim/category_no.png,None,Category,None,Category,1,0.0,0,5.125,0,5.125,0,5.125,0,0.0,0.625,0,0,0,0,0,0,0,0,0,0.0,0,0.0,1,0.5,1,2.125,0,,,,,0,17,17,17,,,,,,,,,177.4678573330002,177.4678573330002,177.4678573330002,177.4678573330002,177.4678573330002,177.4678573330002,177.4678573330002,177.4678573330002,177.3979564996668,177.4678573330002,177.4678573330002,177.4678573330002,177.3979564996668,177.4678573330002,177.4678573330002,177.4678573330002,179.54827779200014,,177.4678573330002,177.4678573330002,182.65360854200026,177.4678573330002,177.4678573330002,177.4678573330002,177.4678573330002,177.93150416700018,178.9951650830003,177.9017967086668,178.948598125,179.54827779200014,180.61767745800034,179.51827470866672,,177.4678573330002,182.65360854200026,177.4678573330002,182.65360854200026,182.69449920800025,183.34828141700018,177.4678573330002,1,1,2.0936907499999506,reldom2_s016,001,2025-02-18_15h52.22.459,Aud-A-Scan_AC,2022.2.5,None,
14,First_Order,3.0,audwhat,stimulus/audwhat_stim/dummy.wav,stimulus/audwhat_stim/dummy.wav,stimulus/audwhat_stim/string cello_low-pitch_Ftri_loud.wav,stimulus/audwhat_stim/string viola_high-pitch_F_loud.wav,stimulus/audwhat_stim/blank_white.png,stimulus/audwhat_stim/category_box.png,stimulus/audwhat_stim/category_yes.png,stimulus/audwhat_stim/category_no.png,None,Category,None,Category,1,0.0,0,5.125,0,5.125,0,5.125,0,0.0,0.625,0,0,0,0,0,0,0,0,0,0.0,0,0.0,1,0.5,1,2.125,0,,,,,0,18,18,18,,,,,,,,,183.5605982080001,183.5605982080001,183.5605982080001,183.5605982080001,183.5605982080001,183.5605982080001,183.5605982080001,183.5605982080001,183.48161475033353,183.5605982080001,183.5605982080001,183.5605982080001,183.48161475033353,183.5605982080001,183.5605982080001,183.5605982080001,185.64496395800006,,183.5605982080001,183.5605982080001,188.71125445799998,183.5605982080001,183.5605982080001,183.5605982080001,183.5605982080001,184.02379620800002,185.08950562500013,183.99390241666677,,185.64496395800006,186.71853520800005,185.6155276246666,,183.5605982080001,188.71125445799998,183.5605982080001,188.71125445799998,188.7525055000001,189.40683500000023,183.5605982080001,1,1,0.7020647919998737,reldom2_s016,001,2025-02-18_15h52.22.459,Aud-A-Scan_AC,2022.2.5,None,
15,First_Order,3.0,audwhat,stimulus/audwhat_stim/dummy.wav,stimulus/audwhat_stim/dummy.wav,stimulus/audwhat_stim/string viola_low-pitch_D_loud.wav,stimulus/audwhat_stim/percussion mallet_low-pitch_D_loud.wav,stimulus/audwhat_stim/blank_white.png,stimulus/audwhat_stim/pitch_box.png,stimulus/audwhat_stim/pitch_yes.png,stimulus/audwhat_stim/pitch_no.png,None,Pitch,None,Pitch,1,0.0,0,5.125,0,5.125,0,5.125,0,0.0,0.625,0,0,0,0,0,0,0,0,0,0.0,0,0.0,1,0.5,1,2.125,0,,,,,0,19,19,19,,,,,,,,,189.6605622080001,189.6605622080001,189.6605622080001,189.6605622080001,189.6605622080001,189.6605622080001,189.6605622080001,189.6605622080001,189.58107745833345,189.6605622080001,189.6605622080001,189.6605622080001,189.58107745833345,189.6605622080001,189.6605622080001,189.6605622080001,191.74400195800035,,189.6605622080001,189.6605622080001,194.85088054200014,189.6605622080001,189.6605622080001,189.6605622080001,189.6605622080001,190.12296366700002,191.18811337500028,190.0928937086667,,191.74400195800035,192.81407516700028,191.71422637466665,,189.6605622080001,194.85088054200014,189.6605622080001,194.85088054200014,194.85088054200014,195.50096554200036,189.6605622080001,2,0,1.0850047499998254,reldom2_s016,001,2025-02-18_15h52.22.459,Aud-A-Scan_AC,2022.2.5,None,
16,First_Order,3.0,audwhat,stimulus/audwhat_stim/dummy.wav,stimulus/audwhat_stim/dummy.wav,stimulus/audwhat_stim/string cello_low-pitch_D_loud.wav,stimulus/audwhat_stim/string viola_high-pitch_Dtri_loud.wav,stimulus/audwhat_stim/blank_white.png,stimulus/audwhat_stim/pitch_box.png,stimulus/audwhat_stim/pitch_yes.png,stimulus/audwhat_stim/pitch_no.png,None,Pitch,None,Category,2,0.0,0,5.125,0,5.125,0,5.125,0,0.0,0.625,0,0,0,0,0,0,0,0,0,0.0,0,0.0,1,0.5,1,2.125,0,,,,,0,20,20,20,,,,,,,,,195.75346941700036,195.75346941700036,195.75346941700036,195.75346941700036,195.75346941700036,195.75346941700036,195.75346941700036,195.75346941700036,195.67460633333363,195.75346941700036,195.75346941700036,195.75346941700036,195.67460633333363,195.75346941700036,195.75346941700036,195.75346941700036,197.83745875000022,,195.75346941700036,195.75346941700036,200.94526066700018,195.75346941700036,195.75346941700036,195.75346941700036,195.75346941700036,196.21696829200027,197.28428500000018,196.18720583366692,,197.83745875000022,198.90650091700036,197.8083411666669,,195.75346941700036,200.94526066700018,195.75346941700036,200.94526066700018,200.94526066700018,201.59736458299994,195.75346941700036,1,0,1.0255726249997679,reldom2_s016,001,2025-02-18_15h52.22.459,Aud-A-Scan_AC,2022.2.5,None,
0,0.0,None,fixation,stimulus/audwhere_stim/blank_white.png,stimulus/audwhere_stim/blank_white.png,stimulus/audwhat_stim/blank_white.png,stimulus/audwhat_stim/blank_white.png,stimulus/audwhere_stim/blank_white.png,stimulus/audwhere_stim/blank_white.png,stimulus/audwhere_stim/blank_white.png,stimulus/audwhere_stim/blank_white.png,0.0,0.0,0.0,0.0,0,0.0,0,0.0,0,0.0,0,0.0,0,0.0,0.0,0,0,0,0,0,0,0,0,0,0.0,0,0.0,0,0.0,0,0.0,8,,,,,0,21,21,21,,,,,,,,,201.86960983300014,201.86960983300014,201.86960983300014,201.86960983300014,201.86960983300014,201.86960983300014,201.86960983300014,201.86960983300014,201.7712567913333,201.86960983300014,201.86960983300014,201.86960983300014,201.7712567913333,201.86960983300014,201.86960983300014,201.86960983300014,201.86960983300014,201.86960983300014,201.86960983300014,201.86960983300014,201.86960983300014,201.86960983300014,201.86960983300014,201.86960983300014,201.86960983300014,201.86960983300014,201.86960983300014,201.82125679133327,201.86960983300014,201.86960983300014,201.86960983300014,201.82125679133327,201.86960983300014,201.86960983300014,201.86960983300014,201.86960983300014,201.86960983300014,207.0981374580001,207.0981374580001,210.01836175000017,None,0,,reldom2_s016,001,2025-02-18_15h52.22.459,Aud-A-Scan_AC,2022.2.5,None,
17,Second_Order,3.0,audwhat,stimulus/audwhat_stim/percussion mallet_high-pitch_F_loud.wav,stimulus/audwhat_stim/string viola_high-pitch_F_loud.wav,stimulus/audwhat_stim/string cello_low-pitch_Ftri_loud.wav,stimulus/audwhat_stim/string cello_high-pitch_Dtri_loud.wav,stimulus/audwhere_stim/match_blank.png,stimulus/audwhat_stim/match_box.png,stimulus/audwhere_stim/match_yes.png,stimulus/audwhere_stim/match_no.png,2.0,Match,Pitch,Category,2,5.125,0,5.125,0,5.125,0,5.125,0,0.75,0.75,0,0,0,0,0,0,0,0,1,0.5,1,2.125,1,0.5,1,2.125,0,,,,,0,22,22,22,,,,,,,,,210.01836175000017,215.13239033300033,210.01836175000017,210.01836175000017,210.01836175000017,210.01836175000017,210.4690555000002,211.45609370800003,210.4829870836668,,212.09151229200006,213.0896374580002,212.10378612466664,,215.13239033300033,215.980330417,218.04848312500008,221.98499525000034,215.980330417,215.980330417,221.13955854200003,215.980330417,215.980330417,215.980330417,215.980330417,216.43821266700024,217.49662312500004,216.40781766666694,,218.04848312500008,219.11307424999995,218.0191842916668,,215.980330417,221.13955854200003,215.980330417,221.13955854200003,221.18103937500018,,215.980330417,1,0,0.8071812499997577,reldom2_s016,001,2025-02-18_15h52.22.459,Aud-A-Scan_AC,2022.2.5,None,
18,Second_Order,3.0,audwhat,stimulus/audwhat_stim/string viola_low-pitch_F_loud.wav,stimulus/audwhat_stim/percussion mallet_low-pitch_F_loud.wav,stimulus/audwhat_stim/percussion mallet_high-pitch_Ftri_loud.wav,stimulus/audwhat_stim/string cello_high-pitch_Ftri_loud.wav,stimulus/audwhere_stim/match_blank.png,stimulus/audwhat_stim/match_box.png,stimulus/audwhere_stim/match_yes.png,stimulus/audwhere_stim/match_no.png,1.0,Match,Pitch,Pitch,1,5.125,0,5.125,0,5.125,0,5.125,0,0.625,0.625,0,0,0,0,0,0,0,0,1,0.5,1,2.125,1,0.5,1,2.125,0,,,,,0,23,23,23,,,,,,,,,221.98499525000034,227.10968270800004,221.98499525000034,221.98499525000034,221.98499525000034,221.98499525000034,222.44393820799996,223.43443408300027,222.45009895866704,,224.06971575000034,225.06717395800024,224.0818599996667,,227.10968270800004,227.8377552920001,229.89022166700033,,227.8377552920001,227.8377552920001,233.0192172080001,227.8377552920001,227.8377552920001,227.8377552920001,227.8377552920001,228.29240866700002,229.34198116700009,228.26292179166674,,229.89022166700033,230.94964974999994,229.86075154166682,,227.8377552920001,233.0192172080001,227.8377552920001,233.0192172080001,233.0192172080001,233.70483016700018,227.8377552920001,1,1,0.9897588749995521,reldom2_s016,001,2025-02-18_15h52.22.459,Aud-A-Scan_AC,2022.2.5,None,
0,0.0,None,fixation,stimulus/audwhere_stim/blank_white.png,stimulus/audwhere_stim/blank_white.png,stimulus/audwhat_stim/blank_white.png,stimulus/audwhat_stim/blank_white.png,stimulus/audwhere_stim/blank_white.png,stimulus/audwhere_stim/blank_white.png,stimulus/audwhere_stim/blank_white.png,stimulus/audwhere_stim/blank_white.png,0.0,0.0,0.0,0.0,0,0.0,0,0.0,0,0.0,0,0.0,0,0.0,0.0,0,0,0,0,0,0,0,0,0,0.0,0,0.0,0,0.0,0,0.0,9,,,,,0,24,24,24,,,,,,,,,233.935708083,233.935708083,233.935708083,233.935708083,233.935708083,233.935708083,233.935708083,233.935708083,233.83816350033354,233.935708083,233.935708083,233.935708083,233.83816350033354,233.935708083,233.935708083,233.935708083,233.935708083,233.935708083,233.935708083,233.935708083,233.935708083,233.935708083,233.935708083,233.935708083,233.935708083,233.935708083,233.935708083,233.88816350033352,233.935708083,233.935708083,233.935708083,233.88816350033352,233.935708083,233.935708083,233.935708083,233.935708083,233.935708083,239.12547633300028,239.12547633300028,243.18850075,None,0,,reldom2_s016,001,2025-02-18_15h52.22.459,Aud-A-Scan_AC,2022.2.5,None,
19,First_Order,4.0,audwhat,stimulus/audwhat_stim/dummy.wav,stimulus/audwhat_stim/dummy.wav,stimulus/audwhat_stim/percussion mallet_low-pitch_D_loud.wav,stimulus/audwhat_stim/string viola_low-pitch_D_loud.wav,stimulus/audwhat_stim/blank_white.png,stimulus/audwhat_stim/category_box.png,stimulus/audwhat_stim/category_yes.png,stimulus/audwhat_stim/category_no.png,None,Category,None,Pitch,2,0.0,0,5.125,0,5.125,0,5.125,0,0.0,0.625,0,0,0,0,0,0,0,0,0,0.0,0,0.0,1,0.5,1,2.125,0,,,,,0,25,25,25,,,,,,,,,243.18850075,243.18850075,243.18850075,243.18850075,243.18850075,243.18850075,243.18850075,243.18850075,243.1163413746669,243.18850075,243.18850075,243.18850075,243.1163413746669,243.18850075,243.18850075,243.18850075,245.28170666699998,,243.18850075,243.18850075,248.34678016700036,243.18850075,243.18850075,243.18850075,243.18850075,243.65340845800029,244.72462062500017,243.6234952086668,,245.28170666699998,246.34957695799994,245.25156595866682,,243.18850075,248.34678016700036,243.18850075,248.34678016700036,248.38751479200027,249.04178075000027,243.18850075,1,0,1.752910124999289,reldom2_s016,001,2025-02-18_15h52.22.459,Aud-A-Scan_AC,2022.2.5,None,
20,First_Order,4.0,audwhat,stimulus/audwhat_stim/dummy.wav,stimulus/audwhat_stim/dummy.wav,stimulus/audwhat_stim/percussion xylophone_high-pitch_Dtri_loud.wav,stimulus/audwhat_stim/string cello_high-pitch_Dtri_loud.wav,stimulus/audwhat_stim/blank_white.png,stimulus/audwhat_stim/pitch_box.png,stimulus/audwhat_stim/pitch_yes.png,stimulus/audwhat_stim/pitch_no.png,None,Pitch,None,Pitch,1,0.0,0,5.125,0,5.125,0,5.125,0,0.0,0.625,0,0,0,0,0,0,0,0,0,0.0,0,0.0,1,0.5,1,2.125,0,,,,,0,26,26,26,,,,,,,,,249.29462875000036,249.29462875000036,249.29462875000036,249.29462875000036,249.29462875000036,249.29462875000036,249.29462875000036,249.29462875000036,249.21512941633333,249.29462875000036,249.29462875000036,249.29462875000036,249.21512941633333,249.29462875000036,249.29462875000036,249.29462875000036,251.37613575000023,,249.29462875000036,249.29462875000036,254.48315108299994,249.29462875000036,249.29462875000036,249.29462875000036,249.29462875000036,249.75820691700028,250.82156350000014,249.7283986666669,250.77539437500036,251.37613575000023,252.44680337499994,251.34622383366676,,249.29462875000036,254.48315108299994,249.29462875000036,254.48315108299994,254.524168292,255.17590179200033,249.29462875000036,1,1,0.837462582999251,reldom2_s016,001,2025-02-18_15h52.22.459,Aud-A-Scan_AC,2022.2.5,None,
21,First_Order,4.0,audwhat,stimulus/audwhat_stim/dummy.wav,stimulus/audwhat_stim/dummy.wav,stimulus/audwhat_stim/string viola_low-pitch_D_loud.wav,stimulus/audwhat_stim/percussion mallet_low-pitch_D_loud.wav,stimulus/audwhat_stim/blank_white.png,stimulus/audwhat_stim/category_box.png,stimulus/audwhat_stim/category_yes.png,stimulus/audwhat_stim/category_no.png,None,Category,None,Pitch,2,0.0,0,5.125,0,5.125,0,5.125,0,0.0,0.625,0,0,0,0,0,0,0,0,0,0.0,0,0.0,1,0.5,1,2.125,0,,,,,0,27,27,27,,,,,,,,,255.38850787499996,255.38850787499996,255.38850787499996,255.38850787499996,255.38850787499996,255.38850787499996,255.38850787499996,255.38850787499996,255.3092351253337,255.38850787499996,255.38850787499996,255.38850787499996,255.3092351253337,255.38850787499996,255.38850787499996,255.38850787499996,257.48273633300005,261.503676583,255.38850787499996,255.38850787499996,260.5555945420001,255.38850787499996,255.38850787499996,255.38850787499996,255.38850787499996,255.85396525000033,256.9246698330003,255.82361679166686,,257.48273633300005,258.55651316700005,257.45266974966694,,255.38850787499996,260.5555945420001,255.38850787499996,260.5555945420001,260.59697400000005,261.2512551670002,255.38850787499996,2,1,1.0898639999995794,reldom2_s016,001,2025-02-18_15h52.22.459,Aud-A-Scan_AC,2022.2.5,None,
22,First_Order,4.0,audwhat,stimulus/audwhat_stim/dummy.wav,stimulus/audwhat_stim/dummy.wav,stimulus/audwhat_stim/string viola_low-pitch_Ftri_loud.wav,stimulus/audwhat_stim/string cello_high-pitch_D_loud.wav,stimulus/audwhat_stim/blank_white.png,stimulus/audwhat_stim/pitch_box.png,stimulus/audwhat_stim/pitch_yes.png,stimulus/audwhat_stim/pitch_no.png,None,Pitch,None,Category,2,0.0,0,5.125,0,5.125,0,5.125,0,0.0,0.625,0,0,0,0,0,0,0,0,0,0.0,0,0.0,1,0.5,1,2.125,0,,,,,0,28,28,28,,,,,,,,,261.503676583,261.503676583,261.503676583,261.503676583,261.503676583,261.503676583,261.503676583,261.503676583,261.42509512533354,261.503676583,261.503676583,261.503676583,261.42509512533354,261.503676583,261.503676583,261.503676583,263.5879694580003,,261.503676583,261.503676583,266.65309512500016,261.503676583,261.503676583,261.503676583,261.503676583,261.96707675000016,263.03355987500026,261.9371155416668,,263.5879694580003,264.6593546250001,263.5582711246668,,261.503676583,266.65309512500016,261.503676583,266.65309512500016,266.69429779200027,267.3476766250001,261.503676583,1,0,0.7975124169993251,reldom2_s016,001,2025-02-18_15h52.22.459,Aud-A-Scan_AC,2022.2.5,None,
0,0.0,None,fixation,stimulus/audwhere_stim/blank_white.png,stimulus/audwhere_stim/blank_white.png,stimulus/audwhat_stim/blank_white.png,stimulus/audwhat_stim/blank_white.png,stimulus/audwhere_stim/blank_white.png,stimulus/audwhere_stim/blank_white.png,stimulus/audwhere_stim/blank_white.png,stimulus/audwhere_stim/blank_white.png,0.0,0.0,0.0,0.0,0,0.0,0,0.0,0,0.0,0,0.0,0,0.0,0.0,0,0,0,0,0,0,0,0,0,0.0,0,0.0,0,0.0,0,0.0,10,,,,,0,29,29,29,,,,,,,,,267.6208576250001,267.6208576250001,267.6208576250001,267.6208576250001,267.6208576250001,267.6208576250001,267.6208576250001,267.6208576250001,267.52175816633337,267.6208576250001,267.6208576250001,267.6208576250001,267.52175816633337,267.6208576250001,267.6208576250001,267.6208576250001,267.6208576250001,267.6208576250001,267.6208576250001,267.6208576250001,267.6208576250001,267.6208576250001,267.6208576250001,267.6208576250001,267.6208576250001,267.6208576250001,267.6208576250001,267.5717581663334,267.6208576250001,267.6208576250001,267.6208576250001,267.5717581663334,267.6208576250001,267.6208576250001,267.6208576250001,267.6208576250001,267.6208576250001,272.80336820799994,272.80336820799994,277.75613283300027,None,0,,reldom2_s016,001,2025-02-18_15h52.22.459,Aud-A-Scan_AC,2022.2.5,None,
23,Second_Order,4.0,audwhat,stimulus/audwhat_stim/string cello_low-pitch_F_loud.wav,stimulus/audwhat_stim/string cello_high-pitch_Ftri_loud.wav,stimulus/audwhat_stim/percussion mallet_high-pitch_Ftri_loud.wav,stimulus/audwhat_stim/percussion mallet_low-pitch_F_loud.wav,stimulus/audwhere_stim/match_blank.png,stimulus/audwhat_stim/match_box.png,stimulus/audwhere_stim/match_yes.png,stimulus/audwhere_stim/match_no.png,1.0,Match,Category,Category,1,5.125,0,5.125,0,5.125,0,5.125,0,0.75,0.75,0,0,0,0,0,0,0,0,1,0.5,1,2.125,1,0.5,1,2.125,0,,,,,0,30,30,30,,,,,,,,,277.75613283300027,282.8716545000002,277.75613283300027,277.75613283300027,277.75613283300027,277.75613283300027,278.20805762500004,279.1955143330001,278.22317354166694,,279.83114591699996,280.829452208,279.8440762086668,,282.8716545000002,283.72082308300014,285.798984,289.71165958300026,283.72082308300014,283.72082308300014,288.90416087500034,283.72082308300014,283.72082308300014,283.72082308300014,283.72082308300014,284.13612470800035,285.19778825000003,284.10694916666694,,285.798984,286.8651957500001,285.76955291666695,,283.72082308300014,288.90416087500034,283.72082308300014,288.90416087500034,288.90416087500034,,283.72082308300014,1,1,1.5965410839994547,reldom2_s016,001,2025-02-18_15h52.22.459,Aud-A-Scan_AC,2022.2.5,None,
24,Second_Order,4.0,audwhat,stimulus/audwhat_stim/percussion xylophone_high-pitch_Dtri_loud.wav,stimulus/audwhat_stim/percussion mallet_low-pitch_D_loud.wav,stimulus/audwhat_stim/string cello_low-pitch_Ftri_loud.wav,stimulus/audwhat_stim/string viola_high-pitch_D_loud.wav,stimulus/audwhere_stim/match_blank.png,stimulus/audwhat_stim/match_box.png,stimulus/audwhere_stim/match_yes.png,stimulus/audwhere_stim/match_no.png,1.0,Match,Category,Category,1,5.125,0,5.125,0,5.125,0,5.125,0,0.625,0.625,0,0,0,0,0,0,0,0,1,0.5,1,2.125,1,0.5,1,2.125,0,,,,,0,31,31,31,,,,,,,,,289.71165958300026,294.8323956250001,289.71165958300026,289.71165958300026,289.71165958300026,289.71165958300026,290.17110500000035,291.17025412500016,290.184090999667,291.173777042,291.79214012500006,292.79040699999996,291.80458333366664,,294.8323956250001,295.56481650000023,297.624603667,301.6773520830002,295.56481650000023,295.56481650000023,300.75880991700024,295.56481650000023,295.56481650000023,295.56481650000023,295.56481650000023,295.97693154200033,297.03139787500004,295.94693804166695,,297.624603667,298.6868447920001,297.59595629166665,,295.56481650000023,300.75880991700024,295.56481650000023,300.75880991700024,300.75880991700024,301.4455395,295.56481650000023,1,1,1.0894628329992884,reldom2_s016,001,2025-02-18_15h52.22.459,Aud-A-Scan_AC,2022.2.5,None,
0,0.0,None,fixation,stimulus/audwhere_stim/blank_white.png,stimulus/audwhere_stim/blank_white.png,stimulus/audwhat_stim/blank_white.png,stimulus/audwhat_stim/blank_white.png,stimulus/audwhere_stim/blank_white.png,stimulus/audwhere_stim/blank_white.png,stimulus/audwhere_stim/blank_white.png,stimulus/audwhere_stim/blank_white.png,0.0,0.0,0.0,0.0,0,0.0,0,0.0,0,0.0,0,0.0,0,0.0,0.0,0,0,0,0,0,0,0,0,0,0.0,0,0.0,0,0.0,0,0.0,9,,,,,0,32,32,32,,,,,,,,,301.6773520830002,301.6773520830002,301.6773520830002,301.6773520830002,301.6773520830002,301.6773520830002,301.6773520830002,301.6773520830002,301.5788728333333,301.6773520830002,301.6773520830002,301.6773520830002,301.5788728333333,301.6773520830002,301.6773520830002,301.6773520830002,301.6773520830002,301.6773520830002,301.6773520830002,301.6773520830002,301.6773520830002,301.6773520830002,301.6773520830002,301.6773520830002,301.6773520830002,301.6773520830002,301.6773520830002,301.62887283333333,301.6773520830002,301.6773520830002,301.6773520830002,301.62887283333333,301.6773520830002,301.6773520830002,301.6773520830002,301.6773520830002,301.6773520830002,306.881149583,306.881149583,310.89908241700005,None,0,,reldom2_s016,001,2025-02-18_15h52.22.459,Aud-A-Scan_AC,2022.2.5,None,
25,First_Order,5.0,audwhere,stimulus/audwhere_stim/dummy.wav,stimulus/audwhere_stim/dummy.wav,stimulus/audwhere_stim/right_away_300h.wav,stimulus/audwhere_stim/right_toward_300h.wav,stimulus/audwhere_stim/blank_white.png,stimulus/audwhere_stim/direction_box.png,stimulus/audwhere_stim/direction_yes.png,stimulus/audwhere_stim/direction_no.png,None,Direction,None,Side,2,0.0,0,5.125,0,5.125,0,5.125,0,0.0,0.625,0,0,0,0,0,0,0,0,0,0.0,0,0.0,1,0.5,1,2.125,0,,,,,0,33,33,33,,,,,,,,,310.89908241700005,310.89908241700005,310.89908241700005,310.89908241700005,310.89908241700005,310.89908241700005,310.89908241700005,310.89908241700005,310.8271889996669,310.89908241700005,310.89908241700005,310.89908241700005,310.8271889996669,310.89908241700005,310.89908241700005,310.89908241700005,312.99363545799997,317.01433754200025,310.89908241700005,310.89908241700005,316.0647008750002,310.89908241700005,310.89908241700005,310.89908241700005,310.89908241700005,311.3638920000003,312.43540758300014,311.333738916667,,312.99363545799997,314.0647365,312.9630469586666,,310.89908241700005,316.0647008750002,310.89908241700005,316.0647008750002,316.10620020800025,316.76117458299996,310.89908241700005,2,1,3.047543874999519,reldom2_s016,001,2025-02-18_15h52.22.459,Aud-A-Scan_AC,2022.2.5,None,
26,First_Order,5.0,audwhere,stimulus/audwhere_stim/dummy.wav,stimulus/audwhere_stim/dummy.wav,stimulus/audwhere_stim/right_away_280h.wav,stimulus/audwhere_stim/left_away_270h.wav,stimulus/audwhere_stim/blank_white.png,stimulus/audwhere_stim/side_box.png,stimulus/audwhere_stim/side_yes.png,stimulus/audwhere_stim/side_no.png,None,Side,None,Direction,2,0.0,0,5.125,0,5.125,0,5.125,0,0.0,0.625,0,0,0,0,0,0,0,0,0,0.0,0,0.0,1,0.5,1,2.125,0,,,,,0,34,34,34,,,,,,,,,317.01433754200025,317.01433754200025,317.01433754200025,317.01433754200025,317.01433754200025,317.01433754200025,317.01433754200025,317.01433754200025,316.9353241253335,317.01433754200025,317.01433754200025,317.01433754200025,316.9353241253335,317.01433754200025,317.01433754200025,317.01433754200025,319.10060412500025,,317.01433754200025,317.01433754200025,322.20429816700016,317.01433754200025,317.01433754200025,317.01433754200025,317.01433754200025,317.476893,318.54353795800034,317.4476723746668,,319.10060412500025,320.16676133300007,319.07102424966683,,317.01433754200025,322.20429816700016,317.01433754200025,322.20429816700016,322.2456244170003,322.89970300000004,317.01433754200025,2,1,0.9086536669997258,reldom2_s016,001,2025-02-18_15h52.22.459,Aud-A-Scan_AC,2022.2.5,None,
27,First_Order,5.0,audwhere,stimulus/audwhere_stim/dummy.wav,stimulus/audwhere_stim/dummy.wav,stimulus/audwhere_stim/left_away_300h.wav,stimulus/audwhere_stim/right_away_290h.wav,stimulus/audwhere_stim/blank_white.png,stimulus/audwhere_stim/direction_box.png,stimulus/audwhere_stim/direction_yes.png,stimulus/audwhere_stim/direction_no.png,None,Direction,None,Direction,1,0.0,0,5.125,0,5.125,0,5.125,0,0.0,0.625,0,0,0,0,0,0,0,0,0,0.0,0,0.0,1,0.5,1,2.125,0,,,,,0,35,35,35,,,,,,,,,323.112342333,323.112342333,323.112342333,323.112342333,323.112342333,323.112342333,323.112342333,323.112342333,323.03303633333337,323.112342333,323.112342333,323.112342333,323.03303633333337,323.112342333,323.112342333,323.112342333,325.21363583300035,,323.112342333,323.112342333,328.2950389580001,323.112342333,323.112342333,323.112342333,323.112342333,323.58082975000025,324.65353429200013,323.5508771246666,,325.21363583300035,326.2884009170002,325.18316916666686,,323.112342333,328.2950389580001,323.112342333,328.2950389580001,328.3362147500002,328.9935471670001,323.112342333,2,0,1.5290389999995568,reldom2_s016,001,2025-02-18_15h52.22.459,Aud-A-Scan_AC,2022.2.5,None,
28,First_Order,5.0,audwhere,stimulus/audwhere_stim/dummy.wav,stimulus/audwhere_stim/dummy.wav,stimulus/audwhere_stim/left_away_290h.wav,stimulus/audwhere_stim/right_away_280h.wav,stimulus/audwhere_stim/blank_white.png,stimulus/audwhere_stim/direction_box.png,stimulus/audwhere_stim/direction_yes.png,stimulus/audwhere_stim/direction_no.png,None,Direction,None,Direction,1,0.0,0,5.125,0,5.125,0,5.125,0,0.0,0.625,0,0,0,0,0,0,0,0,0,0.0,0,0.0,1,0.5,1,2.125,0,,,,,0,36,36,36,,,,,,,,,329.20670725000036,329.20670725000036,329.20670725000036,329.20670725000036,329.20670725000036,329.20670725000036,329.20670725000036,329.20670725000036,329.1268805003334,329.20670725000036,329.20670725000036,329.20670725000036,329.1268805003334,329.20670725000036,329.20670725000036,329.20670725000036,331.30844350000007,,329.20670725000036,329.20670725000036,334.38438112500035,329.20670725000036,329.20670725000036,329.20670725000036,329.20670725000036,329.67373720800015,330.7477999580001,329.643740416667,,331.30844350000007,332.37994133300026,331.278086958667,,329.20670725000036,334.38438112500035,329.20670725000036,334.38438112500035,334.4268225830001,335.0839926670001,329.20670725000036,2,0,1.1996079999994436,reldom2_s016,001,2025-02-18_15h52.22.459,Aud-A-Scan_AC,2022.2.5,None,
0,0.0,None,fixation,stimulus/audwhere_stim/blank_white.png,stimulus/audwhere_stim/blank_white.png,stimulus/audwhat_stim/blank_white.png,stimulus/audwhat_stim/blank_white.png,stimulus/audwhere_stim/blank_white.png,stimulus/audwhere_stim/blank_white.png,stimulus/audwhere_stim/blank_white.png,stimulus/audwhere_stim/blank_white.png,0.0,0.0,0.0,0.0,0,0.0,0,0.0,0,0.0,0,0.0,0,0.0,0.0,0,0,0,0,0,0,0,0,0,0.0,0,0.0,0,0.0,0,0.0,9,,,,,0,37,37,37,,,,,,,,,335.3170224170003,335.3170224170003,335.3170224170003,335.3170224170003,335.3170224170003,335.3170224170003,335.3170224170003,335.3170224170003,335.2173260003334,335.3170224170003,335.3170224170003,335.3170224170003,335.2173260003334,335.3170224170003,335.3170224170003,335.3170224170003,335.3170224170003,335.3170224170003,335.3170224170003,335.3170224170003,335.3170224170003,335.3170224170003,335.3170224170003,335.3170224170003,335.3170224170003,335.3170224170003,335.3170224170003,335.2673260003334,335.3170224170003,335.3170224170003,335.3170224170003,335.2673260003334,335.3170224170003,335.3170224170003,335.3170224170003,335.3170224170003,335.3170224170003,340.51699729200027,340.51699729200027,344.4610662080004,None,0,,reldom2_s016,001,2025-02-18_15h52.22.459,Aud-A-Scan_AC,2022.2.5,None,
29,Second_Order,5.0,audwhere,stimulus/audwhere_stim/right_toward_270h.wav,stimulus/audwhere_stim/right_away_280h.wav,stimulus/audwhere_stim/left_toward_290h.wav,stimulus/audwhere_stim/left_away_290h.wav,stimulus/audwhere_stim/match_blank.png,stimulus/audwhere_stim/match_box.png,stimulus/audwhere_stim/match_yes.png,stimulus/audwhere_stim/match_no.png,1.0,Match,Side,Side,1,5.125,0,5.125,0,5.125,0,5.125,0,0.75,0.75,0,0,0,0,0,0,0,0,1,0.5,1,2.125,1,0.5,1,2.125,0,,,,,0,38,38,38,,,,,,,,,344.4610662080004,349.57547595799997,344.4610662080004,344.4610662080004,344.4610662080004,344.4610662080004,344.91296741700035,345.8992172500002,344.92712470866695,,346.53535850000026,347.53333245800013,346.54783929166683,,349.57547595799997,350.423951667,352.5075804580001,356.42714941700024,350.423951667,350.423951667,355.61188037500006,350.423951667,350.423951667,350.423951667,350.423951667,350.84053087500024,351.90351470800033,350.81071574966677,,352.5075804580001,353.57393437500014,352.4775812086666,,350.423951667,355.61188037500006,350.423951667,355.61188037500006,355.61188037500006,,350.423951667,1,1,0.9206116249997649,reldom2_s016,001,2025-02-18_15h52.22.459,Aud-A-Scan_AC,2022.2.5,None,
30,Second_Order,5.0,audwhere,stimulus/audwhere_stim/left_toward_300h.wav,stimulus/audwhere_stim/left_away_290h.wav,stimulus/audwhere_stim/right_away_290h.wav,stimulus/audwhere_stim/right_toward_280h.wav,stimulus/audwhere_stim/match_blank.png,stimulus/audwhere_stim/match_box.png,stimulus/audwhere_stim/match_yes.png,stimulus/audwhere_stim/match_no.png,1.0,Match,Side,Side,1,5.125,0,5.125,0,5.125,0,5.125,0,0.625,0.625,0,0,0,0,0,0,0,0,1,0.5,1,2.125,1,0.5,1,2.125,0,,,,,0,39,39,39,,,,,,,,,356.42714941700024,361.549338625,356.42714941700024,356.42714941700024,356.42714941700024,356.42714941700024,356.8760202080002,357.87408900000037,356.8886409166669,,358.5086617080001,359.4991435830002,358.5118517086669,,361.549338625,362.285279917,364.35263787500026,,362.285279917,362.285279917,367.45071400000006,362.285279917,362.285279917,362.285279917,362.285279917,362.6970703330003,363.7550569580003,362.6674953746667,,364.35263787500026,365.41789341699996,364.32326995866674,,362.285279917,367.45071400000006,362.285279917,367.45071400000006,367.45071400000006,368.1025648750001,362.285279917,1,1,0.864076541999566,reldom2_s016,001,2025-02-18_15h52.22.459,Aud-A-Scan_AC,2022.2.5,None,
0,0.0,None,fixation,stimulus/audwhere_stim/blank_white.png,stimulus/audwhere_stim/blank_white.png,stimulus/audwhat_stim/blank_white.png,stimulus/audwhat_stim/blank_white.png,stimulus/audwhere_stim/blank_white.png,stimulus/audwhere_stim/blank_white.png,stimulus/audwhere_stim/blank_white.png,stimulus/audwhere_stim/blank_white.png,0.0,0.0,0.0,0.0,0,0.0,0,0.0,0,0.0,0,0.0,0,0.0,0.0,0,0,0,0,0,0,0,0,0,0.0,0,0.0,0,0.0,0,0.0,9,,,,,0,40,40,40,,,,,,,,,368.37539162500025,368.37539162500025,368.37539162500025,368.37539162500025,368.37539162500025,368.37539162500025,368.37539162500025,368.37539162500025,368.27644370833343,368.37539162500025,368.37539162500025,368.37539162500025,368.27644370833343,368.37539162500025,368.37539162500025,368.37539162500025,368.37539162500025,368.37539162500025,368.37539162500025,368.37539162500025,368.37539162500025,368.37539162500025,368.37539162500025,368.37539162500025,368.37539162500025,368.37539162500025,368.37539162500025,368.32644370833344,368.37539162500025,368.37539162500025,368.37539162500025,368.32644370833344,368.37539162500025,368.37539162500025,368.37539162500025,368.37539162500025,368.37539162500025,373.59346591700023,373.59346591700023,377.6168775420001,None,0,,reldom2_s016,001,2025-02-18_15h52.22.459,Aud-A-Scan_AC,2022.2.5,None,
31,First_Order,6.0,audwhere,stimulus/audwhere_stim/dummy.wav,stimulus/audwhere_stim/dummy.wav,stimulus/audwhere_stim/left_away_300h.wav,stimulus/audwhere_stim/left_toward_300h.wav,stimulus/audwhere_stim/blank_white.png,stimulus/audwhere_stim/side_box.png,stimulus/audwhere_stim/side_yes.png,stimulus/audwhere_stim/side_no.png,None,Side,None,Side,1,0.0,0,5.125,0,5.125,0,5.125,0,0.0,0.625,0,0,0,0,0,0,0,0,0,0.0,0,0.0,1,0.5,1,2.125,0,,,,,0,41,41,41,,,,,,,,,377.6168775420001,377.6168775420001,377.6168775420001,377.6168775420001,377.6168775420001,377.6168775420001,377.6168775420001,377.6168775420001,377.54553220866694,377.6168775420001,377.6168775420001,377.6168775420001,377.54553220866694,377.6168775420001,377.6168775420001,377.6168775420001,379.7035060420003,,377.6168775420001,377.6168775420001,382.80862562500033,377.6168775420001,377.6168775420001,377.6168775420001,377.6168775420001,378.0806171250001,379.1467134170002,378.0508225416668,,379.7035060420003,380.77328987500005,379.67328508366677,,377.6168775420001,382.80862562500033,377.6168775420001,382.80862562500033,382.80862562500033,383.4578902080002,377.6168775420001,1,1,0.8806552079995527,reldom2_s016,001,2025-02-18_15h52.22.459,Aud-A-Scan_AC,2022.2.5,None,
32,First_Order,6.0,audwhere,stimulus/audwhere_stim/dummy.wav,stimulus/audwhere_stim/dummy.wav,stimulus/audwhere_stim/right_away_270h.wav,stimulus/audwhere_stim/left_away_280h.wav,stimulus/audwhere_stim/blank_white.png,stimulus/audwhere_stim/side_box.png,stimulus/audwhere_stim/side_yes.png,stimulus/audwhere_stim/side_no.png,None,Side,None,Direction,2,0.0,0,5.125,0,5.125,0,5.125,0,0.0,0.625,0,0,0,0,0,0,0,0,0,0.0,0,0.0,1,0.5,1,2.125,0,,,,,0,42,42,42,,,,,,,,,383.71101850000014,383.71101850000014,383.71101850000014,383.71101850000014,383.71101850000014,383.71101850000014,383.71101850000014,383.71101850000014,383.63207562533364,383.71101850000014,383.71101850000014,383.71101850000014,383.63207562533364,383.71101850000014,383.71101850000014,383.71101850000014,385.7986892920003,,383.71101850000014,383.71101850000014,388.86221245800016,383.71101850000014,383.71101850000014,383.71101850000014,383.71101850000014,384.17414499999995,385.24186291700016,384.14349037466695,,385.7986892920003,386.8690283330002,385.7685412086669,,383.71101850000014,388.86221245800016,383.71101850000014,388.86221245800016,388.90310875000023,389.55483816700007,383.71101850000014,1,0,1.1366488329995263,reldom2_s016,001,2025-02-18_15h52.22.459,Aud-A-Scan_AC,2022.2.5,None,
33,First_Order,6.0,audwhere,stimulus/audwhere_stim/dummy.wav,stimulus/audwhere_stim/dummy.wav,stimulus/audwhere_stim/left_toward_270h.wav,stimulus/audwhere_stim/left_away_270h.wav,stimulus/audwhere_stim/blank_white.png,stimulus/audwhere_stim/direction_box.png,stimulus/audwhere_stim/direction_yes.png,stimulus/audwhere_stim/direction_no.png,None,Direction,None,Side,2,0.0,0,5.125,0,5.125,0,5.125,0,0.0,0.625,0,0,0,0,0,0,0,0,0,0.0,0,0.0,1,0.5,1,2.125,0,,,,,0,43,43,43,,,,,,,,,389.8080379580001,389.8080379580001,389.8080379580001,389.8080379580001,389.8080379580001,389.8080379580001,389.8080379580001,389.8080379580001,389.7292669163336,389.8080379580001,389.8080379580001,389.8080379580001,389.7292669163336,389.8080379580001,389.8080379580001,389.8080379580001,391.91412662500034,,389.8080379580001,389.8080379580001,394.9959081670004,389.8080379580001,389.8080379580001,389.8080379580001,389.8080379580001,390.27755433300035,391.3078652500003,390.247284124667,,391.91412662500034,392.989639375,391.88392058366685,,389.8080379580001,394.9959081670004,389.8080379580001,394.9959081670004,395.03709908300016,395.6934408330003,389.8080379580001,2,1,1.6443783749996328,reldom2_s016,001,2025-02-18_15h52.22.459,Aud-A-Scan_AC,2022.2.5,None,
34,First_Order,6.0,audwhere,stimulus/audwhere_stim/dummy.wav,stimulus/audwhere_stim/dummy.wav,stimulus/audwhere_stim/left_toward_300h.wav,stimulus/audwhere_stim/left_away_300h.wav,stimulus/audwhere_stim/blank_white.png,stimulus/audwhere_stim/side_box.png,stimulus/audwhere_stim/side_yes.png,stimulus/audwhere_stim/side_no.png,None,Side,None,Side,1,0.0,0,5.125,0,5.125,0,5.125,0,0.0,0.625,0,0,0,0,0,0,0,0,0,0.0,0,0.0,1,0.5,1,2.125,0,,,,,0,44,44,44,,,,,,,,,395.90642262500023,395.90642262500023,395.90642262500023,395.90642262500023,395.90642262500023,395.90642262500023,395.90642262500023,395.90642262500023,395.8267741663336,395.90642262500023,395.90642262500023,395.90642262500023,395.8267741663336,395.90642262500023,395.90642262500023,395.90642262500023,397.997587417,,395.90642262500023,395.90642262500023,401.0601703750003,395.90642262500023,395.90642262500023,395.90642262500023,395.90642262500023,396.371730458,397.4412779170002,396.34164366666687,,397.997587417,399.06859575,397.96726149966685,,395.90642262500023,401.0601703750003,395.90642262500023,401.0601703750003,401.1010714170002,401.7542308750003,395.90642262500023,1,1,0.5673827499995241,reldom2_s016,001,2025-02-18_15h52.22.459,Aud-A-Scan_AC,2022.2.5,None,
0,0.0,None,fixation,stimulus/audwhere_stim/blank_white.png,stimulus/audwhere_stim/blank_white.png,stimulus/audwhat_stim/blank_white.png,stimulus/audwhat_stim/blank_white.png,stimulus/audwhere_stim/blank_white.png,stimulus/audwhere_stim/blank_white.png,stimulus/audwhere_stim/blank_white.png,stimulus/audwhere_stim/blank_white.png,0.0,0.0,0.0,0.0,0,0.0,0,0.0,0,0.0,0,0.0,0,0.0,0.0,0,0,0,0,0,0,0,0,0,0.0,0,0.0,0,0.0,0,0.0,10,,,,,0,45,45,45,,,,,,,,,402.02863770800013,402.02863770800013,402.02863770800013,402.02863770800013,402.02863770800013,402.02863770800013,402.02863770800013,402.02863770800013,401.92843954133343,402.02863770800013,402.02863770800013,402.02863770800013,401.92843954133343,402.02863770800013,402.02863770800013,402.02863770800013,402.02863770800013,402.02863770800013,402.02863770800013,402.02863770800013,402.02863770800013,402.02863770800013,402.02863770800013,402.02863770800013,402.02863770800013,402.02863770800013,402.02863770800013,401.97843954133344,402.02863770800013,402.02863770800013,402.02863770800013,401.97843954133344,402.02863770800013,402.02863770800013,402.02863770800013,402.02863770800013,402.02863770800013,407.2170572499999,407.2170572499999,412.1738653330003,None,0,,reldom2_s016,001,2025-02-18_15h52.22.459,Aud-A-Scan_AC,2022.2.5,None,
35,Second_Order,6.0,audwhere,stimulus/audwhere_stim/left_away_280h.wav,stimulus/audwhere_stim/left_toward_300h.wav,stimulus/audwhere_stim/right_away_280h.wav,stimulus/audwhere_stim/right_toward_300h.wav,stimulus/audwhere_stim/match_blank.png,stimulus/audwhere_stim/match_box.png,stimulus/audwhere_stim/match_yes.png,stimulus/audwhere_stim/match_no.png,1.0,Match,Side,Side,1,5.125,0,5.125,0,5.125,0,5.125,0,0.75,0.75,0,0,0,0,0,0,0,0,1,0.5,1,2.125,1,0.5,1,2.125,0,,,,,0,46,46,46,,,,,,,,,412.1738653330003,417.2986336250001,412.1738653330003,412.1738653330003,412.1738653330003,412.1738653330003,412.620863958,413.6195697080002,412.6336451246668,,414.2581707920003,415.2444805,414.2706872916667,,417.2986336250001,418.14901550000013,420.19059637500004,424.1495392920001,418.14901550000013,418.14901550000013,423.2999153750002,418.14901550000013,418.14901550000013,418.14901550000013,418.14901550000013,418.5678467920002,419.6352084170003,418.5380691666667,,420.19059637500004,421.2603785420001,420.16083316666686,,418.14901550000013,423.2999153750002,418.14901550000013,423.2999153750002,423.34094137500006,,418.14901550000013,1,1,0.7323785829998997,reldom2_s016,001,2025-02-18_15h52.22.459,Aud-A-Scan_AC,2022.2.5,None,
36,Second_Order,6.0,audwhere,stimulus/audwhere_stim/left_away_290h.wav,stimulus/audwhere_stim/left_toward_270h.wav,stimulus/audwhere_stim/left_toward_290h.wav,stimulus/audwhere_stim/right_toward_270h.wav,stimulus/audwhere_stim/match_blank.png,stimulus/audwhere_stim/match_box.png,stimulus/audwhere_stim/match_yes.png,stimulus/audwhere_stim/match_no.png,2.0,Match,Side,Direction,2,5.125,0,5.125,0,5.125,0,5.125,0,0.625,0.625,0,0,0,0,0,0,0,0,1,0.5,1,2.125,1,0.5,1,2.125,0,,,,,0,47,47,47,,,,,,,,,424.1495392920001,429.27244958300025,424.1495392920001,424.1495392920001,424.1495392920001,424.1495392920001,424.5991018750001,425.59718491700005,424.611720666667,,426.2320816250003,427.22205329200006,426.2352637086667,427.22205329200006,429.27244958300025,430.00550925000016,432.0753973750002,,430.00550925000016,430.00550925000016,435.17377241700024,430.00550925000016,430.00550925000016,430.00550925000016,430.00550925000016,430.46477695800013,431.522744417,430.43425504166703,,432.0753973750002,433.141719792,432.0460727496668,,430.00550925000016,435.17377241700024,430.00550925000016,435.17377241700024,435.17377241700024,435.86186020800005,430.00550925000016,2,1,0.8334017079996556,reldom2_s016,001,2025-02-18_15h52.22.459,Aud-A-Scan_AC,2022.2.5,None,
0,0.0,None,fixation,stimulus/audwhere_stim/blank_white.png,stimulus/audwhere_stim/blank_white.png,stimulus/audwhat_stim/blank_white.png,stimulus/audwhat_stim/blank_white.png,stimulus/audwhere_stim/blank_white.png,stimulus/audwhere_stim/blank_white.png,stimulus/audwhere_stim/blank_white.png,stimulus/audwhere_stim/blank_white.png,0.0,0.0,0.0,0.0,0,0.0,0,0.0,0,0.0,0,0.0,0,0.0,0.0,0,0,0,0,0,0,0,0,0,0.0,0,0.0,0,0.0,0,0.0,9,,,,,0,48,48,48,,,,,,,,,436.0938472500002,436.0938472500002,436.0938472500002,436.0938472500002,436.0938472500002,436.0938472500002,436.0938472500002,436.0938472500002,435.9951935413334,436.0938472500002,436.0938472500002,436.0938472500002,435.9951935413334,436.0938472500002,436.0938472500002,436.0938472500002,436.0938472500002,436.0938472500002,436.0938472500002,436.0938472500002,436.0938472500002,436.0938472500002,436.0938472500002,436.0938472500002,436.0938472500002,436.0938472500002,436.0938472500002,436.0451935413334,436.0938472500002,436.0938472500002,436.0938472500002,436.0451935413334,436.0938472500002,436.0938472500002,436.0938472500002,436.0938472500002,436.0938472500002,441.3137965000001,441.3137965000001,445.3380336250002,None,0,,reldom2_s016,001,2025-02-18_15h52.22.459,Aud-A-Scan_AC,2022.2.5,None,
37,First_Order,7.0,audwhat,stimulus/audwhat_stim/dummy.wav,stimulus/audwhat_stim/dummy.wav,stimulus/audwhat_stim/string cello_low-pitch_Ftri_loud.wav,stimulus/audwhat_stim/string cello_high-pitch_D_loud.wav,stimulus/audwhat_stim/blank_white.png,stimulus/audwhat_stim/pitch_box.png,stimulus/audwhat_stim/pitch_yes.png,stimulus/audwhat_stim/pitch_no.png,None,Pitch,None,Category,2,0.0,0,5.125,0,5.125,0,5.125,0,0.0,0.625,0,0,0,0,0,0,0,0,0,0.0,0,0.0,1,0.5,1,2.125,0,,,,,0,49,49,49,,,,,,,,,445.3380336250002,445.3380336250002,445.3380336250002,445.3380336250002,445.3380336250002,445.3380336250002,445.3380336250002,445.3380336250002,445.26518466666687,445.3380336250002,445.3380336250002,445.3380336250002,445.26518466666687,445.3380336250002,445.3380336250002,445.3380336250002,447.4265917920002,,445.3380336250002,445.3380336250002,450.53285374999996,445.3380336250002,445.3380336250002,445.3380336250002,445.3380336250002,445.80241045799994,446.87139916700016,445.77232808366693,,447.4265917920002,448.4953126250002,447.39688533366666,,445.3380336250002,450.53285374999996,445.3380336250002,450.53285374999996,450.53285374999996,451.18643491700004,445.3380336250002,2,1,1.4488578329996926,reldom2_s016,001,2025-02-18_15h52.22.459,Aud-A-Scan_AC,2022.2.5,None,
38,First_Order,7.0,audwhat,stimulus/audwhat_stim/dummy.wav,stimulus/audwhat_stim/dummy.wav,stimulus/audwhat_stim/string cello_low-pitch_D_loud.wav,stimulus/audwhat_stim/string cello_high-pitch_Ftri_loud.wav,stimulus/audwhat_stim/blank_white.png,stimulus/audwhat_stim/pitch_box.png,stimulus/audwhat_stim/pitch_yes.png,stimulus/audwhat_stim/pitch_no.png,None,Pitch,None,Category,2,0.0,0,5.125,0,5.125,0,5.125,0,0.0,0.625,0,0,0,0,0,0,0,0,0,0.0,0,0.0,1,0.5,1,2.125,0,,,,,0,50,50,50,,,,,,,,,451.4401022920001,451.4401022920001,451.4401022920001,451.4401022920001,451.4401022920001,451.4401022920001,451.4401022920001,451.4401022920001,451.3607214163336,451.4401022920001,451.4401022920001,451.4401022920001,451.3607214163336,451.4401022920001,451.4401022920001,451.4401022920001,453.52952466700026,,451.4401022920001,451.4401022920001,456.5908975420002,451.4401022920001,451.4401022920001,451.4401022920001,451.4401022920001,451.9033582080001,452.97400187500034,451.873604666667,,453.52952466700026,454.59863137499997,453.49949508366694,,451.4401022920001,456.5908975420002,451.4401022920001,456.5908975420002,456.63237941700027,457.28547308299994,451.4401022920001,1,0,2.6275754999996934,reldom2_s016,001,2025-02-18_15h52.22.459,Aud-A-Scan_AC,2022.2.5,None,
39,First_Order,7.0,audwhat,stimulus/audwhat_stim/dummy.wav,stimulus/audwhat_stim/dummy.wav,stimulus/audwhat_stim/percussion xylophone_high-pitch_Dtri_loud.wav,stimulus/audwhat_stim/string cello_high-pitch_Dtri_loud.wav,stimulus/audwhat_stim/blank_white.png,stimulus/audwhat_stim/pitch_box.png,stimulus/audwhat_stim/pitch_yes.png,stimulus/audwhat_stim/pitch_no.png,None,Pitch,None,Pitch,1,0.0,0,5.125,0,5.125,0,5.125,0,0.0,0.625,0,0,0,0,0,0,0,0,0,0.0,0,0.0,1,0.5,1,2.125,0,,,,,0,51,51,51,,,,,,,,,457.53943095800014,457.53943095800014,457.53943095800014,457.53943095800014,457.53943095800014,457.53943095800014,457.53943095800014,457.53943095800014,457.4596030003337,457.53943095800014,457.53943095800014,457.53943095800014,457.4596030003337,457.53943095800014,457.53943095800014,457.53943095800014,459.62994708299993,,457.53943095800014,457.53943095800014,462.694506583,457.53943095800014,457.53943095800014,457.53943095800014,457.53943095800014,458.004002958,459.07500425000035,457.9737020836667,459.0285475830001,459.62994708299993,460.70063712499996,459.599995166667,,457.53943095800014,462.694506583,457.53943095800014,462.694506583,462.73582612500013,463.38925425000025,457.53943095800014,1,1,0.858348374999423,reldom2_s016,001,2025-02-18_15h52.22.459,Aud-A-Scan_AC,2022.2.5,None,
40,First_Order,7.0,audwhat,stimulus/audwhat_stim/dummy.wav,stimulus/audwhat_stim/dummy.wav,stimulus/audwhat_stim/string cello_low-pitch_D_loud.wav,stimulus/audwhat_stim/percussion mallet_low-pitch_D_loud.wav,stimulus/audwhat_stim/blank_white.png,stimulus/audwhat_stim/pitch_box.png,stimulus/audwhat_stim/pitch_yes.png,stimulus/audwhat_stim/pitch_no.png,None,Pitch,None,Pitch,1,0.0,0,5.125,0,5.125,0,5.125,0,0.0,0.625,0,0,0,0,0,0,0,0,0,0.0,0,0.0,1,0.5,1,2.125,0,,,,,0,52,52,52,,,,,,,,,463.64433350000036,463.64433350000036,463.64433350000036,463.64433350000036,463.64433350000036,463.64433350000036,463.64433350000036,463.64433350000036,463.56337608333354,463.64433350000036,463.64433350000036,463.64433350000036,463.56337608333354,463.64433350000036,463.64433350000036,463.64433350000036,465.73358958300014,,463.64433350000036,463.64433350000036,468.836327125,463.64433350000036,463.64433350000036,463.64433350000036,463.64433350000036,464.10815337500026,465.17863104200023,464.0780643336668,,465.73358958300014,466.80138883300015,465.7039126666666,,463.64433350000036,468.836327125,463.64433350000036,468.836327125,468.836327125,469.4909818750002,463.64433350000036,2,0,0.9853059169995504,reldom2_s016,001,2025-02-18_15h52.22.459,Aud-A-Scan_AC,2022.2.5,None,
0,0.0,None,fixation,stimulus/audwhere_stim/blank_white.png,stimulus/audwhere_stim/blank_white.png,stimulus/audwhat_stim/blank_white.png,stimulus/audwhat_stim/blank_white.png,stimulus/audwhere_stim/blank_white.png,stimulus/audwhere_stim/blank_white.png,stimulus/audwhere_stim/blank_white.png,stimulus/audwhere_stim/blank_white.png,0.0,0.0,0.0,0.0,0,0.0,0,0.0,0,0.0,0,0.0,0,0.0,0.0,0,0,0,0,0,0,0,0,0,0.0,0,0.0,0,0.0,0,0.0,10,,,,,0,53,53,53,,,,,,,,,469.76559258299994,469.76559258299994,469.76559258299994,469.76559258299994,469.76559258299994,469.76559258299994,469.76559258299994,469.76559258299994,469.6655177503336,469.76559258299994,469.76559258299994,469.76559258299994,469.6655177503336,469.76559258299994,469.76559258299994,469.76559258299994,469.76559258299994,469.76559258299994,469.76559258299994,469.76559258299994,469.76559258299994,469.76559258299994,469.76559258299994,469.76559258299994,469.76559258299994,469.76559258299994,469.76559258299994,469.7155177503336,469.76559258299994,469.76559258299994,469.76559258299994,469.7155177503336,469.76559258299994,469.76559258299994,469.76559258299994,469.76559258299994,469.76559258299994,474.96173291700006,474.96173291700006,479.9396742500003,None,0,,reldom2_s016,001,2025-02-18_15h52.22.459,Aud-A-Scan_AC,2022.2.5,None,
41,Second_Order,7.0,audwhat,stimulus/audwhat_stim/percussion xylophone_high-pitch_Ftri_loud.wav,stimulus/audwhat_stim/percussion mallet_low-pitch_Dtri_loud.wav,stimulus/audwhat_stim/string viola_low-pitch_Ftri_loud.wav,stimulus/audwhat_stim/percussion mallet_low-pitch_Ftri_loud.wav,stimulus/audwhere_stim/match_blank.png,stimulus/audwhat_stim/match_box.png,stimulus/audwhere_stim/match_yes.png,stimulus/audwhere_stim/match_no.png,2.0,Match,Category,Pitch,2,5.125,0,5.125,0,5.125,0,5.125,0,0.75,0.75,0,0,0,0,0,0,0,0,1,0.5,1,2.125,1,0.5,1,2.125,0,,,,,0,54,54,54,,,,,,,,,479.9396742500003,485.055484,479.9396742500003,479.9396742500003,479.9396742500003,479.9396742500003,480.3940998329999,481.3926098750003,480.4070463336668,481.39631925000003,482.0161048330001,483.0130048750002,482.0276587916667,,485.055484,485.9040103750003,487.987521,,485.9040103750003,485.9040103750003,491.05492804200003,485.9040103750003,485.9040103750003,485.9040103750003,485.9040103750003,486.3190866670002,487.3856101670003,486.28994629166687,,487.987521,489.05986929200026,487.9579350416668,,485.9040103750003,491.05492804200003,485.9040103750003,491.05492804200003,491.09576500000003,,485.9040103750003,2,1,3.535068458999831,reldom2_s016,001,2025-02-18_15h52.22.459,Aud-A-Scan_AC,2022.2.5,None,
42,Second_Order,7.0,audwhat,stimulus/audwhat_stim/string cello_high-pitch_Dtri_loud.wav,stimulus/audwhat_stim/percussion mallet_high-pitch_Dtri_loud.wav,stimulus/audwhat_stim/percussion mallet_low-pitch_D_loud.wav,stimulus/audwhat_stim/string cello_low-pitch_D_loud.wav,stimulus/audwhere_stim/match_blank.png,stimulus/audwhat_stim/match_box.png,stimulus/audwhere_stim/match_yes.png,stimulus/audwhere_stim/match_no.png,1.0,Match,Pitch,Pitch,1,5.125,0,5.125,0,5.125,0,5.125,0,0.625,0.625,0,0,0,0,0,0,0,0,1,0.5,1,2.125,1,0.5,1,2.125,0,,,,,0,55,55,55,,,,,,,,,491.8692551250001,496.9836207080002,491.8692551250001,491.8692551250001,491.8692551250001,491.8692551250001,492.320167375,493.30662433299995,492.33438641666703,,493.9436043750002,494.9408570830001,493.95513704166683,,496.9836207080002,497.71345041700033,499.7856110830003,503.8153625,497.71345041700033,497.71345041700033,502.8896492500003,497.71345041700033,497.71345041700033,497.71345041700033,497.71345041700033,498.17090375,499.23228666700015,498.1417167916668,,499.7856110830003,500.8539087080003,499.75604291666673,,497.71345041700033,502.8896492500003,497.71345041700033,502.8896492500003,502.8896492500003,503.54221095799994,497.71345041700033,2,0,0.5911312079997515,reldom2_s016,001,2025-02-18_15h52.22.459,Aud-A-Scan_AC,2022.2.5,None,
0,0.0,None,fixation,stimulus/audwhere_stim/blank_white.png,stimulus/audwhere_stim/blank_white.png,stimulus/audwhat_stim/blank_white.png,stimulus/audwhat_stim/blank_white.png,stimulus/audwhere_stim/blank_white.png,stimulus/audwhere_stim/blank_white.png,stimulus/audwhere_stim/blank_white.png,stimulus/audwhere_stim/blank_white.png,0.0,0.0,0.0,0.0,0,0.0,0,0.0,0,0.0,0,0.0,0,0.0,0.0,0,0,0,0,0,0,0,0,0,0.0,0,0.0,0,0.0,0,0.0,9,,,,,0,56,56,56,,,,,,,,,503.8153625,503.8153625,503.8153625,503.8153625,503.8153625,503.8153625,503.8153625,503.8153625,503.71590191633334,503.8153625,503.8153625,503.8153625,503.71590191633334,503.8153625,503.8153625,503.8153625,503.8153625,503.8153625,503.8153625,503.8153625,503.8153625,503.8153625,503.8153625,503.8153625,503.8153625,503.8153625,503.8153625,503.76590191633335,503.8153625,503.8153625,503.8153625,503.76590191633335,503.8153625,503.8153625,503.8153625,503.8153625,503.8153625,509.0372526670003,509.0372526670003,513.0643231670001,None,0,,reldom2_s016,001,2025-02-18_15h52.22.459,Aud-A-Scan_AC,2022.2.5,None,
43,First_Order,8.0,audwhat,stimulus/audwhat_stim/dummy.wav,stimulus/audwhat_stim/dummy.wav,stimulus/audwhat_stim/string viola_low-pitch_F_loud.wav,stimulus/audwhat_stim/percussion mallet_low-pitch_F_loud.wav,stimulus/audwhat_stim/blank_white.png,stimulus/audwhat_stim/category_box.png,stimulus/audwhat_stim/category_yes.png,stimulus/audwhat_stim/category_no.png,None,Category,None,Pitch,2,0.0,0,5.125,0,5.125,0,5.125,0,0.0,0.625,0,0,0,0,0,0,0,0,0,0.0,0,0.0,1,0.5,1,2.125,0,,,,,0,57,57,57,,,,,,,,,513.0643231670001,513.0643231670001,513.0643231670001,513.0643231670001,513.0643231670001,513.0643231670001,513.0643231670001,513.0643231670001,512.9908764586668,513.0643231670001,513.0643231670001,513.0643231670001,512.9908764586668,513.0643231670001,513.0643231670001,513.0643231670001,515.1629210000001,519.1892586250001,513.0643231670001,513.0643231670001,518.2373266250002,513.0643231670001,513.0643231670001,513.0643231670001,513.0643231670001,513.5309456670002,514.605522625,513.501135333667,,515.1629210000001,516.2361516250003,515.1331078746668,,513.0643231670001,518.2373266250002,513.0643231670001,518.2373266250002,518.2787184580002,518.9361772500001,513.0643231670001,2,1,1.4633747919997404,reldom2_s016,001,2025-02-18_15h52.22.459,Aud-A-Scan_AC,2022.2.5,None,
44,First_Order,8.0,audwhat,stimulus/audwhat_stim/dummy.wav,stimulus/audwhat_stim/dummy.wav,stimulus/audwhat_stim/percussion mallet_low-pitch_Dtri_loud.wav,stimulus/audwhat_stim/percussion xylophone_high-pitch_F_loud.wav,stimulus/audwhat_stim/blank_white.png,stimulus/audwhat_stim/category_box.png,stimulus/audwhat_stim/category_yes.png,stimulus/audwhat_stim/category_no.png,None,Category,None,Category,1,0.0,0,5.125,0,5.125,0,5.125,0,0.0,0.625,0,0,0,0,0,0,0,0,0,0.0,0,0.0,1,0.5,1,2.125,0,,,,,0,58,58,58,,,,,,,,,519.1892586250001,519.1892586250001,519.1892586250001,519.1892586250001,519.1892586250001,519.1892586250001,519.1892586250001,519.1892586250001,519.1101427913333,519.1892586250001,519.1892586250001,519.1892586250001,519.1101427913333,519.1892586250001,519.1892586250001,519.1892586250001,521.2883794170002,525.3182810000003,519.1892586250001,519.1892586250001,524.3658300830002,519.1892586250001,519.1892586250001,519.1892586250001,519.1892586250001,519.6551616670004,520.7287361670001,519.624873916667,,521.2883794170002,522.3627771670003,521.2582729586668,522.3148738330001,519.1892586250001,524.3658300830002,519.1892586250001,524.3658300830002,524.4069210000002,525.064051583,519.1892586250001,1,1,1.035470582999551,reldom2_s016,001,2025-02-18_15h52.22.459,Aud-A-Scan_AC,2022.2.5,None,
45,First_Order,8.0,audwhat,stimulus/audwhat_stim/dummy.wav,stimulus/audwhat_stim/dummy.wav,stimulus/audwhat_stim/string cello_high-pitch_Dtri_loud.wav,stimulus/audwhat_stim/percussion xylophone_high-pitch_Dtri_loud.wav,stimulus/audwhat_stim/blank_white.png,stimulus/audwhat_stim/category_box.png,stimulus/audwhat_stim/category_yes.png,stimulus/audwhat_stim/category_no.png,None,Category,None,Pitch,2,0.0,0,5.125,0,5.125,0,5.125,0,0.0,0.625,0,0,0,0,0,0,0,0,0,0.0,0,0.0,1,0.5,1,2.125,0,,,,,0,59,59,59,,,,,,,,,525.3182810000003,525.3182810000003,525.3182810000003,525.3182810000003,525.3182810000003,525.3182810000003,525.3182810000003,525.3182810000003,525.2383228753334,525.3182810000003,525.3182810000003,525.3182810000003,525.2383228753334,525.3182810000003,525.3182810000003,525.3182810000003,527.4165378750004,531.4469268750004,525.3182810000003,525.3182810000003,530.495812958,525.3182810000003,525.3182810000003,525.3182810000003,525.3182810000003,525.7845362920002,526.8576115420001,525.754550083667,,527.4165378750004,528.4918696670002,527.386315916667,528.4447426250003,525.3182810000003,530.495812958,525.3182810000003,530.495812958,530.5367943330002,531.1926262500001,525.3182810000003,2,1,1.0813221669995983,reldom2_s016,001,2025-02-18_15h52.22.459,Aud-A-Scan_AC,2022.2.5,None,
46,First_Order,8.0,audwhat,stimulus/audwhat_stim/dummy.wav,stimulus/audwhat_stim/dummy.wav,stimulus/audwhat_stim/percussion mallet_low-pitch_Ftri_loud.wav,stimulus/audwhat_stim/percussion mallet_high-pitch_F_loud.wav,stimulus/audwhat_stim/blank_white.png,stimulus/audwhat_stim/category_box.png,stimulus/audwhat_stim/category_yes.png,stimulus/audwhat_stim/category_no.png,None,Category,None,Category,1,0.0,0,5.125,0,5.125,0,5.125,0,0.0,0.625,0,0,0,0,0,0,0,0,0,0.0,0,0.0,1,0.5,1,2.125,0,,,,,0,60,60,60,,,,,,,,,531.4469268750004,531.4469268750004,531.4469268750004,531.4469268750004,531.4469268750004,531.4469268750004,531.4469268750004,531.4469268750004,531.3666418753334,531.4469268750004,531.4469268750004,531.4469268750004,531.3666418753334,531.4469268750004,531.4469268750004,531.4469268750004,533.544545583,,531.4469268750004,531.4469268750004,536.6351896670003,531.4469268750004,531.4469268750004,531.4469268750004,531.4469268750004,531.912364458,532.9848231250003,531.882354624667,,533.544545583,534.580033792,533.5145111246668,,531.4469268750004,536.6351896670003,531.4469268750004,536.6351896670003,536.6759545,537.3336797080001,531.4469268750004,1,1,0.5001947499995367,reldom2_s016,001,2025-02-18_15h52.22.459,Aud-A-Scan_AC,2022.2.5,None,
0,0.0,None,fixation,stimulus/audwhere_stim/blank_white.png,stimulus/audwhere_stim/blank_white.png,stimulus/audwhat_stim/blank_white.png,stimulus/audwhat_stim/blank_white.png,stimulus/audwhere_stim/blank_white.png,stimulus/audwhere_stim/blank_white.png,stimulus/audwhere_stim/blank_white.png,stimulus/audwhere_stim/blank_white.png,0.0,0.0,0.0,0.0,0,0.0,0,0.0,0,0.0,0,0.0,0,0.0,0.0,0,0,0,0,0,0,0,0,0,0.0,0,0.0,0,0.0,0,0.0,8,,,,,0,61,61,61,,,,,,,,,537.5671520000001,537.5671520000001,537.5671520000001,537.5671520000001,537.5671520000001,537.5671520000001,537.5671520000001,537.5671520000001,537.4670130413334,537.5671520000001,537.5671520000001,537.5671520000001,537.4670130413334,537.5671520000001,537.5671520000001,537.5671520000001,537.5671520000001,537.5671520000001,537.5671520000001,537.5671520000001,537.5671520000001,537.5671520000001,537.5671520000001,537.5671520000001,537.5671520000001,537.5671520000001,537.5671520000001,537.5170130413334,537.5671520000001,537.5671520000001,537.5671520000001,537.5170130413334,537.5671520000001,537.5671520000001,537.5671520000001,537.5671520000001,537.5671520000001,542.7649195829999,542.7649195829999,545.696185583,None,0,,reldom2_s016,001,2025-02-18_15h52.22.459,Aud-A-Scan_AC,2022.2.5,None,
47,Second_Order,8.0,audwhat,stimulus/audwhat_stim/string cello_high-pitch_F_loud.wav,stimulus/audwhat_stim/string viola_low-pitch_D_loud.wav,stimulus/audwhat_stim/percussion mallet_low-pitch_Ftri_loud.wav,stimulus/audwhat_stim/percussion xylophone_high-pitch_F_loud.wav,stimulus/audwhere_stim/match_blank.png,stimulus/audwhat_stim/match_box.png,stimulus/audwhere_stim/match_yes.png,stimulus/audwhere_stim/match_no.png,1.0,Match,Category,Category,1,5.125,0,5.125,0,5.125,0,5.125,0,0.75,0.75,0,0,0,0,0,0,0,0,1,0.5,1,2.125,1,0.5,1,2.125,0,,,,,0,62,62,62,,,,,,,,,545.696185583,550.8199400420003,545.696185583,545.696185583,545.696185583,545.696185583,546.1444153750003,547.132369292,546.1584378336668,,547.7794801250002,548.7689000830001,547.7825534166666,,550.8199400420003,551.6716219580003,553.755487208,557.6687078750001,551.6716219580003,551.6716219580003,556.8194093750003,551.6716219580003,551.6716219580003,551.6716219580003,551.6716219580003,552.086829542,553.1535404169999,552.057004916667,,553.755487208,554.8293251250002,553.7257954586669,554.783085,551.6716219580003,556.8194093750003,551.6716219580003,556.8194093750003,556.860077375,,551.6716219580003,1,1,0.6373930830000063,reldom2_s016,001,2025-02-18_15h52.22.459,Aud-A-Scan_AC,2022.2.5,None,
48,Second_Order,8.0,audwhat,stimulus/audwhat_stim/percussion mallet_high-pitch_Ftri_loud.wav,stimulus/audwhat_stim/percussion mallet_low-pitch_D_loud.wav,stimulus/audwhat_stim/string cello_high-pitch_Ftri_loud.wav,stimulus/audwhat_stim/percussion xylophone_high-pitch_Ftri_loud.wav,stimulus/audwhere_stim/match_blank.png,stimulus/audwhat_stim/match_box.png,stimulus/audwhere_stim/match_yes.png,stimulus/audwhere_stim/match_no.png,2.0,Match,Category,Pitch,2,5.125,0,5.125,0,5.125,0,5.125,0,0.625,0.625,0,0,0,0,0,0,0,0,1,0.5,1,2.125,1,0.5,1,2.125,0,,,,,0,63,63,63,,,,,,,,,557.6687078750001,562.7852459170003,557.6687078750001,557.6687078750001,557.6687078750001,557.6687078750001,558.121911708,559.1093582920003,558.1361773746669,,559.7446422920002,560.7430437920002,559.7569091666667,,562.7852459170003,563.5126392080001,565.5829012080003,,563.5126392080001,563.5126392080001,568.6827513329999,563.5126392080001,563.5126392080001,563.5126392080001,563.5126392080001,563.9692449170002,565.0285653750002,563.9399462086669,,565.5829012080003,566.6511691670003,565.5533744996667,566.6044993750002,563.5126392080001,568.6827513329999,563.5126392080001,568.6827513329999,568.6827513329999,569.3331600830002,563.5126392080001,1,0,1.5742633329996352,reldom2_s016,001,2025-02-18_15h52.22.459,Aud-A-Scan_AC,2022.2.5,None,
0,0.0,None,fixation,stimulus/audwhere_stim/blank_white.png,stimulus/audwhere_stim/blank_white.png,stimulus/audwhat_stim/blank_white.png,stimulus/audwhat_stim/blank_white.png,stimulus/audwhere_stim/blank_white.png,stimulus/audwhere_stim/blank_white.png,stimulus/audwhere_stim/blank_white.png,stimulus/audwhere_stim/blank_white.png,0.0,0.0,0.0,0.0,0,0.0,0,0.0,0,0.0,0,0.0,0,0.0,0.0,0,0,0,0,0,0,0,0,0,0.0,0,0.0,0,0.0,0,0.0,16,,,,,0,64,64,64,,,,,,,,,569.6064388750001,569.6064388750001,569.6064388750001,569.6064388750001,569.6064388750001,569.6064388750001,569.6064388750001,569.6064388750001,569.5071525833333,569.6064388750001,569.6064388750001,569.6064388750001,569.5071525833333,569.6064388750001,569.6064388750001,569.6064388750001,569.6064388750001,569.6064388750001,569.6064388750001,569.6064388750001,569.6064388750001,569.6064388750001,569.6064388750001,569.6064388750001,569.6064388750001,569.6064388750001,569.6064388750001,569.5571525833333,569.6064388750001,569.6064388750001,569.6064388750001,569.5571525833333,569.6064388750001,569.6064388750001,569.6064388750001,569.6064388750001,569.6064388750001,574.8348682920005,574.8348682920005,585.763901583,None,0,,reldom2_s016,001,2025-02-18_15h52.22.459,Aud-A-Scan_AC,2022.2.5,None,
