Trial,Order,Block,Type,Stimuli_File1,Stimuli_File2,Stimuli_File3,Stimuli_File4,Cue_File1,Cue_File2,Response_File_Yes,Response_File_No,Match,Cue_Dimension,Pair1_Dimension,Pair2_Dimension,Key,Cue1_Duration,Cue1_Onset,Cue2_Duration,Cue2_Onset,ResponseYes_Duration,ResponseYes_Onset,ResponseNo_Duration,ResponseNo_Onset,ITI_Within,ITI_Between,Image1_Duration,Image1_Onset,Image2_Duration,Image2_Onset,Image3_Duration,Image3_Onset,Image4_Duration,Image4_Onset,Sound1_Duration,Sound1_Onset,Sound2_Duration,Sound2_Onset,Sound3_Duration,Sound3_Onset,Sound4_Duration,Sound4_Onset,Fixation_Duration,trials_2.thisRepN,trials_2.thisTrialN,trials_2.thisN,trials_2.thisIndex,trials.thisRepN,trials.thisTrialN,trials.thisN,trials.thisIndex,text_start.started,key_resp_start.started,key_resp_start.keys,key_resp_start.rt,text2.started,key_resp_2.started,key_resp_2.keys,key_resp_2.rt,cue_file1.started,cue_file1.stopped,image_1.started,image_1.stopped,image_2.started,image_2.stopped,sound_icon1.started,sound_icon1.stopped,sound_1.started,sound_1.stopped,sound_icon2.started,sound_icon2.stopped,sound_2.started,sound_2.stopped,image_blank_1.started,image_blank_1.stopped,key_press.started,key_press.stopped,fixation_text.started,cue_file2.started,cue_file2.stopped,image_3.started,image_3.stopped,image_4.started,image_4.stopped,sound_icon3.started,sound_icon3.stopped,sound_3.started,sound_3.stopped,sound_icon4.started,sound_icon4.stopped,sound_4.started,sound_4.stopped,response_yes.started,response_yes.stopped,response_no.started,response_no.stopped,iti_blank.started,iti_blank.stopped,fixation_text.stopped,key_press.keys,key_press.corr,key_press.rt,participant,session,date,expName,psychopyVersion,frameRate,
,,,,,,,,,,,,,,,,,,,,,,,,,,,,,,,,,,,,,,,,,,,,,,,,,,,,6.901527250000072,6.901527250000072,2,1.0868694580003648,,,,,,,,,,,,,,,,,,,,,,,,,,,,,,,,,,,,,,,,,,,,,,,,reldom2_s016,001,2025-02-18_15h37.37.075,Where-A-Scan_AC,2022.2.5,None,
,,,,,,,,,,,,,,,,,,,,,,,,,,,,,,,,,,,,,,,,,,,,0,0,0,0,,,,,,,,,8.027951291000136,8.027951291000136,5,17.09685033400001,,,,,,,,,,,,,,,,,,,,,,,,,,,,,,,,,,,,,,,,,,,,reldom2_s016,001,2025-02-18_15h37.37.075,Where-A-Scan_AC,2022.2.5,None,
,,,,,,,,,,,,,,,,,,,,,,,,,,,,,,,,,,,,,,,,,,,,1,0,1,0,,,,,,,,,25.13793912500023,25.13793912500023,5,1.9858416670003862,,,,,,,,,,,,,,,,,,,,,,,,,,,,,,,,,,,,,,,,,,,,reldom2_s016,001,2025-02-18_15h37.37.075,Where-A-Scan_AC,2022.2.5,None,
,,,,,,,,,,,,,,,,,,,,,,,,,,,,,,,,,,,,,,,,,,,,2,0,2,0,,,,,,,,,27.14262208299988,27.14262208299988,5,1.9815804580002805,,,,,,,,,,,,,,,,,,,,,,,,,,,,,,,,,,,,,,,,,,,,reldom2_s016,001,2025-02-18_15h37.37.075,Where-A-Scan_AC,2022.2.5,None,
,,,,,,,,,,,,,,,,,,,,,,,,,,,,,,,,,,,,,,,,,,,,3,0,3,0,,,,,,,,,29.139392874999885,29.139392874999885,5,1.9849439590002476,,,,,,,,,,,,,,,,,,,,,,,,,,,,,,,,,,,,,,,,,,,,reldom2_s016,001,2025-02-18_15h37.37.075,Where-A-Scan_AC,2022.2.5,None,
0,0.0,None,fixation,stimulus/viswhere_stim/blank_white.png,stimulus/viswhere_stim/blank_white.png,stimulus/audwhere_stim/blank_white.png,stimulus/audwhere_stim/blank_white.png,stimulus/viswhere_stim/blank_white.png,stimulus/viswhere_stim/blank_white.png,stimulus/viswhere_stim/blank_white.png,stimulus/viswhere_stim/blank_white.png,0.0,0.0,0.0,0.0,0,0.0,0,0.0,0,0.0,0,0.0,0,0.0,0.0,0,0.0,0,0.0,0,0.0,0,0.0,0,0.0,0,0.0,0,0.0,0,0.0,16,,,,,0,0,0,0,,,,,,,,,31.352952665999965,31.352952665999965,31.352952665999965,31.352952665999965,31.352952665999965,31.352952665999965,31.352952665999965,31.352952665999965,31.252140749666857,31.352952665999965,31.352952665999965,31.352952665999965,31.252140749666857,31.352952665999965,31.352952665999965,31.352952665999965,31.352952665999965,31.352952665999965,31.352952665999965,31.352952665999965,31.352952665999965,31.352952665999965,31.352952665999965,31.352952665999965,31.352952665999965,31.352952665999965,31.352952665999965,31.302140749666854,31.352952665999965,31.352952665999965,31.352952665999965,31.302140749666854,31.352952665999965,31.352952665999965,31.352952665999965,31.352952665999965,31.352952665999965,36.54351600000018,36.54351600000018,47.531259040999885,None,0,,reldom2_s016,001,2025-02-18_15h37.37.075,Where-A-Scan_AC,2022.2.5,None,
1,First_Order,1.0,viswhere,stimulus/viswhere_stim/blank_white.png,stimulus/viswhere_stim/blank_white.png,stimulus/viswhere_stim/60-deg_dot-left_peru.png,stimulus/viswhere_stim/60-deg_dot-right_turquoise.png,stimulus/viswhere_stim/blank_white.png,stimulus/viswhere_stim/dot_box.png,stimulus/viswhere_stim/dot_yes.png,stimulus/viswhere_stim/dot_no.png,None,Dot,None,Line,2,0.0,0,5.125,0,5.125,0,5.125,0,0.0,0.625,0,0.0,0,0.0,1,0.5,1,2.125,0,0.0,0,0.0,0,0.0,0,0.0,0,,,,,0,1,1,1,,,,,,,,,47.531259040999885,47.531259040999885,47.531259040999885,47.531259040999885,47.531259040999885,47.531259040999885,47.531259040999885,47.531259040999885,47.50794583300003,47.531259040999885,47.531259040999885,47.531259040999885,47.50794583300003,47.531259040999885,47.531259040999885,47.531259040999885,49.637710291000076,53.59436037500018,47.531259040999885,47.531259040999885,52.66012495799987,48.00702929099998,49.011954291000166,49.637710291000076,50.64747695799997,47.531259040999885,47.531259040999885,47.524612499666695,47.531259040999885,47.531259040999885,47.531259040999885,47.524612499666695,47.531259040999885,47.531259040999885,52.66012495799987,47.531259040999885,52.66012495799987,52.754551166000056,53.376180374999876,47.531259040999885,2,1,0.907038792000094,reldom2_s016,001,2025-02-18_15h37.37.075,Where-A-Scan_AC,2022.2.5,None,
2,First_Order,1.0,viswhere,stimulus/viswhere_stim/blank_white.png,stimulus/viswhere_stim/blank_white.png,stimulus/viswhere_stim/60-deg_dot-right_turquoise.png,stimulus/viswhere_stim/60-deg_dot-left_turquoise.png,stimulus/viswhere_stim/blank_white.png,stimulus/viswhere_stim/line_box.png,stimulus/viswhere_stim/line_yes.png,stimulus/viswhere_stim/line_no.png,None,Line,None,Line,1,0.0,0,5.125,0,5.125,0,5.125,0,0.0,0.625,0,0.0,0,0.0,1,0.5,1,2.125,0,0.0,0,0.0,0,0.0,0,0.0,0,,,,,0,2,2,2,,,,,,,,,53.59436037500018,53.59436037500018,53.59436037500018,53.59436037500018,53.59436037500018,53.59436037500018,53.59436037500018,53.59436037500018,53.57301141633328,53.59436037500018,53.59436037500018,53.59436037500018,53.57301141633328,53.59436037500018,53.59436037500018,53.59436037500018,55.70843370800003,59.65129625000009,53.59436037500018,53.59436037500018,58.720837916000164,54.07071916599989,55.07930875000011,55.70843370800003,56.72274820800021,53.59436037500018,53.59436037500018,53.589678082999946,53.59436037500018,53.59436037500018,53.59436037500018,53.589678082999946,53.59436037500018,53.59436037500018,58.720837916000164,53.59436037500018,58.720837916000164,58.83167670800003,59.4599370410001,53.59436037500018,1,1,0.7472423760004858,reldom2_s016,001,2025-02-18_15h37.37.075,Where-A-Scan_AC,2022.2.5,None,
3,First_Order,1.0,viswhere,stimulus/viswhere_stim/blank_white.png,stimulus/viswhere_stim/blank_white.png,stimulus/viswhere_stim/30-deg_dot-left_salmon.png,stimulus/viswhere_stim/120-deg_dot-left_royalblue.png,stimulus/viswhere_stim/blank_white.png,stimulus/viswhere_stim/line_box.png,stimulus/viswhere_stim/line_yes.png,stimulus/viswhere_stim/line_no.png,None,Line,None,Dot,2,0.0,0,5.125,0,5.125,0,5.125,0,0.0,0.625,0,0.0,0,0.0,1,0.5,1,2.125,0,0.0,0,0.0,0,0.0,0,0.0,0,,,,,0,3,3,3,,,,,,,,,59.65129625000009,59.65129625000009,59.65129625000009,59.65129625000009,59.65129625000009,59.65129625000009,59.65129625000009,59.65129625000009,59.629947708333326,59.65129625000009,59.65129625000009,59.65129625000009,59.629947708333326,59.65129625000009,59.65129625000009,59.65129625000009,61.74838795799997,65.70848541600026,59.65129625000009,59.65129625000009,64.78802420800002,60.12801658299986,61.138768791000075,61.74838795799997,62.76595070800022,59.65129625000009,59.65129625000009,59.64661437499999,59.65129625000009,59.65129625000009,59.65129625000009,59.64661437499999,59.65129625000009,59.65129625000009,64.78802420800002,59.65129625000009,64.78802420800002,64.86975870800006,65.49386754099987,59.65129625000009,2,1,0.7435428759999922,reldom2_s016,001,2025-02-18_15h37.37.075,Where-A-Scan_AC,2022.2.5,None,
4,First_Order,1.0,viswhere,stimulus/viswhere_stim/blank_white.png,stimulus/viswhere_stim/blank_white.png,stimulus/viswhere_stim/150-deg_dot-right_salmon.png,stimulus/viswhere_stim/90-deg_dot-right_goldenrod.png,stimulus/viswhere_stim/blank_white.png,stimulus/viswhere_stim/line_box.png,stimulus/viswhere_stim/line_yes.png,stimulus/viswhere_stim/line_no.png,None,Line,None,Dot,2,0.0,0,5.125,0,5.125,0,5.125,0,0.0,0.625,0,0.0,0,0.0,1,0.5,1,2.125,0,0.0,0,0.0,0,0.0,0,0.0,0,,,,,0,4,4,4,,,,,,,,,65.70848541600026,65.70848541600026,65.70848541600026,65.70848541600026,65.70848541600026,65.70848541600026,65.70848541600026,65.70848541600026,65.68735108333324,65.70848541600026,65.70848541600026,65.70848541600026,65.68735108333324,65.70848541600026,65.70848541600026,65.70848541600026,67.82396979099985,71.85246108299998,65.70848541600026,65.70848541600026,70.83098516600012,66.18888095800003,67.20992270800025,67.82396979099985,68.83016275,65.70848541600026,65.70848541600026,65.7040177499999,65.70848541600026,65.70848541600026,65.70848541600026,65.7040177499999,65.70848541600026,65.70848541600026,70.83098516600012,65.70848541600026,70.83098516600012,70.92870154100001,71.55776449999985,65.70848541600026,2,1,0.821666667000045,reldom2_s016,001,2025-02-18_15h37.37.075,Where-A-Scan_AC,2022.2.5,None,
0,0.0,None,fixation,stimulus/viswhere_stim/blank_white.png,stimulus/viswhere_stim/blank_white.png,stimulus/audwhere_stim/blank_white.png,stimulus/audwhere_stim/blank_white.png,stimulus/viswhere_stim/blank_white.png,stimulus/viswhere_stim/blank_white.png,stimulus/viswhere_stim/blank_white.png,stimulus/viswhere_stim/blank_white.png,0.0,0.0,0.0,0.0,0,0.0,0,0.0,0,0.0,0,0.0,0,0.0,0.0,0,0.0,0,0.0,0,0.0,0,0.0,0,0.0,0,0.0,0,0.0,0,0.0,9,,,,,0,5,5,5,,,,,,,,,71.85246108299998,71.85246108299998,71.85246108299998,71.85246108299998,71.85246108299998,71.85246108299998,71.85246108299998,71.85246108299998,71.75220033333319,71.85246108299998,71.85246108299998,71.85246108299998,71.75220033333319,71.85246108299998,71.85246108299998,71.85246108299998,71.85246108299998,71.85246108299998,71.85246108299998,71.85246108299998,71.85246108299998,71.85246108299998,71.85246108299998,71.85246108299998,71.85246108299998,71.85246108299998,71.85246108299998,71.80220033333319,71.85246108299998,71.85246108299998,71.85246108299998,71.80220033333319,71.85246108299998,71.85246108299998,71.85246108299998,71.85246108299998,71.85246108299998,77.07484683299981,77.07484683299981,80.97881816600011,None,0,,reldom2_s016,001,2025-02-18_15h37.37.075,Where-A-Scan_AC,2022.2.5,None,
5,Second_Order,1.0,viswhere,stimulus/viswhere_stim/90-deg_dot-right_mediumslateblue.png,stimulus/viswhere_stim/90-deg_dot-left_peru.png,stimulus/viswhere_stim/150-deg_dot-left_seagreen.png,stimulus/viswhere_stim/120-deg_dot-left_mediumslateblue.png,stimulus/viswhere_stim/match_blank.png,stimulus/viswhere_stim/match_box.png,stimulus/viswhere_stim/match_yes.png,stimulus/viswhere_stim/match_no.png,2.0,Match,Line,Dot,2,5.125,0,5.125,0,5.125,0,5.125,0,0.75,0.75,1,0.5,1,2.125,1,0.5,1,2.125,0,0.0,0,0.0,0,0.0,0,0.0,0,,,,,0,6,6,6,,,,,,,,,80.97881816600011,86.10038058300006,81.45534587500015,82.45365591600012,83.07669666599986,84.07385250000016,80.97881816600011,80.97881816600011,80.99241987433345,80.97881816600011,80.97881816600011,80.97881816600011,80.99241987433345,80.97881816600011,86.10038058300006,86.89292837499988,88.97912962500004,92.86075954099988,86.89292837499988,86.89292837499988,92.01706079099995,87.34252754099998,88.34431737500017,88.97912962500004,89.98964154099986,86.89292837499988,86.89292837499988,86.86773874933354,86.89292837499988,86.89292837499988,86.89292837499988,86.86773874933354,86.89292837499988,86.89292837499988,92.01706079099995,86.89292837499988,92.01706079099995,92.08569466600011,92.86075954099988,86.89292837499988,2,1,1.296026041999994,reldom2_s016,001,2025-02-18_15h37.37.075,Where-A-Scan_AC,2022.2.5,None,
6,Second_Order,1.0,viswhere,stimulus/viswhere_stim/60-deg_dot-right_salmon.png,stimulus/viswhere_stim/150-deg_dot-right_cyan.png,stimulus/viswhere_stim/120-deg_dot-left_lightsseagreen.png,stimulus/viswhere_stim/90-deg_dot-left_goldenrod.png,stimulus/viswhere_stim/match_blank.png,stimulus/viswhere_stim/match_box.png,stimulus/viswhere_stim/match_yes.png,stimulus/viswhere_stim/match_no.png,1.0,Match,Dot,Dot,1,5.125,0,5.125,0,5.125,0,5.125,0,0.625,0.625,1,0.5,1,2.125,1,0.5,1,2.125,0,0.0,0,0.0,0,0.0,0,0.0,0,,,,,0,7,7,7,,,,,,,,,92.86075954099988,97.97718487500015,93.34548629099982,94.33564291599987,94.97127358299986,95.96873154100012,92.86075954099988,92.86075954099988,92.87398162500021,92.86075954099988,92.86075954099988,92.86075954099988,92.87398162500021,92.86075954099988,97.97718487500015,98.64966758299988,100.7247184580001,104.76987787500002,98.64966758299988,98.64966758299988,103.78887900000018,99.09343016599996,100.11119891599992,100.7247184580001,101.73012874999995,98.64966758299988,98.64966758299988,98.6241129583332,98.64966758299988,98.64966758299988,98.64966758299988,98.6241129583332,98.64966758299988,98.64966758299988,103.78887900000018,98.64966758299988,103.78887900000018,103.84961558299983,104.47461895800006,98.64966758299988,1,1,3.194728209000459,reldom2_s016,001,2025-02-18_15h37.37.075,Where-A-Scan_AC,2022.2.5,None,
0,0.0,None,fixation,stimulus/viswhere_stim/blank_white.png,stimulus/viswhere_stim/blank_white.png,stimulus/audwhere_stim/blank_white.png,stimulus/audwhere_stim/blank_white.png,stimulus/viswhere_stim/blank_white.png,stimulus/viswhere_stim/blank_white.png,stimulus/viswhere_stim/blank_white.png,stimulus/viswhere_stim/blank_white.png,0.0,0.0,0.0,0.0,0,0.0,0,0.0,0,0.0,0,0.0,0,0.0,0.0,0,0.0,0,0.0,0,0.0,0,0.0,0,0.0,0,0.0,0,0.0,0,0.0,8,,,,,0,8,8,8,,,,,,,,,104.76987787500002,104.76987787500002,104.76987787500002,104.76987787500002,104.76987787500002,104.76987787500002,104.76987787500002,104.76987787500002,104.67081837433336,104.76987787500002,104.76987787500002,104.76987787500002,104.67081837433336,104.76987787500002,104.76987787500002,104.76987787500002,104.76987787500002,104.76987787500002,104.76987787500002,104.76987787500002,104.76987787500002,104.76987787500002,104.76987787500002,104.76987787500002,104.76987787500002,104.76987787500002,104.76987787500002,104.72081837433336,104.76987787500002,104.76987787500002,104.76987787500002,104.72081837433336,104.76987787500002,104.76987787500002,104.76987787500002,104.76987787500002,104.76987787500002,109.96685458299999,109.96685458299999,112.9701816249999,None,0,,reldom2_s016,001,2025-02-18_15h37.37.075,Where-A-Scan_AC,2022.2.5,None,
7,First_Order,2.0,viswhere,stimulus/viswhere_stim/blank_white.png,stimulus/viswhere_stim/blank_white.png,stimulus/viswhere_stim/30-deg_dot-right_cyan.png,stimulus/viswhere_stim/30-deg_dot-left_cyan.png,stimulus/viswhere_stim/blank_white.png,stimulus/viswhere_stim/line_box.png,stimulus/viswhere_stim/line_yes.png,stimulus/viswhere_stim/line_no.png,None,Line,None,Line,1,0.0,0,5.125,0,5.125,0,5.125,0,0.0,0.625,0,0.0,0,0.0,1,0.5,1,2.125,0,0.0,0,0.0,0,0.0,0,0.0,0,,,,,0,9,9,9,,,,,,,,,112.9701816249999,112.9701816249999,112.9701816249999,112.9701816249999,112.9701816249999,112.9701816249999,112.9701816249999,112.9701816249999,112.9504313746667,112.9701816249999,112.9701816249999,112.9701816249999,112.9504313746667,112.9701816249999,112.9701816249999,112.9701816249999,115.07384550000006,119.03522470799999,112.9701816249999,112.9701816249999,118.10623616600014,113.45000004099984,114.46421333299986,115.07384550000006,116.07667300000003,112.9701816249999,112.9701816249999,112.9504313746667,112.9701816249999,112.9701816249999,112.9701816249999,112.9504313746667,112.9701816249999,112.9701816249999,118.10623616600014,112.9701816249999,118.10623616600014,118.19009874999983,118.82029570800023,112.9701816249999,2,0,0.9239188760002435,reldom2_s016,001,2025-02-18_15h37.37.075,Where-A-Scan_AC,2022.2.5,None,
8,First_Order,2.0,viswhere,stimulus/viswhere_stim/blank_white.png,stimulus/viswhere_stim/blank_white.png,stimulus/viswhere_stim/60-deg_dot-right_slateblue.png,stimulus/viswhere_stim/60-deg_dot-left_goldenrod.png,stimulus/viswhere_stim/blank_white.png,stimulus/viswhere_stim/dot_box.png,stimulus/viswhere_stim/dot_yes.png,stimulus/viswhere_stim/dot_no.png,None,Dot,None,Line,2,0.0,0,5.125,0,5.125,0,5.125,0,0.0,0.625,0,0.0,0,0.0,1,0.5,1,2.125,0,0.0,0,0.0,0,0.0,0,0.0,0,,,,,0,10,10,10,,,,,,,,,119.03522470799999,119.03522470799999,119.03522470799999,119.03522470799999,119.03522470799999,119.03522470799999,119.03522470799999,119.03522470799999,119.01409441633344,119.03522470799999,119.03522470799999,119.03522470799999,119.01409441633344,119.03522470799999,119.03522470799999,119.03522470799999,121.1351450000002,125.12232945799997,119.03522470799999,119.03522470799999,124.17446920800012,119.51556158299991,120.5259840409999,121.1351450000002,122.15283345800026,119.03522470799999,119.03522470799999,119.0307610830001,119.03522470799999,119.03522470799999,119.03522470799999,119.0307610830001,119.03522470799999,119.03522470799999,124.17446920800012,119.03522470799999,124.17446920800012,124.25696341599996,124.8881141249999,119.03522470799999,2,1,0.796670417000314,reldom2_s016,001,2025-02-18_15h37.37.075,Where-A-Scan_AC,2022.2.5,None,
9,First_Order,2.0,viswhere,stimulus/viswhere_stim/blank_white.png,stimulus/viswhere_stim/blank_white.png,stimulus/viswhere_stim/90-deg_dot-right_cyan.png,stimulus/viswhere_stim/60-deg_dot-right_slateblue.png,stimulus/viswhere_stim/blank_white.png,stimulus/viswhere_stim/dot_box.png,stimulus/viswhere_stim/dot_yes.png,stimulus/viswhere_stim/dot_no.png,None,Dot,None,Dot,1,0.0,0,5.125,0,5.125,0,5.125,0,0.0,0.625,0,0.0,0,0.0,1,0.5,1,2.125,0,0.0,0,0.0,0,0.0,0,0.0,0,,,,,0,11,11,11,,,,,,,,,125.12232945799997,125.12232945799997,125.12232945799997,125.12232945799997,125.12232945799997,125.12232945799997,125.12232945799997,125.12232945799997,125.10135437433321,125.12232945799997,125.12232945799997,125.12232945799997,125.10135437433321,125.12232945799997,125.12232945799997,125.12232945799997,127.22515079100003,131.19513899999993,125.12232945799997,125.12232945799997,130.25475733299982,125.60131870800024,126.61348499999986,127.22515079100003,128.24327354100024,125.12232945799997,125.12232945799997,125.11802104099988,125.12232945799997,125.12232945799997,125.12232945799997,125.11802104099988,125.12232945799997,125.12232945799997,130.25475733299982,125.12232945799997,130.25475733299982,130.3514811250002,130.97859404100018,125.12232945799997,1,1,1.085926959000517,reldom2_s016,001,2025-02-18_15h37.37.075,Where-A-Scan_AC,2022.2.5,None,
10,First_Order,2.0,viswhere,stimulus/viswhere_stim/blank_white.png,stimulus/viswhere_stim/blank_white.png,stimulus/viswhere_stim/60-deg_dot-left_mediumslateblue.png,stimulus/viswhere_stim/150-deg_dot-left_peru.png,stimulus/viswhere_stim/blank_white.png,stimulus/viswhere_stim/dot_box.png,stimulus/viswhere_stim/dot_yes.png,stimulus/viswhere_stim/dot_no.png,None,Dot,None,Dot,1,0.0,0,5.125,0,5.125,0,5.125,0,0.0,0.625,0,0.0,0,0.0,1,0.5,1,2.125,0,0.0,0,0.0,0,0.0,0,0.0,0,,,,,0,12,12,12,,,,,,,,,131.19513899999993,131.19513899999993,131.19513899999993,131.19513899999993,131.19513899999993,131.19513899999993,131.19513899999993,131.19513899999993,131.17213970833322,131.19513899999993,131.19513899999993,131.19513899999993,131.17213970833322,131.19513899999993,131.19513899999993,131.19513899999993,133.30470204099993,137.34099429100024,131.19513899999993,131.19513899999993,136.3242203750001,131.67458970799998,132.69079766599998,133.30470204099993,134.32500612500007,131.19513899999993,131.19513899999993,131.1888063749999,131.19513899999993,131.19513899999993,131.19513899999993,131.1888063749999,131.19513899999993,131.19513899999993,136.3242203750001,131.19513899999993,136.3242203750001,136.42165987499993,137.04804270800014,131.19513899999993,2,0,1.2971640840000873,reldom2_s016,001,2025-02-18_15h37.37.075,Where-A-Scan_AC,2022.2.5,None,
0,0.0,None,fixation,stimulus/viswhere_stim/blank_white.png,stimulus/viswhere_stim/blank_white.png,stimulus/audwhere_stim/blank_white.png,stimulus/audwhere_stim/blank_white.png,stimulus/viswhere_stim/blank_white.png,stimulus/viswhere_stim/blank_white.png,stimulus/viswhere_stim/blank_white.png,stimulus/viswhere_stim/blank_white.png,0.0,0.0,0.0,0.0,0,0.0,0,0.0,0,0.0,0,0.0,0,0.0,0.0,0,0.0,0,0.0,0,0.0,0,0.0,0,0.0,0,0.0,0,0.0,0,0.0,10,,,,,0,13,13,13,,,,,,,,,137.34099429100024,137.34099429100024,137.34099429100024,137.34099429100024,137.34099429100024,137.34099429100024,137.34099429100024,137.34099429100024,137.2432858743335,137.34099429100024,137.34099429100024,137.34099429100024,137.2432858743335,137.34099429100024,137.34099429100024,137.34099429100024,137.34099429100024,137.34099429100024,137.34099429100024,137.34099429100024,137.34099429100024,137.34099429100024,137.34099429100024,137.34099429100024,137.34099429100024,137.34099429100024,137.34099429100024,137.29328587433352,137.34099429100024,137.34099429100024,137.34099429100024,137.29328587433352,137.34099429100024,137.34099429100024,137.34099429100024,137.34099429100024,137.34099429100024,142.52491866599985,142.52491866599985,147.45994620800002,None,0,,reldom2_s016,001,2025-02-18_15h37.37.075,Where-A-Scan_AC,2022.2.5,None,
11,Second_Order,2.0,viswhere,stimulus/viswhere_stim/120-deg_dot-right_turquoise.png,stimulus/viswhere_stim/120-deg_dot-left_goldenrod.png,stimulus/viswhere_stim/60-deg_dot-left_turquoise.png,stimulus/viswhere_stim/150-deg_dot-left_seagreen.png,stimulus/viswhere_stim/match_blank.png,stimulus/viswhere_stim/match_box.png,stimulus/viswhere_stim/match_yes.png,stimulus/viswhere_stim/match_no.png,2.0,Match,Line,Dot,2,5.125,0,5.125,0,5.125,0,5.125,0,0.75,0.75,1,0.5,1,2.125,1,0.5,1,2.125,0,0.0,0,0.0,0,0.0,0,0.0,0,,,,,0,14,14,14,,,,,,,,,147.45994620800002,152.58229545799986,147.94177445800005,148.94039329099996,149.56391937499984,150.56104995800024,147.45994620800002,147.45994620800002,147.4734854583336,147.45994620800002,147.45994620800002,147.45994620800002,147.4734854583336,147.45994620800002,152.58229545799986,153.3786292499999,155.44696508300012,159.31636145799985,153.3786292499999,153.3786292499999,158.5021471250002,153.8257753329999,154.82878708299995,155.44696508300012,156.454136458,153.3786292499999,153.3786292499999,153.36769750000013,153.3786292499999,153.3786292499999,153.3786292499999,153.36769750000013,153.3786292499999,153.3786292499999,158.5021471250002,153.3786292499999,158.5021471250002,158.572982958,159.35333612500017,153.3786292499999,2,1,2.919950957999845,reldom2_s016,001,2025-02-18_15h37.37.075,Where-A-Scan_AC,2022.2.5,None,
12,Second_Order,2.0,viswhere,stimulus/viswhere_stim/30-deg_dot-right_mediumslateblue.png,stimulus/viswhere_stim/30-deg_dot-left_seagreen.png,stimulus/viswhere_stim/120-deg_dot-right_goldenrod.png,stimulus/viswhere_stim/120-deg_dot-left_salmon.png,stimulus/viswhere_stim/match_blank.png,stimulus/viswhere_stim/match_box.png,stimulus/viswhere_stim/match_yes.png,stimulus/viswhere_stim/match_no.png,1.0,Match,Line,Line,1,5.125,0,5.125,0,5.125,0,5.125,0,0.625,0.625,1,0.5,1,2.125,1,0.5,1,2.125,0,0.0,0,0.0,0,0.0,0,0.0,0,,,,,0,15,15,15,,,,,,,,,159.35333612500017,164.47669025000005,159.83602545800022,160.8219260830001,161.45684504100018,162.45538395799986,159.35333612500017,159.35333612500017,159.36636145799986,159.35333612500017,159.35333612500017,159.35333612500017,159.36636145799986,159.35333612500017,164.47669025000005,165.1524867080002,167.22402995799985,171.27544933299987,165.1524867080002,165.1524867080002,170.27493320800022,165.61581104100014,166.62970912499986,167.22402995799985,168.24091829100007,165.1524867080002,165.1524867080002,165.12770858333357,165.1524867080002,165.1524867080002,165.1524867080002,165.12770858333357,165.1524867080002,165.1524867080002,170.27493320800022,165.1524867080002,170.27493320800022,170.343559208,170.97609354099995,165.1524867080002,2,0,1.273217874999773,reldom2_s016,001,2025-02-18_15h37.37.075,Where-A-Scan_AC,2022.2.5,None,
0,0.0,None,fixation,stimulus/viswhere_stim/blank_white.png,stimulus/viswhere_stim/blank_white.png,stimulus/audwhere_stim/blank_white.png,stimulus/audwhere_stim/blank_white.png,stimulus/viswhere_stim/blank_white.png,stimulus/viswhere_stim/blank_white.png,stimulus/viswhere_stim/blank_white.png,stimulus/viswhere_stim/blank_white.png,0.0,0.0,0.0,0.0,0,0.0,0,0.0,0,0.0,0,0.0,0,0.0,0.0,0,0.0,0,0.0,0,0.0,0,0.0,0,0.0,0,0.0,0,0.0,0,0.0,8,,,,,0,16,16,16,,,,,,,,,171.27544933299987,171.27544933299987,171.27544933299987,171.27544933299987,171.27544933299987,171.27544933299987,171.27544933299987,171.27544933299987,171.17442629133333,171.27544933299987,171.27544933299987,171.27544933299987,171.17442629133333,171.27544933299987,171.27544933299987,171.27544933299987,171.27544933299987,171.27544933299987,171.27544933299987,171.27544933299987,171.27544933299987,171.27544933299987,171.27544933299987,171.27544933299987,171.27544933299987,171.27544933299987,171.27544933299987,171.22442629133334,171.27544933299987,171.27544933299987,171.27544933299987,171.22442629133334,171.27544933299987,171.27544933299987,171.27544933299987,171.27544933299987,171.27544933299987,176.50041258300007,176.50041258300007,179.51282166600004,None,0,,reldom2_s016,001,2025-02-18_15h37.37.075,Where-A-Scan_AC,2022.2.5,None,
13,First_Order,3.0,audwhere,stimulus/audwhere_stim/dummy.wav,stimulus/audwhere_stim/dummy.wav,stimulus/audwhere_stim/right_away_290h.wav,stimulus/audwhere_stim/right_toward_280h.wav,stimulus/audwhere_stim/blank_white.png,stimulus/audwhere_stim/side_box.png,stimulus/audwhere_stim/side_yes.png,stimulus/audwhere_stim/side_no.png,None,Side,None,Side,1,0.0,0,5.125,0,5.125,0,5.125,0,0.0,0.625,0,0.0,0,0.0,0,0.0,0,0.0,0,0.0,0,0.0,1,0.5,1,2.125,0,,,,,0,17,17,17,,,,,,,,,179.51282166600004,179.51282166600004,179.51282166600004,179.51282166600004,179.51282166600004,179.51282166600004,179.51282166600004,179.51282166600004,179.43910812466692,179.51282166600004,179.51282166600004,179.51282166600004,179.43910812466692,179.51282166600004,179.51282166600004,179.51282166600004,181.60225812499993,,179.51282166600004,179.51282166600004,184.6663157500002,179.51282166600004,179.51282166600004,179.51282166600004,179.51282166600004,179.97646537499986,181.0452076659999,179.94618108266675,,181.60225812499993,182.6704776659999,181.57250624966653,,179.51282166600004,184.6663157500002,179.51282166600004,184.6663157500002,184.70701016600015,185.36143029100003,179.51282166600004,1,1,1.6811579999998685,reldom2_s016,001,2025-02-18_15h37.37.075,Where-A-Scan_AC,2022.2.5,None,
14,First_Order,3.0,audwhere,stimulus/audwhere_stim/dummy.wav,stimulus/audwhere_stim/dummy.wav,stimulus/audwhere_stim/right_away_300h.wav,stimulus/audwhere_stim/left_away_300h.wav,stimulus/audwhere_stim/blank_white.png,stimulus/audwhere_stim/side_box.png,stimulus/audwhere_stim/side_yes.png,stimulus/audwhere_stim/side_no.png,None,Side,None,Direction,2,0.0,0,5.125,0,5.125,0,5.125,0,0.0,0.625,0,0.0,0,0.0,0,0.0,0,0.0,0,0.0,0,0.0,1,0.5,1,2.125,0,,,,,0,18,18,18,,,,,,,,,185.61654350000026,185.61654350000026,185.61654350000026,185.61654350000026,185.61654350000026,185.61654350000026,185.61654350000026,185.61654350000026,185.5349982493332,185.61654350000026,185.61654350000026,185.61654350000026,185.5349982493332,185.61654350000026,185.61654350000026,185.61654350000026,187.70141724999985,,185.61654350000026,185.61654350000026,190.76568658299993,185.61654350000026,185.61654350000026,185.61654350000026,185.61654350000026,186.07983533300012,187.14528445799988,186.04986695766664,,187.70141724999985,188.77217433299984,187.67193141666692,,185.61654350000026,190.76568658299993,185.61654350000026,190.76568658299993,190.80707270799985,191.46130875000017,185.61654350000026,2,1,0.7848422920001212,reldom2_s016,001,2025-02-18_15h37.37.075,Where-A-Scan_AC,2022.2.5,None,
15,First_Order,3.0,audwhere,stimulus/audwhere_stim/dummy.wav,stimulus/audwhere_stim/dummy.wav,stimulus/audwhere_stim/left_away_290h.wav,stimulus/audwhere_stim/right_away_280h.wav,stimulus/audwhere_stim/blank_white.png,stimulus/audwhere_stim/direction_box.png,stimulus/audwhere_stim/direction_yes.png,stimulus/audwhere_stim/direction_no.png,None,Direction,None,Direction,1,0.0,0,5.125,0,5.125,0,5.125,0,0.0,0.625,0,0.0,0,0.0,0,0.0,0,0.0,0,0.0,0,0.0,1,0.5,1,2.125,0,,,,,0,19,19,19,,,,,,,,,191.71455650000007,191.71455650000007,191.71455650000007,191.71455650000007,191.71455650000007,191.71455650000007,191.71455650000007,191.71455650000007,191.63540904133347,191.71455650000007,191.71455650000007,191.71455650000007,191.63540904133347,191.71455650000007,191.71455650000007,191.71455650000007,193.8155575410001,,191.71455650000007,191.71455650000007,196.89745816599998,191.71455650000007,191.71455650000007,191.71455650000007,191.71455650000007,192.18159458299988,193.2570868749999,192.15124549966666,,193.8155575410001,194.89045558299995,193.78527845766692,,191.71455650000007,196.89745816599998,191.71455650000007,196.89745816599998,196.93878087500025,197.59743033299992,191.71455650000007,1,1,1.5439563330000965,reldom2_s016,001,2025-02-18_15h37.37.075,Where-A-Scan_AC,2022.2.5,None,
16,First_Order,3.0,audwhere,stimulus/audwhere_stim/dummy.wav,stimulus/audwhere_stim/dummy.wav,stimulus/audwhere_stim/right_toward_270h.wav,stimulus/audwhere_stim/right_away_300h.wav,stimulus/audwhere_stim/blank_white.png,stimulus/audwhere_stim/direction_box.png,stimulus/audwhere_stim/direction_yes.png,stimulus/audwhere_stim/direction_no.png,None,Direction,None,Side,2,0.0,0,5.125,0,5.125,0,5.125,0,0.0,0.625,0,0.0,0,0.0,0,0.0,0,0.0,0,0.0,0,0.0,1,0.5,1,2.125,0,,,,,0,20,20,20,,,,,,,,,197.81017475,197.81017475,197.81017475,197.81017475,197.81017475,197.81017475,197.81017475,197.81017475,197.73076366633327,197.81017475,197.81017475,197.81017475,197.73076366633327,197.81017475,197.81017475,197.81017475,199.90972083299994,,197.81017475,197.81017475,202.9922127499999,197.81017475,197.81017475,197.81017475,197.81017475,198.277825958,199.35160450000012,198.24730924966687,,199.90972083299994,200.93918058300005,199.8795066666669,,197.81017475,202.9922127499999,197.81017475,202.9922127499999,203.03326137500017,203.68961679099993,197.81017475,2,1,1.1320724580000388,reldom2_s016,001,2025-02-18_15h37.37.075,Where-A-Scan_AC,2022.2.5,None,
0,0.0,None,fixation,stimulus/viswhere_stim/blank_white.png,stimulus/viswhere_stim/blank_white.png,stimulus/audwhere_stim/blank_white.png,stimulus/audwhere_stim/blank_white.png,stimulus/viswhere_stim/blank_white.png,stimulus/viswhere_stim/blank_white.png,stimulus/viswhere_stim/blank_white.png,stimulus/viswhere_stim/blank_white.png,0.0,0.0,0.0,0.0,0,0.0,0,0.0,0,0.0,0,0.0,0,0.0,0.0,0,0.0,0,0.0,0,0.0,0,0.0,0,0.0,0,0.0,0,0.0,0,0.0,9,,,,,0,21,21,21,,,,,,,,,203.92362941600004,203.92362941600004,203.92362941600004,203.92362941600004,203.92362941600004,203.92362941600004,203.92362941600004,203.92362941600004,203.8229501243333,203.92362941600004,203.92362941600004,203.92362941600004,203.8229501243333,203.92362941600004,203.92362941600004,203.92362941600004,203.92362941600004,203.92362941600004,203.92362941600004,203.92362941600004,203.92362941600004,203.92362941600004,203.92362941600004,203.92362941600004,203.92362941600004,203.92362941600004,203.92362941600004,203.87295012433327,203.92362941600004,203.92362941600004,203.92362941600004,203.87295012433327,203.92362941600004,203.92362941600004,203.92362941600004,203.92362941600004,203.92362941600004,209.12261408299992,209.12261408299992,213.07869633300015,None,0,,reldom2_s016,001,2025-02-18_15h37.37.075,Where-A-Scan_AC,2022.2.5,None,
17,Second_Order,3.0,audwhere,stimulus/audwhere_stim/right_away_270h.wav,stimulus/audwhere_stim/left_away_270h.wav,stimulus/audwhere_stim/right_toward_280h.wav,stimulus/audwhere_stim/left_toward_280h.wav,stimulus/viswhere_stim/match_blank.png,stimulus/audwhere_stim/match_box.png,stimulus/viswhere_stim/match_yes.png,stimulus/viswhere_stim/match_no.png,1.0,Match,Direction,Direction,1,5.125,0,5.125,0,5.125,0,5.125,0,0.75,0.75,0,0.0,0,0.0,0,0.0,0,0.0,1,0.5,1,2.125,1,0.5,1,2.125,0,,,,,0,22,22,22,,,,,,,,,213.07869633300015,218.2007140830001,213.07869633300015,213.07869633300015,213.07869633300015,213.07869633300015,213.52718166600016,214.52563366599998,213.5398553746666,,215.16031345800002,216.14950891599983,215.16353212466655,,218.2007140830001,219.05571733299985,221.09474362499986,,219.05571733299985,219.05571733299985,224.2088037909998,219.05571733299985,219.05571733299985,219.05571733299985,219.05571733299985,219.47203183300007,220.53855912500012,219.44303541666685,,221.09474362499986,222.16681225000002,221.06463770766666,,219.05571733299985,224.2088037909998,219.05571733299985,224.2088037909998,224.24927737500002,,219.05571733299985,1,1,1.5043492500003595,reldom2_s016,001,2025-02-18_15h37.37.075,Where-A-Scan_AC,2022.2.5,None,
18,Second_Order,3.0,audwhere,stimulus/audwhere_stim/left_away_300h.wav,stimulus/audwhere_stim/right_away_290h.wav,stimulus/audwhere_stim/left_toward_300h.wav,stimulus/audwhere_stim/left_away_290h.wav,stimulus/viswhere_stim/match_blank.png,stimulus/audwhere_stim/match_box.png,stimulus/viswhere_stim/match_yes.png,stimulus/viswhere_stim/match_no.png,2.0,Match,Direction,Side,2,5.125,0,5.125,0,5.125,0,5.125,0,0.625,0.625,0,0.0,0,0.0,0,0.0,0,0.0,1,0.5,1,2.125,1,0.5,1,2.125,0,,,,,0,23,23,23,,,,,,,,,225.0196300829998,230.13286333299993,225.0196300829998,225.0196300829998,225.0196300829998,225.0196300829998,225.47118495799987,226.46953229100018,225.48437445766675,,227.10481283299987,228.09326904099999,227.10843179166685,,230.13286333299993,230.86250166599984,232.93636874999993,,230.86250166599984,230.86250166599984,236.03507725000009,230.86250166599984,230.86250166599984,230.86250166599984,230.86250166599984,231.27859045800005,232.33814225000015,231.24835762466662,,232.93636874999993,234.002732166,232.90662254166662,,230.86250166599984,236.03507725000009,230.86250166599984,236.03507725000009,236.03507725000009,236.68662270799996,230.86250166599984,2,1,1.3079169170000569,reldom2_s016,001,2025-02-18_15h37.37.075,Where-A-Scan_AC,2022.2.5,None,
0,0.0,None,fixation,stimulus/viswhere_stim/blank_white.png,stimulus/viswhere_stim/blank_white.png,stimulus/audwhere_stim/blank_white.png,stimulus/audwhere_stim/blank_white.png,stimulus/viswhere_stim/blank_white.png,stimulus/viswhere_stim/blank_white.png,stimulus/viswhere_stim/blank_white.png,stimulus/viswhere_stim/blank_white.png,0.0,0.0,0.0,0.0,0,0.0,0,0.0,0,0.0,0,0.0,0,0.0,0.0,0,0.0,0,0.0,0,0.0,0,0.0,0,0.0,0,0.0,0,0.0,0,0.0,9,,,,,0,24,24,24,,,,,,,,,236.95951295800023,236.95951295800023,236.95951295800023,236.95951295800023,236.95951295800023,236.95951295800023,236.95951295800023,236.95951295800023,236.86050795833322,236.95951295800023,236.95951295800023,236.95951295800023,236.86050795833322,236.95951295800023,236.95951295800023,236.95951295800023,236.95951295800023,236.95951295800023,236.95951295800023,236.95951295800023,236.95951295800023,236.95951295800023,236.95951295800023,236.95951295800023,236.95951295800023,236.95951295800023,236.95951295800023,236.9105079583332,236.95951295800023,236.95951295800023,236.95951295800023,236.9105079583332,236.95951295800023,236.95951295800023,236.95951295800023,236.95951295800023,236.95951295800023,242.1864412079999,242.1864412079999,246.21691729099985,None,0,,reldom2_s016,001,2025-02-18_15h37.37.075,Where-A-Scan_AC,2022.2.5,None,
19,First_Order,4.0,audwhere,stimulus/audwhere_stim/dummy.wav,stimulus/audwhere_stim/dummy.wav,stimulus/audwhere_stim/right_away_300h.wav,stimulus/audwhere_stim/left_away_280h.wav,stimulus/audwhere_stim/blank_white.png,stimulus/audwhere_stim/direction_box.png,stimulus/audwhere_stim/direction_yes.png,stimulus/audwhere_stim/direction_no.png,None,Direction,None,Direction,1,0.0,0,5.125,0,5.125,0,5.125,0,0.0,0.625,0,0.0,0,0.0,0,0.0,0,0.0,0,0.0,0,0.0,1,0.5,1,2.125,0,,,,,0,25,25,25,,,,,,,,,246.21691729099985,246.21691729099985,246.21691729099985,246.21691729099985,246.21691729099985,246.21691729099985,246.21691729099985,246.21691729099985,246.14333783266665,246.21691729099985,246.21691729099985,246.21691729099985,246.14333783266665,246.21691729099985,246.21691729099985,246.21691729099985,248.31606008300014,252.34247995800024,246.21691729099985,246.21691729099985,251.39218295799992,246.21691729099985,246.21691729099985,246.21691729099985,246.21691729099985,246.6827480830002,247.75768375000007,246.65284291666674,,248.31606008300014,249.39025949999996,248.2859685826668,,246.21691729099985,251.39218295799992,246.21691729099985,251.39218295799992,251.4334301660001,252.08954104099985,246.21691729099985,2,0,1.9610486249998758,reldom2_s016,001,2025-02-18_15h37.37.075,Where-A-Scan_AC,2022.2.5,None,
20,First_Order,4.0,audwhere,stimulus/audwhere_stim/dummy.wav,stimulus/audwhere_stim/dummy.wav,stimulus/audwhere_stim/right_toward_270h.wav,stimulus/audwhere_stim/right_away_280h.wav,stimulus/audwhere_stim/blank_white.png,stimulus/audwhere_stim/direction_box.png,stimulus/audwhere_stim/direction_yes.png,stimulus/audwhere_stim/direction_no.png,None,Direction,None,Side,2,0.0,0,5.125,0,5.125,0,5.125,0,0.0,0.625,0,0.0,0,0.0,0,0.0,0,0.0,0,0.0,0,0.0,1,0.5,1,2.125,0,,,,,0,26,26,26,,,,,,,,,252.34247995800024,252.34247995800024,252.34247995800024,252.34247995800024,252.34247995800024,252.34247995800024,252.34247995800024,252.34247995800024,252.26309358333324,252.34247995800024,252.34247995800024,252.34247995800024,252.26309358333324,252.34247995800024,252.34247995800024,252.34247995800024,254.4415349159999,258.4708015000001,252.34247995800024,252.34247995800024,257.52016841600016,252.34247995800024,252.34247995800024,252.34247995800024,252.34247995800024,252.80865541599997,253.88220883299982,252.7786732076668,,254.4415349159999,255.5172093330002,254.41129012466652,,252.34247995800024,257.52016841600016,252.34247995800024,257.52016841600016,257.56132824999986,258.21732195799996,252.34247995800024,2,1,1.2148354170003586,reldom2_s016,001,2025-02-18_15h37.37.075,Where-A-Scan_AC,2022.2.5,None,
21,First_Order,4.0,audwhere,stimulus/audwhere_stim/dummy.wav,stimulus/audwhere_stim/dummy.wav,stimulus/audwhere_stim/left_toward_300h.wav,stimulus/audwhere_stim/left_away_300h.wav,stimulus/audwhere_stim/blank_white.png,stimulus/audwhere_stim/side_box.png,stimulus/audwhere_stim/side_yes.png,stimulus/audwhere_stim/side_no.png,None,Side,None,Side,1,0.0,0,5.125,0,5.125,0,5.125,0,0.0,0.625,0,0.0,0,0.0,0,0.0,0,0.0,0,0.0,0,0.0,1,0.5,1,2.125,0,,,,,0,27,27,27,,,,,,,,,258.4708015000001,258.4708015000001,258.4708015000001,258.4708015000001,258.4708015000001,258.4708015000001,258.4708015000001,258.4708015000001,258.39166916633314,258.4708015000001,258.4708015000001,258.4708015000001,258.39166916633314,258.4708015000001,258.4708015000001,258.4708015000001,260.560771166,,258.4708015000001,258.4708015000001,263.6275398749999,258.4708015000001,258.4708015000001,258.4708015000001,258.4708015000001,258.93540129099983,260.00458266600026,258.9054374166665,,260.560771166,261.63575108299983,260.5305596666665,,258.4708015000001,263.6275398749999,258.4708015000001,263.6275398749999,263.668682,264.32279133300017,258.4708015000001,1,1,0.6804500010002812,reldom2_s016,001,2025-02-18_15h37.37.075,Where-A-Scan_AC,2022.2.5,None,
22,First_Order,4.0,audwhere,stimulus/audwhere_stim/dummy.wav,stimulus/audwhere_stim/dummy.wav,stimulus/audwhere_stim/right_away_270h.wav,stimulus/audwhere_stim/left_away_300h.wav,stimulus/audwhere_stim/blank_white.png,stimulus/audwhere_stim/side_box.png,stimulus/audwhere_stim/side_yes.png,stimulus/audwhere_stim/side_no.png,None,Side,None,Direction,2,0.0,0,5.125,0,5.125,0,5.125,0,0.0,0.625,0,0.0,0,0.0,0,0.0,0,0.0,0,0.0,0,0.0,1,0.5,1,2.125,0,,,,,0,28,28,28,,,,,,,,,264.5780991249999,264.5780991249999,264.5780991249999,264.5780991249999,264.5780991249999,264.5780991249999,264.5780991249999,264.5780991249999,264.49637012433334,264.5780991249999,264.5780991249999,264.5780991249999,264.49637012433334,264.5780991249999,264.5780991249999,264.5780991249999,266.6659240409999,,264.5780991249999,264.5780991249999,269.73331025000016,264.5780991249999,264.5780991249999,264.5780991249999,264.5780991249999,265.0410314579999,266.1103969159999,265.01138279166685,,266.6659240409999,267.73849299999983,266.63652837466657,,264.5780991249999,269.73331025000016,264.5780991249999,269.73331025000016,269.7745884579999,270.42935587500006,264.5780991249999,2,1,1.077611084000182,reldom2_s016,001,2025-02-18_15h37.37.075,Where-A-Scan_AC,2022.2.5,None,
0,0.0,None,fixation,stimulus/viswhere_stim/blank_white.png,stimulus/viswhere_stim/blank_white.png,stimulus/audwhere_stim/blank_white.png,stimulus/audwhere_stim/blank_white.png,stimulus/viswhere_stim/blank_white.png,stimulus/viswhere_stim/blank_white.png,stimulus/viswhere_stim/blank_white.png,stimulus/viswhere_stim/blank_white.png,0.0,0.0,0.0,0.0,0,0.0,0,0.0,0,0.0,0,0.0,0,0.0,0.0,0,0.0,0,0.0,0,0.0,0,0.0,0,0.0,0,0.0,0,0.0,0,0.0,9,,,,,0,29,29,29,,,,,,,,,270.70428108299984,270.70428108299984,270.70428108299984,270.70428108299984,270.70428108299984,270.70428108299984,270.70428108299984,270.70428108299984,270.60365691633353,270.70428108299984,270.70428108299984,270.70428108299984,270.60365691633353,270.70428108299984,270.70428108299984,270.70428108299984,270.70428108299984,270.70428108299984,270.70428108299984,270.70428108299984,270.70428108299984,270.70428108299984,270.70428108299984,270.70428108299984,270.70428108299984,270.70428108299984,270.70428108299984,270.65365691633355,270.70428108299984,270.70428108299984,270.70428108299984,270.65365691633355,270.70428108299984,270.70428108299984,270.70428108299984,270.70428108299984,270.70428108299984,275.8982768330002,275.8982768330002,279.84420899999986,None,0,,reldom2_s016,001,2025-02-18_15h37.37.075,Where-A-Scan_AC,2022.2.5,None,
23,Second_Order,4.0,audwhere,stimulus/audwhere_stim/left_away_270h.wav,stimulus/audwhere_stim/left_toward_290h.wav,stimulus/audwhere_stim/left_toward_300h.wav,stimulus/audwhere_stim/right_toward_280h.wav,stimulus/viswhere_stim/match_blank.png,stimulus/audwhere_stim/match_box.png,stimulus/viswhere_stim/match_yes.png,stimulus/viswhere_stim/match_no.png,2.0,Match,Side,Direction,2,5.125,0,5.125,0,5.125,0,5.125,0,0.75,0.75,0,0.0,0,0.0,0,0.0,0,0.0,1,0.5,1,2.125,1,0.5,1,2.125,0,,,,,0,30,30,30,,,,,,,,,279.84420899999986,284.9596905409999,279.84420899999986,279.84420899999986,279.84420899999986,279.84420899999986,280.29763758299987,281.2965300830001,280.3108357916665,,281.91936391599984,282.91729175,281.9312741666665,,284.9596905409999,285.8086800830001,287.8930805,291.8090414160001,285.8086800830001,285.8086800830001,290.957553791,285.8086800830001,285.8086800830001,285.8086800830001,285.8086800830001,286.2252141250001,287.2915682500002,286.19524191666665,,287.8930805,288.96645908300025,287.8630391246668,,285.8086800830001,290.957553791,285.8086800830001,290.957553791,290.9985194159999,,285.8086800830001,2,1,0.6944992090002415,reldom2_s016,001,2025-02-18_15h37.37.075,Where-A-Scan_AC,2022.2.5,None,
24,Second_Order,4.0,audwhere,stimulus/audwhere_stim/right_toward_290h.wav,stimulus/audwhere_stim/right_away_290h.wav,stimulus/audwhere_stim/left_away_300h.wav,stimulus/audwhere_stim/left_toward_270h.wav,stimulus/viswhere_stim/match_blank.png,stimulus/audwhere_stim/match_box.png,stimulus/viswhere_stim/match_yes.png,stimulus/viswhere_stim/match_no.png,1.0,Match,Side,Side,1,5.125,0,5.125,0,5.125,0,5.125,0,0.625,0.625,0,0.0,0,0.0,0,0.0,0,0.0,1,0.5,1,2.125,1,0.5,1,2.125,0,,,,,0,31,31,31,,,,,,,,,291.8090414160001,296.93251020800017,291.8090414160001,291.8090414160001,291.8090414160001,291.8090414160001,292.25676062499997,293.24362516600013,292.27149408266655,,293.8927597080001,294.88097508300007,293.8959683326668,,296.93251020800017,297.66883287500013,299.745225958,303.77196329100025,297.66883287500013,297.66883287500013,302.8436051660001,297.66883287500013,297.66883287500013,297.66883287500013,297.66883287500013,298.08169399999997,299.14420974999985,298.0522824166667,,299.745225958,300.8084587080002,299.7152534576669,,297.66883287500013,302.8436051660001,297.66883287500013,302.8436051660001,302.8436051660001,303.49742883299996,297.66883287500013,1,1,1.3256530419998853,reldom2_s016,001,2025-02-18_15h37.37.075,Where-A-Scan_AC,2022.2.5,None,
0,0.0,None,fixation,stimulus/viswhere_stim/blank_white.png,stimulus/viswhere_stim/blank_white.png,stimulus/audwhere_stim/blank_white.png,stimulus/audwhere_stim/blank_white.png,stimulus/viswhere_stim/blank_white.png,stimulus/viswhere_stim/blank_white.png,stimulus/viswhere_stim/blank_white.png,stimulus/viswhere_stim/blank_white.png,0.0,0.0,0.0,0.0,0,0.0,0,0.0,0,0.0,0,0.0,0,0.0,0.0,0,0.0,0,0.0,0,0.0,0,0.0,0,0.0,0,0.0,0,0.0,0,0.0,10,,,,,0,32,32,32,,,,,,,,,303.77196329100025,303.77196329100025,303.77196329100025,303.77196329100025,303.77196329100025,303.77196329100025,303.77196329100025,303.77196329100025,303.67149699933327,303.77196329100025,303.77196329100025,303.77196329100025,303.67149699933327,303.77196329100025,303.77196329100025,303.77196329100025,303.77196329100025,303.77196329100025,303.77196329100025,303.77196329100025,303.77196329100025,303.77196329100025,303.77196329100025,303.77196329100025,303.77196329100025,303.77196329100025,303.77196329100025,303.7214969993333,303.77196329100025,303.77196329100025,303.77196329100025,303.7214969993333,303.77196329100025,303.77196329100025,303.77196329100025,303.77196329100025,303.77196329100025,308.99670533300014,308.99670533300014,313.987502208,None,0,,reldom2_s016,001,2025-02-18_15h37.37.075,Where-A-Scan_AC,2022.2.5,None,
25,First_Order,5.0,viswhere,stimulus/viswhere_stim/blank_white.png,stimulus/viswhere_stim/blank_white.png,stimulus/viswhere_stim/120-deg_dot-right_goldenrod.png,stimulus/viswhere_stim/150-deg_dot-right_turquoise.png,stimulus/viswhere_stim/blank_white.png,stimulus/viswhere_stim/dot_box.png,stimulus/viswhere_stim/dot_yes.png,stimulus/viswhere_stim/dot_no.png,None,Dot,None,Dot,1,0.0,0,5.125,0,5.125,0,5.125,0,0.0,0.625,0,0.0,0,0.0,1,0.5,1,2.125,0,0.0,0,0.0,0,0.0,0,0.0,0,,,,,0,33,33,33,,,,,,,,,313.987502208,313.987502208,313.987502208,313.987502208,313.987502208,313.987502208,313.987502208,313.987502208,313.9655934166668,313.987502208,313.987502208,313.987502208,313.9655934166668,313.987502208,313.987502208,313.987502208,316.0993195830001,320.04665345800004,313.987502208,313.987502208,319.12086624999984,314.46902687500005,315.48712820799983,316.0993195830001,317.10332095800004,313.987502208,313.987502208,313.98226008333353,313.987502208,313.987502208,313.987502208,313.98226008333353,313.987502208,313.987502208,319.12086624999984,313.987502208,319.12086624999984,319.2048837080001,319.8316790409999,313.987502208,1,1,1.1397104590000708,reldom2_s016,001,2025-02-18_15h37.37.075,Where-A-Scan_AC,2022.2.5,None,
26,First_Order,5.0,viswhere,stimulus/viswhere_stim/blank_white.png,stimulus/viswhere_stim/blank_white.png,stimulus/viswhere_stim/90-deg_dot-right_royalblue.png,stimulus/viswhere_stim/120-deg_dot-right_seagreen.png,stimulus/viswhere_stim/blank_white.png,stimulus/viswhere_stim/line_box.png,stimulus/viswhere_stim/line_yes.png,stimulus/viswhere_stim/line_no.png,None,Line,None,Dot,2,0.0,0,5.125,0,5.125,0,5.125,0,0.0,0.625,0,0.0,0,0.0,1,0.5,1,2.125,0,0.0,0,0.0,0,0.0,0,0.0,0,,,,,0,34,34,34,,,,,,,,,320.04665345800004,320.04665345800004,320.04665345800004,320.04665345800004,320.04665345800004,320.04665345800004,320.04665345800004,320.04665345800004,320.02554774933316,320.04665345800004,320.04665345800004,320.04665345800004,320.02554774933316,320.04665345800004,320.04665345800004,320.04665345800004,322.154021416,326.11033079100025,320.04665345800004,320.04665345800004,325.1719990830002,320.525804333,321.5427225829999,322.154021416,323.1752445000002,320.04665345800004,320.04665345800004,320.0422144159998,320.04665345800004,320.04665345800004,320.04665345800004,320.0422144159998,320.04665345800004,320.04665345800004,325.1719990830002,320.04665345800004,325.1719990830002,325.26848820800024,325.8954847499999,320.04665345800004,2,1,1.4061214170001222,reldom2_s016,001,2025-02-18_15h37.37.075,Where-A-Scan_AC,2022.2.5,None,
27,First_Order,5.0,viswhere,stimulus/viswhere_stim/blank_white.png,stimulus/viswhere_stim/blank_white.png,stimulus/viswhere_stim/60-deg_dot-left_lightsseagreen.png,stimulus/viswhere_stim/60-deg_dot-right_slateblue.png,stimulus/viswhere_stim/blank_white.png,stimulus/viswhere_stim/line_box.png,stimulus/viswhere_stim/line_yes.png,stimulus/viswhere_stim/line_no.png,None,Line,None,Line,1,0.0,0,5.125,0,5.125,0,5.125,0,0.0,0.625,0,0.0,0,0.0,1,0.5,1,2.125,0,0.0,0,0.0,0,0.0,0,0.0,0,,,,,0,35,35,35,,,,,,,,,326.11033079100025,326.11033079100025,326.11033079100025,326.11033079100025,326.11033079100025,326.11033079100025,326.11033079100025,326.11033079100025,326.08952216633344,326.11033079100025,326.11033079100025,326.11033079100025,326.08952216633344,326.11033079100025,326.11033079100025,326.11033079100025,328.2119183330001,332.17052479099993,326.11033079100025,326.11033079100025,331.2445038330002,326.5885162499999,327.6018301660001,328.2119183330001,329.229266541,326.11033079100025,326.11033079100025,326.1061888330001,326.11033079100025,326.11033079100025,326.11033079100025,326.1061888330001,326.11033079100025,326.11033079100025,331.2445038330002,326.11033079100025,331.2445038330002,331.34149779100017,331.9700834999999,326.11033079100025,1,1,1.097333499999877,reldom2_s016,001,2025-02-18_15h37.37.075,Where-A-Scan_AC,2022.2.5,None,
28,First_Order,5.0,viswhere,stimulus/viswhere_stim/blank_white.png,stimulus/viswhere_stim/blank_white.png,stimulus/viswhere_stim/120-deg_dot-right_slateblue.png,stimulus/viswhere_stim/90-deg_dot-right_cyan.png,stimulus/viswhere_stim/blank_white.png,stimulus/viswhere_stim/dot_box.png,stimulus/viswhere_stim/dot_yes.png,stimulus/viswhere_stim/dot_no.png,None,Dot,None,Dot,1,0.0,0,5.125,0,5.125,0,5.125,0,0.0,0.625,0,0.0,0,0.0,1,0.5,1,2.125,0,0.0,0,0.0,0,0.0,0,0.0,0,,,,,0,36,36,36,,,,,,,,,332.17052479099993,332.17052479099993,332.17052479099993,332.17052479099993,332.17052479099993,332.17052479099993,332.17052479099993,332.17052479099993,332.1495312913333,332.17052479099993,332.17052479099993,332.17052479099993,332.1495312913333,332.17052479099993,332.17052479099993,332.17052479099993,334.27794037500007,338.305134875,332.17052479099993,332.17052479099993,337.3106143330001,332.64939370799993,333.66602012500016,334.27794037500007,335.2809806250002,332.17052479099993,332.17052479099993,332.16619795799994,332.17052479099993,332.17052479099993,332.17052479099993,332.16619795799994,332.17052479099993,332.17052479099993,337.3106143330001,332.17052479099993,337.3106143330001,337.3944060829999,338.0267080829999,332.17052479099993,1,1,0.9314440419998391,reldom2_s016,001,2025-02-18_15h37.37.075,Where-A-Scan_AC,2022.2.5,None,
0,0.0,None,fixation,stimulus/viswhere_stim/blank_white.png,stimulus/viswhere_stim/blank_white.png,stimulus/audwhere_stim/blank_white.png,stimulus/audwhere_stim/blank_white.png,stimulus/viswhere_stim/blank_white.png,stimulus/viswhere_stim/blank_white.png,stimulus/viswhere_stim/blank_white.png,stimulus/viswhere_stim/blank_white.png,0.0,0.0,0.0,0.0,0,0.0,0,0.0,0,0.0,0,0.0,0,0.0,0.0,0,0.0,0,0.0,0,0.0,0,0.0,0,0.0,0,0.0,0,0.0,0,0.0,9,,,,,0,37,37,37,,,,,,,,,338.305134875,338.305134875,338.305134875,338.305134875,338.305134875,338.305134875,338.305134875,338.305134875,338.2071957913334,338.305134875,338.305134875,338.305134875,338.2071957913334,338.305134875,338.305134875,338.305134875,338.305134875,338.305134875,338.305134875,338.305134875,338.305134875,338.305134875,338.305134875,338.305134875,338.305134875,338.305134875,338.305134875,338.2571957913334,338.305134875,338.305134875,338.305134875,338.2571957913334,338.305134875,338.305134875,338.305134875,338.305134875,338.305134875,343.5074988330002,343.5074988330002,347.43123266600014,None,0,,reldom2_s016,001,2025-02-18_15h37.37.075,Where-A-Scan_AC,2022.2.5,None,
29,Second_Order,5.0,viswhere,stimulus/viswhere_stim/150-deg_dot-right_cyan.png,stimulus/viswhere_stim/150-deg_dot-left_peru.png,stimulus/viswhere_stim/90-deg_dot-left_goldenrod.png,stimulus/viswhere_stim/90-deg_dot-right_mediumslateblue.png,stimulus/viswhere_stim/match_blank.png,stimulus/viswhere_stim/match_box.png,stimulus/viswhere_stim/match_yes.png,stimulus/viswhere_stim/match_no.png,1.0,Match,Line,Line,1,5.125,0,5.125,0,5.125,0,5.125,0,0.75,0.75,1,0.5,1,2.125,1,0.5,1,2.125,0,0.0,0,0.0,0,0.0,0,0.0,0,,,,,0,38,38,38,,,,,,,,,347.43123266600014,352.54906808299984,347.90438779099986,348.90277937500014,349.53747812500023,350.5257947079999,347.43123266600014,347.43123266600014,347.4458849163335,347.43123266600014,347.43123266600014,347.43123266600014,347.4458849163335,347.43123266600014,352.54906808299984,353.3408599160002,355.4111325409999,359.31517399999984,353.3408599160002,353.3408599160002,358.469268458,353.7892540409998,354.79314112500015,355.4111325409999,356.42019866600003,353.3408599160002,353.3408599160002,353.3159896663333,353.3408599160002,353.3408599160002,353.3408599160002,353.3159896663333,353.3408599160002,353.3408599160002,358.469268458,353.3408599160002,358.469268458,358.5379821659999,359.31517399999984,353.3408599160002,1,1,0.9535052080000241,reldom2_s016,001,2025-02-18_15h37.37.075,Where-A-Scan_AC,2022.2.5,None,
30,Second_Order,5.0,viswhere,stimulus/viswhere_stim/90-deg_dot-right_royalblue.png,stimulus/viswhere_stim/60-deg_dot-right_peru.png,stimulus/viswhere_stim/30-deg_dot-left_slateblue.png,stimulus/viswhere_stim/90-deg_dot-left_seagreen.png,stimulus/viswhere_stim/match_blank.png,stimulus/viswhere_stim/match_box.png,stimulus/viswhere_stim/match_yes.png,stimulus/viswhere_stim/match_no.png,1.0,Match,Dot,Dot,1,5.125,0,5.125,0,5.125,0,5.125,0,0.625,0.625,1,0.5,1,2.125,1,0.5,1,2.125,0,0.0,0,0.0,0,0.0,0,0.0,0,,,,,0,39,39,39,,,,,,,,,359.31517399999984,364.43859629100007,359.7979875830001,360.7968578750001,361.41952383299986,362.4177474580001,359.31517399999984,359.31517399999984,359.32809949999984,359.31517399999984,359.31517399999984,359.31517399999984,359.32809949999984,359.31517399999984,364.43859629100007,365.1124816659999,367.1947759579998,371.2345184999999,365.1124816659999,365.1124816659999,370.24210649999986,365.5607191660001,366.57865270799994,367.1947759579998,368.2016331660002,365.1124816659999,365.1124816659999,365.0898567493332,365.1124816659999,365.1124816659999,365.1124816659999,365.0898567493332,365.1124816659999,365.1124816659999,370.24210649999986,365.1124816659999,370.24210649999986,370.3118535409999,370.938385166,365.1124816659999,2,0,0.5993855840001743,reldom2_s016,001,2025-02-18_15h37.37.075,Where-A-Scan_AC,2022.2.5,None,
0,0.0,None,fixation,stimulus/viswhere_stim/blank_white.png,stimulus/viswhere_stim/blank_white.png,stimulus/audwhere_stim/blank_white.png,stimulus/audwhere_stim/blank_white.png,stimulus/viswhere_stim/blank_white.png,stimulus/viswhere_stim/blank_white.png,stimulus/viswhere_stim/blank_white.png,stimulus/viswhere_stim/blank_white.png,0.0,0.0,0.0,0.0,0,0.0,0,0.0,0,0.0,0,0.0,0,0.0,0.0,0,0.0,0,0.0,0,0.0,0,0.0,0,0.0,0,0.0,0,0.0,0,0.0,8,,,,,0,40,40,40,,,,,,,,,371.2345184999999,371.2345184999999,371.2345184999999,371.2345184999999,371.2345184999999,371.2345184999999,371.2345184999999,371.2345184999999,371.13309566633353,371.2345184999999,371.2345184999999,371.2345184999999,371.13309566633353,371.2345184999999,371.2345184999999,371.2345184999999,371.2345184999999,371.2345184999999,371.2345184999999,371.2345184999999,371.2345184999999,371.2345184999999,371.2345184999999,371.2345184999999,371.2345184999999,371.2345184999999,371.2345184999999,371.18309566633354,371.2345184999999,371.2345184999999,371.2345184999999,371.18309566633354,371.2345184999999,371.2345184999999,371.2345184999999,371.2345184999999,371.2345184999999,376.4202015000001,376.4202015000001,379.44112329100017,None,0,,reldom2_s016,001,2025-02-18_15h37.37.075,Where-A-Scan_AC,2022.2.5,None,
31,First_Order,6.0,viswhere,stimulus/viswhere_stim/blank_white.png,stimulus/viswhere_stim/blank_white.png,stimulus/viswhere_stim/90-deg_dot-right_lightsseagreen.png,stimulus/viswhere_stim/90-deg_dot-left_turquoise.png,stimulus/viswhere_stim/blank_white.png,stimulus/viswhere_stim/line_box.png,stimulus/viswhere_stim/line_yes.png,stimulus/viswhere_stim/line_no.png,None,Line,None,Line,1,0.0,0,5.125,0,5.125,0,5.125,0,0.0,0.625,0,0.0,0,0.0,1,0.5,1,2.125,0,0.0,0,0.0,0,0.0,0,0.0,0,,,,,0,41,41,41,,,,,,,,,379.44112329100017,379.44112329100017,379.44112329100017,379.44112329100017,379.44112329100017,379.44112329100017,379.44112329100017,379.44112329100017,379.42072420766647,379.44112329100017,379.44112329100017,379.44112329100017,379.42072420766647,379.44112329100017,379.44112329100017,379.44112329100017,381.539296166,385.50733979100005,379.44112329100017,379.44112329100017,384.567768291,379.9225823329998,380.9420104579999,381.539296166,382.54247345800013,379.44112329100017,379.44112329100017,379.4373908743332,379.44112329100017,379.44112329100017,379.44112329100017,379.4373908743332,379.44112329100017,379.44112329100017,384.567768291,379.44112329100017,384.567768291,384.6651655410001,385.2906937910002,379.44112329100017,2,0,2.4907705000000533,reldom2_s016,001,2025-02-18_15h37.37.075,Where-A-Scan_AC,2022.2.5,None,
32,First_Order,6.0,viswhere,stimulus/viswhere_stim/blank_white.png,stimulus/viswhere_stim/blank_white.png,stimulus/viswhere_stim/30-deg_dot-right_goldenrod.png,stimulus/viswhere_stim/30-deg_dot-left_seagreen.png,stimulus/viswhere_stim/blank_white.png,stimulus/viswhere_stim/dot_box.png,stimulus/viswhere_stim/dot_yes.png,stimulus/viswhere_stim/dot_no.png,None,Dot,None,Line,2,0.0,0,5.125,0,5.125,0,5.125,0,0.0,0.625,0,0.0,0,0.0,1,0.5,1,2.125,0,0.0,0,0.0,0,0.0,0,0.0,0,,,,,0,42,42,42,,,,,,,,,385.50733979100005,385.50733979100005,385.50733979100005,385.50733979100005,385.50733979100005,385.50733979100005,385.50733979100005,385.50733979100005,385.4860642493334,385.50733979100005,385.50733979100005,385.50733979100005,385.4860642493334,385.50733979100005,385.50733979100005,385.50733979100005,387.610699458,391.57125233299985,385.50733979100005,385.50733979100005,390.63967950000006,385.98574733299984,386.9986142910002,387.610699458,388.62988804099996,385.50733979100005,385.50733979100005,385.5027309160001,385.50733979100005,385.50733979100005,385.50733979100005,385.5027309160001,385.50733979100005,385.50733979100005,390.63967950000006,385.50733979100005,390.63967950000006,390.73607762500023,391.363291958,385.50733979100005,2,1,0.8229986260002988,reldom2_s016,001,2025-02-18_15h37.37.075,Where-A-Scan_AC,2022.2.5,None,
33,First_Order,6.0,viswhere,stimulus/viswhere_stim/blank_white.png,stimulus/viswhere_stim/blank_white.png,stimulus/viswhere_stim/150-deg_dot-left_lightsseagreen.png,stimulus/viswhere_stim/150-deg_dot-right_royalblue.png,stimulus/viswhere_stim/blank_white.png,stimulus/viswhere_stim/dot_box.png,stimulus/viswhere_stim/dot_yes.png,stimulus/viswhere_stim/dot_no.png,None,Dot,None,Line,2,0.0,0,5.125,0,5.125,0,5.125,0,0.0,0.625,0,0.0,0,0.0,1,0.5,1,2.125,0,0.0,0,0.0,0,0.0,0,0.0,0,,,,,0,43,43,43,,,,,,,,,391.57125233299985,391.57125233299985,391.57125233299985,391.57125233299985,391.57125233299985,391.57125233299985,391.57125233299985,391.57125233299985,391.55000079133316,391.57125233299985,391.57125233299985,391.57125233299985,391.55000079133316,391.57125233299985,391.57125233299985,391.57125233299985,393.6773185410002,397.636137125,391.57125233299985,391.57125233299985,396.71250654100004,392.054347666,393.05863524999995,393.6773185410002,394.68608774999984,391.57125233299985,391.57125233299985,391.5666674579998,391.57125233299985,391.57125233299985,391.57125233299985,391.5666674579998,391.57125233299985,391.57125233299985,396.71250654100004,391.57125233299985,396.71250654100004,396.7983630409999,397.4331120830002,391.57125233299985,2,1,0.7820421250003164,reldom2_s016,001,2025-02-18_15h37.37.075,Where-A-Scan_AC,2022.2.5,None,
34,First_Order,6.0,viswhere,stimulus/viswhere_stim/blank_white.png,stimulus/viswhere_stim/blank_white.png,stimulus/viswhere_stim/120-deg_dot-left_peru.png,stimulus/viswhere_stim/90-deg_dot-left_royalblue.png,stimulus/viswhere_stim/blank_white.png,stimulus/viswhere_stim/line_box.png,stimulus/viswhere_stim/line_yes.png,stimulus/viswhere_stim/line_no.png,None,Line,None,Dot,2,0.0,0,5.125,0,5.125,0,5.125,0,0.0,0.625,0,0.0,0,0.0,1,0.5,1,2.125,0,0.0,0,0.0,0,0.0,0,0.0,0,,,,,0,44,44,44,,,,,,,,,397.636137125,397.636137125,397.636137125,397.636137125,397.636137125,397.636137125,397.636137125,397.636137125,397.61407974933337,397.636137125,397.636137125,397.636137125,397.61407974933337,397.636137125,397.636137125,397.636137125,399.7449543749999,403.78064700000004,397.636137125,397.636137125,402.7598128750001,398.1160664580002,399.13289616600014,399.7449543749999,400.74754491600015,397.636137125,397.636137125,397.630746416,397.636137125,397.636137125,397.636137125,397.630746416,397.636137125,397.636137125,402.7598128750001,397.636137125,402.7598128750001,402.857188041,403.48841508299984,397.636137125,2,1,0.9404987090001669,reldom2_s016,001,2025-02-18_15h37.37.075,Where-A-Scan_AC,2022.2.5,None,
0,0.0,None,fixation,stimulus/viswhere_stim/blank_white.png,stimulus/viswhere_stim/blank_white.png,stimulus/audwhere_stim/blank_white.png,stimulus/audwhere_stim/blank_white.png,stimulus/viswhere_stim/blank_white.png,stimulus/viswhere_stim/blank_white.png,stimulus/viswhere_stim/blank_white.png,stimulus/viswhere_stim/blank_white.png,0.0,0.0,0.0,0.0,0,0.0,0,0.0,0,0.0,0,0.0,0,0.0,0.0,0,0.0,0,0.0,0,0.0,0,0.0,0,0.0,0,0.0,0,0.0,0,0.0,10,,,,,0,45,45,45,,,,,,,,,403.78064700000004,403.78064700000004,403.78064700000004,403.78064700000004,403.78064700000004,403.78064700000004,403.78064700000004,403.78064700000004,403.68240012433336,403.78064700000004,403.78064700000004,403.78064700000004,403.68240012433336,403.78064700000004,403.78064700000004,403.78064700000004,403.78064700000004,403.78064700000004,403.78064700000004,403.78064700000004,403.78064700000004,403.78064700000004,403.78064700000004,403.78064700000004,403.78064700000004,403.78064700000004,403.78064700000004,403.73240012433337,403.78064700000004,403.78064700000004,403.78064700000004,403.73240012433337,403.78064700000004,403.78064700000004,403.78064700000004,403.78064700000004,403.78064700000004,408.985222583,408.985222583,413.93230629100026,None,0,,reldom2_s016,001,2025-02-18_15h37.37.075,Where-A-Scan_AC,2022.2.5,None,
35,Second_Order,6.0,viswhere,stimulus/viswhere_stim/60-deg_dot-right_mediumslateblue.png,stimulus/viswhere_stim/150-deg_dot-right_turquoise.png,stimulus/viswhere_stim/90-deg_dot-right_slateblue.png,stimulus/viswhere_stim/90-deg_dot-left_seagreen.png,stimulus/viswhere_stim/match_blank.png,stimulus/viswhere_stim/match_box.png,stimulus/viswhere_stim/match_yes.png,stimulus/viswhere_stim/match_no.png,2.0,Match,Dot,Line,2,5.125,0,5.125,0,5.125,0,5.125,0,0.75,0.75,1,0.5,1,2.125,1,0.5,1,2.125,0,0.0,0,0.0,0,0.0,0,0.0,0,,,,,0,46,46,46,,,,,,,,,413.93230629100026,419.05243570799985,414.40800100000024,415.40642016599986,416.04131325000026,417.030078666,413.93230629100026,413.93230629100026,413.9460249993332,413.93230629100026,413.93230629100026,413.93230629100026,413.9460249993332,413.93230629100026,419.05243570799985,419.84493545800024,421.91548079099994,425.78371533300015,419.84493545800024,419.84493545800024,424.977755375,420.29244074999997,421.2982146250001,421.91548079099994,422.9247660830001,419.84493545800024,419.84493545800024,419.81993879133324,419.84493545800024,419.84493545800024,419.84493545800024,419.81993879133324,419.84493545800024,419.84493545800024,424.977755375,419.84493545800024,424.977755375,425.04730066599996,425.82039654100026,419.84493545800024,2,1,2.0796165830001883,reldom2_s016,001,2025-02-18_15h37.37.075,Where-A-Scan_AC,2022.2.5,None,
36,Second_Order,6.0,viswhere,stimulus/viswhere_stim/120-deg_dot-left_royalblue.png,stimulus/viswhere_stim/120-deg_dot-right_cyan.png,stimulus/viswhere_stim/90-deg_dot-left_slateblue.png,stimulus/viswhere_stim/90-deg_dot-right_turquoise.png,stimulus/viswhere_stim/match_blank.png,stimulus/viswhere_stim/match_box.png,stimulus/viswhere_stim/match_yes.png,stimulus/viswhere_stim/match_no.png,1.0,Match,Line,Line,1,5.125,0,5.125,0,5.125,0,5.125,0,0.625,0.625,1,0.5,1,2.125,1,0.5,1,2.125,0,0.0,0,0.0,0,0.0,0,0.0,0,,,,,0,47,47,47,,,,,,,,,425.82039654100026,430.94240249999984,426.3017517080002,427.30074641600004,427.9225240830001,428.92129354100007,425.82039654100026,425.82039654100026,425.83371533300016,425.82039654100026,425.82039654100026,425.82039654100026,425.83371533300016,425.82039654100026,430.94240249999984,431.6179534580001,433.7051082910002,437.7376541660001,431.6179534580001,431.6179534580001,436.7404280830001,432.06479233300024,433.06770933300004,433.7051082910002,434.71365137500015,431.6179534580001,431.6179534580001,431.5933883333332,431.6179534580001,431.6179534580001,431.6179534580001,431.5933883333332,431.6179534580001,431.6179534580001,436.7404280830001,431.6179534580001,436.7404280830001,436.8093865410001,437.44199670800026,431.6179534580001,1,1,0.8130360420000216,reldom2_s016,001,2025-02-18_15h37.37.075,Where-A-Scan_AC,2022.2.5,None,
0,0.0,None,fixation,stimulus/viswhere_stim/blank_white.png,stimulus/viswhere_stim/blank_white.png,stimulus/audwhere_stim/blank_white.png,stimulus/audwhere_stim/blank_white.png,stimulus/viswhere_stim/blank_white.png,stimulus/viswhere_stim/blank_white.png,stimulus/viswhere_stim/blank_white.png,stimulus/viswhere_stim/blank_white.png,0.0,0.0,0.0,0.0,0,0.0,0,0.0,0,0.0,0,0.0,0,0.0,0.0,0,0.0,0,0.0,0,0.0,0,0.0,0,0.0,0,0.0,0,0.0,0,0.0,9,,,,,0,48,48,48,,,,,,,,,437.7376541660001,437.7376541660001,437.7376541660001,437.7376541660001,437.7376541660001,437.7376541660001,437.7376541660001,437.7376541660001,437.6370307913333,437.7376541660001,437.7376541660001,437.7376541660001,437.6370307913333,437.7376541660001,437.7376541660001,437.7376541660001,437.7376541660001,437.7376541660001,437.7376541660001,437.7376541660001,437.7376541660001,437.7376541660001,437.7376541660001,437.7376541660001,437.7376541660001,437.7376541660001,437.7376541660001,437.6870307913333,437.7376541660001,437.7376541660001,437.7376541660001,437.6870307913333,437.7376541660001,437.7376541660001,437.7376541660001,437.7376541660001,437.7376541660001,442.92469845799997,442.92469845799997,446.96948462499995,None,0,,reldom2_s016,001,2025-02-18_15h37.37.075,Where-A-Scan_AC,2022.2.5,None,
37,First_Order,7.0,audwhere,stimulus/audwhere_stim/dummy.wav,stimulus/audwhere_stim/dummy.wav,stimulus/audwhere_stim/left_toward_280h.wav,stimulus/audwhere_stim/left_away_290h.wav,stimulus/audwhere_stim/blank_white.png,stimulus/audwhere_stim/direction_box.png,stimulus/audwhere_stim/direction_yes.png,stimulus/audwhere_stim/direction_no.png,None,Direction,None,Side,2,0.0,0,5.125,0,5.125,0,5.125,0,0.0,0.625,0,0.0,0,0.0,0,0.0,0,0.0,0,0.0,0,0.0,1,0.5,1,2.125,0,,,,,0,49,49,49,,,,,,,,,446.96948462499995,446.96948462499995,446.96948462499995,446.96948462499995,446.96948462499995,446.96948462499995,446.96948462499995,446.96948462499995,446.8972353326668,446.96948462499995,446.96948462499995,446.96948462499995,446.8972353326668,446.96948462499995,446.96948462499995,446.96948462499995,449.074910583,,446.96948462499995,446.96948462499995,452.164739458,446.96948462499995,446.96948462499995,446.96948462499995,446.96948462499995,447.4389298330002,448.5144909159999,447.40843799966683,,449.074910583,450.10966495799994,449.0446994166666,,446.96948462499995,452.164739458,446.96948462499995,452.164739458,452.164739458,452.82154575000004,446.96948462499995,2,1,1.0891184590000194,reldom2_s016,001,2025-02-18_15h37.37.075,Where-A-Scan_AC,2022.2.5,None,
38,First_Order,7.0,audwhere,stimulus/audwhere_stim/dummy.wav,stimulus/audwhere_stim/dummy.wav,stimulus/audwhere_stim/left_away_300h.wav,stimulus/audwhere_stim/right_away_280h.wav,stimulus/audwhere_stim/blank_white.png,stimulus/audwhere_stim/side_box.png,stimulus/audwhere_stim/side_yes.png,stimulus/audwhere_stim/side_no.png,None,Side,None,Direction,2,0.0,0,5.125,0,5.125,0,5.125,0,0.0,0.625,0,0.0,0,0.0,0,0.0,0,0.0,0,0.0,0,0.0,1,0.5,1,2.125,0,,,,,0,50,50,50,,,,,,,,,453.07539162500007,453.07539162500007,453.07539162500007,453.07539162500007,453.07539162500007,453.07539162500007,453.07539162500007,453.07539162500007,452.9959944993335,453.07539162500007,453.07539162500007,453.07539162500007,452.9959944993335,453.07539162500007,453.07539162500007,453.07539162500007,455.17168100000026,,453.07539162500007,453.07539162500007,458.2389007500001,453.07539162500007,453.07539162500007,453.07539162500007,453.07539162500007,453.54396962500005,454.61434720800025,453.5137119166668,,455.17168100000026,456.24418887499996,455.14018795766674,,453.07539162500007,458.2389007500001,453.07539162500007,458.2389007500001,458.2800695000001,458.93339970800025,453.07539162500007,2,1,0.5791996670000117,reldom2_s016,001,2025-02-18_15h37.37.075,Where-A-Scan_AC,2022.2.5,None,
39,First_Order,7.0,audwhere,stimulus/audwhere_stim/dummy.wav,stimulus/audwhere_stim/dummy.wav,stimulus/audwhere_stim/right_toward_280h.wav,stimulus/audwhere_stim/right_away_300h.wav,stimulus/audwhere_stim/blank_white.png,stimulus/audwhere_stim/side_box.png,stimulus/audwhere_stim/side_yes.png,stimulus/audwhere_stim/side_no.png,None,Side,None,Side,1,0.0,0,5.125,0,5.125,0,5.125,0,0.0,0.625,0,0.0,0,0.0,0,0.0,0,0.0,0,0.0,0,0.0,1,0.5,1,2.125,0,,,,,0,51,51,51,,,,,,,,,459.188683375,459.188683375,459.188683375,459.188683375,459.188683375,459.188683375,459.188683375,459.188683375,459.10792020833344,459.188683375,459.188683375,459.188683375,459.10792020833344,459.188683375,459.188683375,459.188683375,461.28166591599984,,459.188683375,459.188683375,464.34990908300006,459.188683375,459.188683375,459.188683375,459.188683375,459.65416137500006,460.72082220799984,459.62438574966677,,461.28166591599984,462.35297041600006,461.2520105416668,,459.188683375,464.34990908300006,459.188683375,464.34990908300006,464.391062916,465.0443490829998,459.188683375,1,1,0.8125605420000284,reldom2_s016,001,2025-02-18_15h37.37.075,Where-A-Scan_AC,2022.2.5,None,
40,First_Order,7.0,audwhere,stimulus/audwhere_stim/dummy.wav,stimulus/audwhere_stim/dummy.wav,stimulus/audwhere_stim/left_away_280h.wav,stimulus/audwhere_stim/left_toward_300h.wav,stimulus/audwhere_stim/blank_white.png,stimulus/audwhere_stim/side_box.png,stimulus/audwhere_stim/side_yes.png,stimulus/audwhere_stim/side_no.png,None,Side,None,Side,1,0.0,0,5.125,0,5.125,0,5.125,0,0.0,0.625,0,0.0,0,0.0,0,0.0,0,0.0,0,0.0,0,0.0,1,0.5,1,2.125,0,,,,,0,52,52,52,,,,,,,,,465.300272125,465.300272125,465.300272125,465.300272125,465.300272125,465.300272125,465.300272125,465.300272125,465.21860966633324,465.300272125,465.300272125,465.300272125,465.21860966633324,465.300272125,465.300272125,465.300272125,467.3926915000002,,465.300272125,465.300272125,470.46024375000025,465.300272125,465.300272125,465.300272125,465.300272125,465.7649659580002,466.83312245800016,465.73483966666686,,467.3926915000002,468.4641163330002,467.3629142916668,,465.300272125,470.46024375000025,465.300272125,470.46024375000025,470.5016063329999,471.15582754100024,465.300272125,1,1,0.8638949589999356,reldom2_s016,001,2025-02-18_15h37.37.075,Where-A-Scan_AC,2022.2.5,None,
0,0.0,None,fixation,stimulus/viswhere_stim/blank_white.png,stimulus/viswhere_stim/blank_white.png,stimulus/audwhere_stim/blank_white.png,stimulus/audwhere_stim/blank_white.png,stimulus/viswhere_stim/blank_white.png,stimulus/viswhere_stim/blank_white.png,stimulus/viswhere_stim/blank_white.png,stimulus/viswhere_stim/blank_white.png,0.0,0.0,0.0,0.0,0,0.0,0,0.0,0,0.0,0,0.0,0,0.0,0.0,0,0.0,0,0.0,0,0.0,0,0.0,0,0.0,0,0.0,0,0.0,0,0.0,8,,,,,0,53,53,53,,,,,,,,,471.43087858299987,471.43087858299987,471.43087858299987,471.43087858299987,471.43087858299987,471.43087858299987,471.43087858299987,471.43087858299987,471.33057291633315,471.43087858299987,471.43087858299987,471.43087858299987,471.33057291633315,471.43087858299987,471.43087858299987,471.43087858299987,471.43087858299987,471.43087858299987,471.43087858299987,471.43087858299987,471.43087858299987,471.43087858299987,471.43087858299987,471.43087858299987,471.43087858299987,471.43087858299987,471.43087858299987,471.38057291633316,471.43087858299987,471.43087858299987,471.43087858299987,471.38057291633316,471.43087858299987,471.43087858299987,471.43087858299987,471.43087858299987,471.43087858299987,476.66307795800003,476.66307795800003,479.5976739160001,None,0,,reldom2_s016,001,2025-02-18_15h37.37.075,Where-A-Scan_AC,2022.2.5,None,
41,Second_Order,7.0,audwhere,stimulus/audwhere_stim/left_away_300h.wav,stimulus/audwhere_stim/left_toward_300h.wav,stimulus/audwhere_stim/right_away_290h.wav,stimulus/audwhere_stim/right_toward_290h.wav,stimulus/viswhere_stim/match_blank.png,stimulus/audwhere_stim/match_box.png,stimulus/viswhere_stim/match_yes.png,stimulus/viswhere_stim/match_no.png,1.0,Match,Side,Side,1,5.125,0,5.125,0,5.125,0,5.125,0,0.75,0.75,0,0.0,0,0.0,0,0.0,0,0.0,1,0.5,1,2.125,1,0.5,1,2.125,0,,,,,0,54,54,54,,,,,,,,,479.5976739160001,484.72215829100014,479.5976739160001,479.5976739160001,479.5976739160001,479.5976739160001,480.0556213330001,481.0456080409999,480.0586838326665,,481.68019304100017,482.678466416,481.6926566246668,,484.72215829100014,485.571384458,487.6157458329999,,485.571384458,485.571384458,490.7342815830002,485.571384458,485.571384458,485.571384458,485.571384458,485.98965154100006,487.0565121660002,485.95973583266664,,487.6157458329999,488.6869231659998,487.5859487916666,,485.571384458,490.7342815830002,485.571384458,490.7342815830002,490.7342815830002,,485.571384458,2,0,1.7632220830000733,reldom2_s016,001,2025-02-18_15h37.37.075,Where-A-Scan_AC,2022.2.5,None,
42,Second_Order,7.0,audwhere,stimulus/audwhere_stim/left_away_280h.wav,stimulus/audwhere_stim/right_away_270h.wav,stimulus/audwhere_stim/right_toward_270h.wav,stimulus/audwhere_stim/left_toward_280h.wav,stimulus/viswhere_stim/match_blank.png,stimulus/audwhere_stim/match_box.png,stimulus/viswhere_stim/match_yes.png,stimulus/viswhere_stim/match_no.png,1.0,Match,Direction,Direction,1,5.125,0,5.125,0,5.125,0,5.125,0,0.625,0.625,0,0.0,0,0.0,0,0.0,0,0.0,1,0.5,1,2.125,1,0.5,1,2.125,0,,,,,0,55,55,55,,,,,,,,,491.55034458299997,496.6658012910002,491.55034458299997,491.55034458299997,491.55034458299997,491.55034458299997,492.00380354100025,493.0022134159999,492.0167514576667,,493.62455554100006,494.6225545410002,493.6370126246668,,496.6658012910002,497.3946772909999,499.4783295410002,503.51283704100024,497.3946772909999,497.3946772909999,502.58458633300006,497.3946772909999,497.3946772909999,497.3946772909999,497.3946772909999,497.85423745800017,498.92084287499983,497.82440133266687,,499.4783295410002,500.5469565829999,499.44851954166666,,497.3946772909999,502.58458633300006,497.3946772909999,502.58458633300006,502.58458633300006,503.2384609999999,497.3946772909999,1,1,2.131138125000234,reldom2_s016,001,2025-02-18_15h37.37.075,Where-A-Scan_AC,2022.2.5,None,
0,0.0,None,fixation,stimulus/viswhere_stim/blank_white.png,stimulus/viswhere_stim/blank_white.png,stimulus/audwhere_stim/blank_white.png,stimulus/audwhere_stim/blank_white.png,stimulus/viswhere_stim/blank_white.png,stimulus/viswhere_stim/blank_white.png,stimulus/viswhere_stim/blank_white.png,stimulus/viswhere_stim/blank_white.png,0.0,0.0,0.0,0.0,0,0.0,0,0.0,0,0.0,0,0.0,0,0.0,0.0,0,0.0,0,0.0,0,0.0,0,0.0,0,0.0,0,0.0,0,0.0,0,0.0,10,,,,,0,56,56,56,,,,,,,,,503.51283704100024,503.51283704100024,503.51283704100024,503.51283704100024,503.51283704100024,503.51283704100024,503.51283704100024,503.51283704100024,503.4127072913335,503.51283704100024,503.51283704100024,503.51283704100024,503.4127072913335,503.51283704100024,503.51283704100024,503.51283704100024,503.51283704100024,503.51283704100024,503.51283704100024,503.51283704100024,503.51283704100024,503.51283704100024,503.51283704100024,503.51283704100024,503.51283704100024,503.51283704100024,503.51283704100024,503.4627072913335,503.51283704100024,503.51283704100024,503.51283704100024,503.4627072913335,503.51283704100024,503.51283704100024,503.51283704100024,503.51283704100024,503.51283704100024,508.7409379999999,508.7409379999999,513.7396199579998,None,0,,reldom2_s016,001,2025-02-18_15h37.37.075,Where-A-Scan_AC,2022.2.5,None,
43,First_Order,8.0,audwhere,stimulus/audwhere_stim/dummy.wav,stimulus/audwhere_stim/dummy.wav,stimulus/audwhere_stim/left_away_270h.wav,stimulus/audwhere_stim/right_away_300h.wav,stimulus/audwhere_stim/blank_white.png,stimulus/audwhere_stim/direction_box.png,stimulus/audwhere_stim/direction_yes.png,stimulus/audwhere_stim/direction_no.png,None,Direction,None,Direction,1,0.0,0,5.125,0,5.125,0,5.125,0,0.0,0.625,0,0.0,0,0.0,0,0.0,0,0.0,0,0.0,0,0.0,1,0.5,1,2.125,0,,,,,0,57,57,57,,,,,,,,,513.7396199579998,513.7396199579998,513.7396199579998,513.7396199579998,513.7396199579998,513.7396199579998,513.7396199579998,513.7396199579998,513.6666034996666,513.7396199579998,513.7396199579998,513.7396199579998,513.6666034996666,513.7396199579998,513.7396199579998,513.7396199579998,515.8422866249998,,513.7396199579998,513.7396199579998,518.9245780830001,513.7396199579998,513.7396199579998,513.7396199579998,513.7396199579998,514.208539791,515.282844416,514.1781083746666,,515.8422866249998,516.8727564999999,515.8120931666665,,513.7396199579998,518.9245780830001,513.7396199579998,518.9245780830001,518.9659087079999,519.6248996660001,513.7396199579998,1,1,2.1588282090001485,reldom2_s016,001,2025-02-18_15h37.37.075,Where-A-Scan_AC,2022.2.5,None,
44,First_Order,8.0,audwhere,stimulus/audwhere_stim/dummy.wav,stimulus/audwhere_stim/dummy.wav,stimulus/audwhere_stim/left_toward_300h.wav,stimulus/audwhere_stim/left_away_280h.wav,stimulus/audwhere_stim/blank_white.png,stimulus/audwhere_stim/direction_box.png,stimulus/audwhere_stim/direction_yes.png,stimulus/audwhere_stim/direction_no.png,None,Direction,None,Side,2,0.0,0,5.125,0,5.125,0,5.125,0,0.0,0.625,0,0.0,0,0.0,0,0.0,0,0.0,0,0.0,0,0.0,1,0.5,1,2.125,0,,,,,0,58,58,58,,,,,,,,,519.8385949160001,519.8385949160001,519.8385949160001,519.8385949160001,519.8385949160001,519.8385949160001,519.8385949160001,519.8385949160001,519.7582329993335,519.8385949160001,519.8385949160001,519.8385949160001,519.7582329993335,519.8385949160001,519.8385949160001,519.8385949160001,521.9438516250002,,519.8385949160001,519.8385949160001,525.0246200000001,519.8385949160001,519.8385949160001,519.8385949160001,519.8385949160001,520.3055245830001,521.3367081659999,520.2754522916669,,521.9438516250002,522.97475975,521.9137734576668,,519.8385949160001,525.0246200000001,519.8385949160001,525.0246200000001,525.065750875,525.723010791,519.8385949160001,2,1,0.9815490000000864,reldom2_s016,001,2025-02-18_15h37.37.075,Where-A-Scan_AC,2022.2.5,None,
45,First_Order,8.0,audwhere,stimulus/audwhere_stim/dummy.wav,stimulus/audwhere_stim/dummy.wav,stimulus/audwhere_stim/right_away_290h.wav,stimulus/audwhere_stim/left_away_280h.wav,stimulus/audwhere_stim/blank_white.png,stimulus/audwhere_stim/side_box.png,stimulus/audwhere_stim/side_yes.png,stimulus/audwhere_stim/side_no.png,None,Side,None,Direction,2,0.0,0,5.125,0,5.125,0,5.125,0,0.0,0.625,0,0.0,0,0.0,0,0.0,0,0.0,0,0.0,0,0.0,1,0.5,1,2.125,0,,,,,0,59,59,59,,,,,,,,,525.9362229580001,525.9362229580001,525.9362229580001,525.9362229580001,525.9362229580001,525.9362229580001,525.9362229580001,525.9362229580001,525.8563441243333,525.9362229580001,525.9362229580001,525.9362229580001,525.8563441243333,525.9362229580001,525.9362229580001,525.9362229580001,528.0293569579999,,525.9362229580001,525.9362229580001,531.098678333,525.9362229580001,525.9362229580001,525.9362229580001,525.9362229580001,526.400993875,527.472143041,526.3709337076668,,528.0293569579999,529.1010315829999,527.9998272916666,,525.9362229580001,531.098678333,525.9362229580001,531.098678333,531.1407331660002,531.7942997499999,525.9362229580001,2,1,1.130742500999986,reldom2_s016,001,2025-02-18_15h37.37.075,Where-A-Scan_AC,2022.2.5,None,
46,First_Order,8.0,audwhere,stimulus/audwhere_stim/dummy.wav,stimulus/audwhere_stim/dummy.wav,stimulus/audwhere_stim/left_away_270h.wav,stimulus/audwhere_stim/right_away_290h.wav,stimulus/audwhere_stim/blank_white.png,stimulus/audwhere_stim/direction_box.png,stimulus/audwhere_stim/direction_yes.png,stimulus/audwhere_stim/direction_no.png,None,Direction,None,Direction,1,0.0,0,5.125,0,5.125,0,5.125,0,0.0,0.625,0,0.0,0,0.0,0,0.0,0,0.0,0,0.0,0,0.0,1,0.5,1,2.125,0,,,,,0,60,60,60,,,,,,,,,532.0492846249999,532.0492846249999,532.0492846249999,532.0492846249999,532.0492846249999,532.0492846249999,532.0492846249999,532.0492846249999,531.9680884583332,532.0492846249999,532.0492846249999,532.0492846249999,531.9680884583332,532.0492846249999,532.0492846249999,532.0492846249999,534.1561785829999,,532.0492846249999,532.0492846249999,537.2438538750002,532.0492846249999,532.0492846249999,532.0492846249999,532.0492846249999,532.5188869580002,533.5495492499999,532.4885279166667,,534.1561785829999,535.188060125,534.1260784996668,,532.0492846249999,537.2438538750002,532.0492846249999,537.2438538750002,537.2438538750002,537.900945458,532.0492846249999,1,1,2.0243842089998907,reldom2_s016,001,2025-02-18_15h37.37.075,Where-A-Scan_AC,2022.2.5,None,
0,0.0,None,fixation,stimulus/viswhere_stim/blank_white.png,stimulus/viswhere_stim/blank_white.png,stimulus/audwhere_stim/blank_white.png,stimulus/audwhere_stim/blank_white.png,stimulus/viswhere_stim/blank_white.png,stimulus/viswhere_stim/blank_white.png,stimulus/viswhere_stim/blank_white.png,stimulus/viswhere_stim/blank_white.png,0.0,0.0,0.0,0.0,0,0.0,0,0.0,0,0.0,0,0.0,0,0.0,0.0,0,0.0,0,0.0,0,0.0,0,0.0,0,0.0,0,0.0,0,0.0,0,0.0,9,,,,,0,61,61,61,,,,,,,,,538.1782741249999,538.1782741249999,538.1782741249999,538.1782741249999,538.1782741249999,538.1782741249999,538.1782741249999,538.1782741249999,538.0754874583332,538.1782741249999,538.1782741249999,538.1782741249999,538.0754874583332,538.1782741249999,538.1782741249999,538.1782741249999,538.1782741249999,538.1782741249999,538.1782741249999,538.1782741249999,538.1782741249999,538.1782741249999,538.1782741249999,538.1782741249999,538.1782741249999,538.1782741249999,538.1782741249999,538.1254874583332,538.1782741249999,538.1782741249999,538.1782741249999,538.1254874583332,538.1782741249999,538.1782741249999,538.1782741249999,538.1782741249999,538.1782741249999,543.3863576660001,543.3863576660001,547.3460567080001,None,0,,reldom2_s016,001,2025-02-18_15h37.37.075,Where-A-Scan_AC,2022.2.5,None,
47,Second_Order,8.0,audwhere,stimulus/audwhere_stim/right_away_280h.wav,stimulus/audwhere_stim/left_away_290h.wav,stimulus/audwhere_stim/right_toward_300h.wav,stimulus/audwhere_stim/right_away_300h.wav,stimulus/viswhere_stim/match_blank.png,stimulus/audwhere_stim/match_box.png,stimulus/viswhere_stim/match_yes.png,stimulus/viswhere_stim/match_no.png,2.0,Match,Direction,Side,2,5.125,0,5.125,0,5.125,0,5.125,0,0.75,0.75,0,0.0,0,0.0,0,0.0,0,0.0,1,0.5,1,2.125,1,0.5,1,2.125,0,,,,,0,62,62,62,,,,,,,,,547.3460567080001,552.4613722499998,547.3460567080001,547.3460567080001,547.3460567080001,547.3460567080001,547.7990020000002,548.7846693330002,547.8121236246668,,549.4213772500002,550.4181000409999,549.4328989996668,,552.4613722499998,553.3050990830002,555.3953387500001,,553.3050990830002,553.3050990830002,558.4625149160001,553.3050990830002,553.3050990830002,553.3050990830002,553.3050990830002,553.7690130000001,554.838155125,553.7389874576668,,555.3953387500001,556.464345416,555.3650969576668,,553.3050990830002,558.4625149160001,553.3050990830002,558.4625149160001,558.5035013749998,,553.3050990830002,2,1,1.185334500999943,reldom2_s016,001,2025-02-18_15h37.37.075,Where-A-Scan_AC,2022.2.5,None,
48,Second_Order,8.0,audwhere,stimulus/audwhere_stim/left_away_280h.wav,stimulus/audwhere_stim/right_away_290h.wav,stimulus/audwhere_stim/left_toward_280h.wav,stimulus/audwhere_stim/right_toward_300h.wav,stimulus/viswhere_stim/match_blank.png,stimulus/audwhere_stim/match_box.png,stimulus/viswhere_stim/match_yes.png,stimulus/viswhere_stim/match_no.png,1.0,Match,Direction,Direction,1,5.125,0,5.125,0,5.125,0,5.125,0,0.625,0.625,0,0.0,0,0.0,0,0.0,0,0.0,1,0.5,1,2.125,1,0.5,1,2.125,0,,,,,0,63,63,63,,,,,,,,,559.2770555000002,564.400667375,559.2770555000002,559.2770555000002,559.2770555000002,559.2770555000002,559.727364291,560.7253484580001,559.7398110416668,,561.3600913330001,562.3494170829999,561.3642006666666,,564.400667375,565.137041,567.2162478330001,571.2478258330002,565.137041,565.137041,570.3193176250002,565.137041,565.137041,565.137041,565.137041,565.5528312910001,566.6147469580001,565.5232763746665,,567.2162478330001,568.2850750410003,567.1865234996665,,565.137041,570.3193176250002,565.137041,570.3193176250002,570.3193176250002,570.972378291,565.137041,1,1,0.7231390419997297,reldom2_s016,001,2025-02-18_15h37.37.075,Where-A-Scan_AC,2022.2.5,None,
0,0.0,None,fixation,stimulus/viswhere_stim/blank_white.png,stimulus/viswhere_stim/blank_white.png,stimulus/audwhere_stim/blank_white.png,stimulus/audwhere_stim/blank_white.png,stimulus/viswhere_stim/blank_white.png,stimulus/viswhere_stim/blank_white.png,stimulus/viswhere_stim/blank_white.png,stimulus/viswhere_stim/blank_white.png,0.0,0.0,0.0,0.0,0,0.0,0,0.0,0,0.0,0,0.0,0,0.0,0.0,0,0.0,0,0.0,0,0.0,0,0.0,0,0.0,0,0.0,0,0.0,0,0.0,16,,,,,0,64,64,64,,,,,,,,,571.2478258330002,571.2478258330002,571.2478258330002,571.2478258330002,571.2478258330002,571.2478258330002,571.2478258330002,571.2478258330002,571.1462269163331,571.2478258330002,571.2478258330002,571.2478258330002,571.1462269163331,571.2478258330002,571.2478258330002,571.2478258330002,571.2478258330002,571.2478258330002,571.2478258330002,571.2478258330002,571.2478258330002,571.2478258330002,571.2478258330002,571.2478258330002,571.2478258330002,571.2478258330002,571.2478258330002,571.1962269163331,571.2478258330002,571.2478258330002,571.2478258330002,571.1962269163331,571.2478258330002,571.2478258330002,571.2478258330002,571.2478258330002,571.2478258330002,576.4748839160002,576.4748839160002,587.410012583,None,0,,reldom2_s016,001,2025-02-18_15h37.37.075,Where-A-Scan_AC,2022.2.5,None,
