Trial,Order,Block,Type,Stimuli_File1,Stimuli_File2,Stimuli_File3,Stimuli_File4,Cue_File1,Cue_File2,Response_File_Yes,Response_File_No,Match,Cue_Dimension,Pair1_Dimension,Pair2_Dimension,Key,Cue1_Duration,Cue1_Onset,Cue2_Duration,Cue2_Onset,ResponseYes_Duration,ResponseYes_Onset,ResponseNo_Duration,ResponseNo_Onset,ITI_Within,ITI_Between,Image1_Duration,Image1_Onset,Image2_Duration,Image2_Onset,Image3_Duration,Image3_Onset,Image4_Duration,Image4_Onset,Sound1_Duration,Sound1_Onset,Sound2_Duration,Sound2_Onset,Sound3_Duration,Sound3_Onset,Sound4_Duration,Sound4_Onset,Fixation_Duration,trials_2.thisRepN,trials_2.thisTrialN,trials_2.thisN,trials_2.thisIndex,trials.thisRepN,trials.thisTrialN,trials.thisN,trials.thisIndex,text_start.started,key_resp_start.started,key_resp_start.keys,key_resp_start.rt,text2.started,key_resp_2.started,key_resp_2.keys,key_resp_2.rt,cue_file1.started,cue_file1.stopped,image_1.started,image_1.stopped,image_2.started,image_2.stopped,sound_icon1.started,sound_icon1.stopped,sound_1.started,sound_1.stopped,sound_icon2.started,sound_icon2.stopped,sound_2.started,sound_2.stopped,image_blank_1.started,image_blank_1.stopped,key_press.started,key_press.stopped,fixation_text.started,cue_file2.started,cue_file2.stopped,image_3.started,image_3.stopped,image_4.started,image_4.stopped,sound_icon3.started,sound_icon3.stopped,sound_3.started,sound_3.stopped,sound_icon4.started,sound_icon4.stopped,sound_4.started,sound_4.stopped,response_yes.started,response_yes.stopped,response_no.started,response_no.stopped,iti_blank.started,iti_blank.stopped,fixation_text.stopped,key_press.keys,key_press.corr,key_press.rt,participant,session,date,expName,psychopyVersion,frameRate,
,,,,,,,,,,,,,,,,,,,,,,,,,,,,,,,,,,,,,,,,,,,,,,,,,,,,8.303554250000161,8.303554250000161,2,8.382901623999715,,,,,,,,,,,,,,,,,,,,,,,,,,,,,,,,,,,,,,,,,,,,,,,,reldom2_s005,001,2025-01-30_15h35.59.008,What-B-Scan_AC,2022.2.5,None,
,,,,,,,,,,,,,,,,,,,,,,,,,,,,,,,,,,,,,,,,,,,,0,0,0,0,,,,,,,,,16.710177167000438,16.710177167000438,5,18.133255208000264,,,,,,,,,,,,,,,,,,,,,,,,,,,,,,,,,,,,,,,,,,,,reldom2_s005,001,2025-01-30_15h35.59.008,What-B-Scan_AC,2022.2.5,None,
,,,,,,,,,,,,,,,,,,,,,,,,,,,,,,,,,,,,,,,,,,,,1,0,1,0,,,,,,,,,34.85244291700019,34.85244291700019,5,1.991087499999594,,,,,,,,,,,,,,,,,,,,,,,,,,,,,,,,,,,,,,,,,,,,reldom2_s005,001,2025-01-30_15h35.59.008,What-B-Scan_AC,2022.2.5,None,
,,,,,,,,,,,,,,,,,,,,,,,,,,,,,,,,,,,,,,,,,,,,2,0,2,0,,,,,,,,,36.860913999999866,36.860913999999866,5,1.9815007909992346,,,,,,,,,,,,,,,,,,,,,,,,,,,,,,,,,,,,,,,,,,,,reldom2_s005,001,2025-01-30_15h35.59.008,What-B-Scan_AC,2022.2.5,None,
,,,,,,,,,,,,,,,,,,,,,,,,,,,,,,,,,,,,,,,,,,,,3,0,3,0,,,,,,,,,38.85670887500055,38.85670887500055,5,1.9869089159992654,,,,,,,,,,,,,,,,,,,,,,,,,,,,,,,,,,,,,,,,,,,,reldom2_s005,001,2025-01-30_15h35.59.008,What-B-Scan_AC,2022.2.5,None,
0,0.0,None,fixation,stimulus/viswhat_stim/blank_white.png,stimulus/viswhat_stim/blank_white.png,stimulus/audwhat_stim/blank_white.png,stimulus/audwhat_stim/blank_white.png,stimulus/viswhat_stim/blank_white.png,stimulus/viswhat_stim/blank_white.png,stimulus/viswhat_stim/blank_white.png,stimulus/viswhat_stim/blank_white.png,0.0,0.0,0.0,0.0,0,0.0,0,0.0,0,0.0,0,0.0,0,0.0,0.0,0,0.0,0,0.0,0,0.0,0,0.0,0,0.0,0,0.0,0,0.0,0,0.0,16,,,,,0,0,0,0,,,,,,,,,41.04682183299974,41.04682183299974,41.04682183299974,41.04682183299974,41.04682183299974,41.04682183299974,41.04682183299974,41.04682183299974,40.94472641699995,41.04682183299974,41.04682183299974,41.04682183299974,40.94472641699995,41.04682183299974,41.04682183299974,41.04682183299974,41.04682183299974,41.04682183299974,41.04682183299974,41.04682183299974,41.04682183299974,41.04682183299974,41.04682183299974,41.04682183299974,41.04682183299974,41.04682183299974,41.04682183299974,40.994726416999946,41.04682183299974,41.04682183299974,41.04682183299974,40.994726416999946,41.04682183299974,41.04682183299974,41.04682183299974,41.04682183299974,41.04682183299974,46.23669429199981,46.23669429199981,57.488509792000514,None,0,,reldom2_s005,001,2025-01-30_15h35.59.008,What-B-Scan_AC,2022.2.5,None,
1,First_Order,1.0,viswhat,stimulus/viswhat_stim/blank_white.png,stimulus/viswhat_stim/blank_white.png,stimulus/viswhat_stim/water_vehicle-pirateship.png,stimulus/viswhat_stim/water_animal-lobster.png,stimulus/viswhat_stim/blank_white.png,stimulus/viswhat_stim/location_box.png,stimulus/viswhat_stim/location_yes.png,stimulus/viswhat_stim/location_no.png,None,Location,None,Location,1,0.0,0,5.125,0,5.125,0,5.125,0,0.0,0.625,0,0.0,0,0.0,1,0.5,1,2.125,0,0.0,0,0.0,0,0.0,0,0.0,0,,,,,0,1,1,1,,,,,,,,,57.488509792000514,57.488509792000514,57.488509792000514,57.488509792000514,57.488509792000514,57.488509792000514,57.488509792000514,57.488509792000514,57.18567825000027,57.488509792000514,57.488509792000514,57.488509792000514,57.18567825000027,57.488509792000514,57.488509792000514,57.488509792000514,59.582292416999735,63.54793470799996,57.488509792000514,57.488509792000514,62.879015292000076,57.935664958000416,59.13353412500055,59.582292416999735,60.7828409169997,57.488509792000514,57.488509792000514,57.35234491666694,57.488509792000514,57.488509792000514,57.488509792000514,57.35234491666694,57.488509792000514,57.488509792000514,62.879015292000076,57.488509792000514,62.879015292000076,62.58317037500001,,57.488509792000514,1,1,1.3886320829997203,reldom2_s005,001,2025-01-30_15h35.59.008,What-B-Scan_AC,2022.2.5,None,
2,First_Order,1.0,viswhat,stimulus/viswhat_stim/blank_white.png,stimulus/viswhat_stim/blank_white.png,stimulus/viswhat_stim/land_vehicle-firetruck.png,stimulus/viswhat_stim/water_vehicle-jetski.png,stimulus/viswhat_stim/blank_white.png,stimulus/viswhat_stim/location_box.png,stimulus/viswhat_stim/location_yes.png,stimulus/viswhat_stim/location_no.png,None,Location,None,Type,2,0.0,0,5.125,0,5.125,0,5.125,0,0.0,0.625,0,0.0,0,0.0,1,0.5,1,2.125,0,0.0,0,0.0,0,0.0,0,0.0,0,,,,,0,2,2,2,,,,,,,,,63.54793470799996,63.54793470799996,63.54793470799996,63.54793470799996,63.54793470799996,63.54793470799996,63.54793470799996,63.54793470799996,63.517582582999786,63.54793470799996,63.54793470799996,63.54793470799996,63.517582582999786,63.54793470799996,63.54793470799996,63.54793470799996,65.64915133300019,69.69103583300057,63.54793470799996,63.54793470799996,68.68239504200028,64.02270387499993,65.05112912500044,65.64915133300019,66.67854529200031,63.54793470799996,63.54793470799996,63.53424924966645,63.54793470799996,63.54793470799996,63.54793470799996,63.53424924966645,63.54793470799996,63.54793470799996,68.68239504200028,63.54793470799996,68.68239504200028,68.75877108300028,69.39314683300017,63.54793470799996,2,1,1.0535144999994372,reldom2_s005,001,2025-01-30_15h35.59.008,What-B-Scan_AC,2022.2.5,None,
3,First_Order,1.0,viswhat,stimulus/viswhat_stim/blank_white.png,stimulus/viswhat_stim/blank_white.png,stimulus/viswhat_stim/land_animal-moose.png,stimulus/viswhat_stim/water_animal-jellyfish.png,stimulus/viswhat_stim/blank_white.png,stimulus/viswhat_stim/type_box.png,stimulus/viswhat_stim/type_yes.png,stimulus/viswhat_stim/type_no.png,None,Type,None,Type,1,0.0,0,5.125,0,5.125,0,5.125,0,0.0,0.625,0,0.0,0,0.0,1,0.5,1,2.125,0,0.0,0,0.0,0,0.0,0,0.0,0,,,,,0,3,3,3,,,,,,,,,69.69103583300057,69.69103583300057,69.69103583300057,69.69103583300057,69.69103583300057,69.69103583300057,69.69103583300057,69.69103583300057,69.58887300000023,69.69103583300057,69.69103583300057,69.69103583300057,69.58887300000023,69.69103583300057,69.69103583300057,69.69103583300057,71.75838854199992,75.79233295799986,69.69103583300057,69.69103583300057,74.85545220800032,70.17699812499995,71.27216166700055,71.75838854199992,72.85472949999985,69.69103583300057,69.69103583300057,69.63887300000025,69.69103583300057,69.69103583300057,69.69103583300057,69.63887300000025,69.69103583300057,69.69103583300057,74.85545220800032,69.69103583300057,74.85545220800032,74.91122687500047,75.79233295799986,69.69103583300057,1,1,0.6634978749989386,reldom2_s005,001,2025-01-30_15h35.59.008,What-B-Scan_AC,2022.2.5,None,
4,First_Order,1.0,viswhat,stimulus/viswhat_stim/blank_white.png,stimulus/viswhat_stim/blank_white.png,stimulus/viswhat_stim/land_animal-tiger.png,stimulus/viswhat_stim/land_vehicle-rv.png,stimulus/viswhat_stim/blank_white.png,stimulus/viswhat_stim/type_box.png,stimulus/viswhat_stim/type_yes.png,stimulus/viswhat_stim/type_no.png,None,Type,None,Location,2,0.0,0,5.125,0,5.125,0,5.125,0,0.0,0.625,0,0.0,0,0.0,1,0.5,1,2.125,0,0.0,0,0.0,0,0.0,0,0.0,0,,,,,0,4,4,4,,,,,,,,,75.79233295799986,75.79233295799986,75.79233295799986,75.79233295799986,75.79233295799986,75.79233295799986,75.79233295799986,75.79233295799986,75.73883458366679,75.79233295799986,75.79233295799986,75.79233295799986,75.73883458366679,75.79233295799986,75.79233295799986,75.79233295799986,77.90373741700023,81.94522000000052,75.79233295799986,75.79233295799986,80.92920049999975,76.24921641699984,77.27113795800051,77.90373741700023,78.92806137499974,75.79233295799986,75.79233295799986,75.77216791700012,75.79233295799986,75.79233295799986,75.79233295799986,75.77216791700012,75.79233295799986,75.79233295799986,80.92920049999975,75.79233295799986,80.92920049999975,81.01779262499986,81.66740887500055,75.79233295799986,2,1,1.075435832999574,reldom2_s005,001,2025-01-30_15h35.59.008,What-B-Scan_AC,2022.2.5,None,
0,0.0,None,fixation,stimulus/viswhat_stim/blank_white.png,stimulus/viswhat_stim/blank_white.png,stimulus/audwhat_stim/blank_white.png,stimulus/audwhat_stim/blank_white.png,stimulus/viswhat_stim/blank_white.png,stimulus/viswhat_stim/blank_white.png,stimulus/viswhat_stim/blank_white.png,stimulus/viswhat_stim/blank_white.png,0.0,0.0,0.0,0.0,0,0.0,0,0.0,0,0.0,0,0.0,0,0.0,0.0,0,0.0,0,0.0,0,0.0,0,0.0,0,0.0,0,0.0,0,0.0,0,0.0,9,,,,,0,5,5,5,,,,,,,,,81.94522000000052,81.94522000000052,81.94522000000052,81.94522000000052,81.94522000000052,81.94522000000052,81.94522000000052,81.94522000000052,81.84315549966674,81.94522000000052,81.94522000000052,81.94522000000052,81.84315549966674,81.94522000000052,81.94522000000052,81.94522000000052,81.94522000000052,81.94522000000052,81.94522000000052,81.94522000000052,81.94522000000052,81.94522000000052,81.94522000000052,81.94522000000052,81.94522000000052,81.94522000000052,81.94522000000052,81.89315549966675,81.94522000000052,81.94522000000052,81.94522000000052,81.89315549966675,81.94522000000052,81.94522000000052,81.94522000000052,81.94522000000052,81.94522000000052,87.13336662500024,87.13336662500024,91.12768599999981,None,0,,reldom2_s005,001,2025-01-30_15h35.59.008,What-B-Scan_AC,2022.2.5,None,
5,Second_Order,1.0,viswhat,stimulus/viswhat_stim/land_animal-bunny.png,stimulus/viswhat_stim/land_vehicle-motorcycle.png,stimulus/viswhat_stim/water_animal-octopus.png,stimulus/viswhat_stim/land_animal-fox.png,stimulus/viswhat_stim/match_blank.png,stimulus/viswhat_stim/match_box.png,stimulus/viswhat_stim/match_yes.png,stimulus/viswhat_stim/match_no.png,2.0,Match,Location,Type,2,5.125,0,5.125,0,5.125,0,5.125,0,0.75,0.75,1,0.5,1,2.125,1,0.5,1,2.125,0,0.0,0,0.0,0,0.0,0,0.0,0,,,,,0,6,6,6,,,,,,,,,91.12768599999981,96.24490020800022,91.56522712500009,92.56352779200006,93.18681929200011,94.18409458299993,91.12768599999981,91.12768599999981,91.13419604166727,91.12768599999981,91.12768599999981,91.12768599999981,91.13419604166727,91.12768599999981,96.24490020800022,97.04532395800015,99.14507579200017,103.03691495800012,97.04532395800015,97.04532395800015,102.18550070800029,97.52008116700017,98.53412050000043,99.14507579200017,100.16304908300026,97.04532395800015,97.04532395800015,97.02761679199993,97.04532395800015,97.04532395800015,97.04532395800015,97.02761679199993,97.04532395800015,97.04532395800015,102.18550070800029,97.04532395800015,102.18550070800029,102.23775837500034,,97.04532395800015,2,1,0.7902292079998006,reldom2_s005,001,2025-01-30_15h35.59.008,What-B-Scan_AC,2022.2.5,None,
6,Second_Order,1.0,viswhat,stimulus/viswhat_stim/land_vehicle-tank.png,stimulus/viswhat_stim/land_animal-wolf.png,stimulus/viswhat_stim/water_vehicle-motorboatraft.png,stimulus/viswhat_stim/water_animal-squid.png,stimulus/viswhat_stim/match_blank.png,stimulus/viswhat_stim/match_box.png,stimulus/viswhat_stim/match_yes.png,stimulus/viswhat_stim/match_no.png,1.0,Match,Location,Location,1,5.125,0,5.125,0,5.125,0,5.125,0,0.625,0.625,1,0.5,1,2.125,1,0.5,1,2.125,0,0.0,0,0.0,0,0.0,0,0.0,0,,,,,0,7,7,7,,,,,,,,,103.03691495800012,108.15457324999988,103.50950404200012,104.50813145800021,105.13119795800048,106.12873829199998,103.03691495800012,103.03691495800012,103.03323179166642,103.03691495800012,103.03691495800012,103.03691495800012,103.03323179166642,103.03691495800012,108.15457324999988,108.83324833300048,110.93467150000015,,108.83324833300048,108.83324833300048,113.96919612500005,109.28418220799995,110.30437479200009,110.93467150000015,111.96111508300055,108.83324833300048,108.83324833300048,108.81781354200011,108.83324833300048,108.83324833300048,108.83324833300048,108.81781354200011,108.83324833300048,108.83324833300048,113.96919612500005,108.83324833300048,113.96919612500005,114.04253216699999,114.67524150000008,108.83324833300048,1,1,0.6961960409989842,reldom2_s005,001,2025-01-30_15h35.59.008,What-B-Scan_AC,2022.2.5,None,
0,0.0,None,fixation,stimulus/viswhat_stim/blank_white.png,stimulus/viswhat_stim/blank_white.png,stimulus/audwhat_stim/blank_white.png,stimulus/audwhat_stim/blank_white.png,stimulus/viswhat_stim/blank_white.png,stimulus/viswhat_stim/blank_white.png,stimulus/viswhat_stim/blank_white.png,stimulus/viswhat_stim/blank_white.png,0.0,0.0,0.0,0.0,0,0.0,0,0.0,0,0.0,0,0.0,0,0.0,0.0,0,0.0,0,0.0,0,0.0,0,0.0,0,0.0,0,0.0,0,0.0,0,0.0,9,,,,,0,8,8,8,,,,,,,,,114.95830866699998,114.95830866699998,114.95830866699998,114.95830866699998,114.95830866699998,114.95830866699998,114.95830866699998,114.95830866699998,114.84828862499998,114.95830866699998,114.95830866699998,114.95830866699998,114.84828862499998,114.95830866699998,114.95830866699998,114.95830866699998,114.95830866699998,114.95830866699998,114.95830866699998,114.95830866699998,114.95830866699998,114.95830866699998,114.95830866699998,114.95830866699998,114.95830866699998,114.95830866699998,114.95830866699998,114.91495529166666,114.95830866699998,114.95830866699998,114.95830866699998,114.91495529166666,114.95830866699998,114.95830866699998,114.95830866699998,114.95830866699998,114.95830866699998,120.17865145799988,120.17865145799988,124.41378600000007,None,0,,reldom2_s005,001,2025-01-30_15h35.59.008,What-B-Scan_AC,2022.2.5,None,
7,First_Order,2.0,viswhat,stimulus/viswhat_stim/blank_white.png,stimulus/viswhat_stim/blank_white.png,stimulus/viswhat_stim/water_animal-lobster.png,stimulus/viswhat_stim/water_vehicle-canoe.png,stimulus/viswhat_stim/blank_white.png,stimulus/viswhat_stim/location_box.png,stimulus/viswhat_stim/location_yes.png,stimulus/viswhat_stim/location_no.png,None,Location,None,Location,1,0.0,0,5.125,0,5.125,0,5.125,0,0.0,0.625,0,0.0,0,0.0,1,0.5,1,2.125,0,0.0,0,0.0,0,0.0,0,0.0,0,,,,,0,9,9,9,,,,,,,,,124.41378600000007,124.41378600000007,124.41378600000007,124.41378600000007,124.41378600000007,124.41378600000007,124.41378600000007,124.41378600000007,124.12217883366672,124.41378600000007,124.41378600000007,124.41378600000007,124.12217883366672,124.41378600000007,124.41378600000007,124.41378600000007,126.39411583299989,,124.41378600000007,124.41378600000007,129.74868929200056,124.8740816669997,126.08965641699979,126.39411583299989,127.62039766700036,124.41378600000007,124.41378600000007,124.27217883366671,124.41378600000007,124.41378600000007,124.41378600000007,124.27217883366671,124.41378600000007,124.41378600000007,129.74868929200056,124.41378600000007,129.74868929200056,129.60275329199976,,124.41378600000007,1,1,0.8868252080001184,reldom2_s005,001,2025-01-30_15h35.59.008,What-B-Scan_AC,2022.2.5,None,
8,First_Order,2.0,viswhat,stimulus/viswhat_stim/blank_white.png,stimulus/viswhat_stim/blank_white.png,stimulus/viswhat_stim/water_animal-jellyfish.png,stimulus/viswhat_stim/land_animal-bunny.png,stimulus/viswhat_stim/blank_white.png,stimulus/viswhat_stim/type_box.png,stimulus/viswhat_stim/type_yes.png,stimulus/viswhat_stim/type_no.png,None,Type,None,Type,1,0.0,0,5.125,0,5.125,0,5.125,0,0.0,0.625,0,0.0,0,0.0,1,0.5,1,2.125,0,0.0,0,0.0,0,0.0,0,0.0,0,,,,,0,10,10,10,,,,,,,,,130.48293525000008,130.48293525000008,130.48293525000008,130.48293525000008,130.48293525000008,130.48293525000008,130.48293525000008,130.48293525000008,130.39091637500007,130.48293525000008,130.48293525000008,130.48293525000008,130.39091637500007,130.48293525000008,130.48293525000008,130.48293525000008,132.54936220800028,,130.48293525000008,130.48293525000008,135.68343020800057,130.95995037500052,132.02087358300014,132.54936220800028,133.61435070800053,130.48293525000008,130.48293525000008,130.44091637500006,130.48293525000008,130.48293525000008,130.48293525000008,130.44091637500006,130.48293525000008,130.48293525000008,135.68343020800057,130.48293525000008,135.68343020800057,135.68343020800057,136.3468902499999,130.48293525000008,1,1,1.1108188329990298,reldom2_s005,001,2025-01-30_15h35.59.008,What-B-Scan_AC,2022.2.5,None,
9,First_Order,2.0,viswhat,stimulus/viswhat_stim/blank_white.png,stimulus/viswhat_stim/blank_white.png,stimulus/viswhat_stim/land_animal-cat.png,stimulus/viswhat_stim/water_animal-whale (1).png,stimulus/viswhat_stim/blank_white.png,stimulus/viswhat_stim/location_box.png,stimulus/viswhat_stim/location_yes.png,stimulus/viswhat_stim/location_no.png,None,Location,None,Type,2,0.0,0,5.125,0,5.125,0,5.125,0,0.0,0.625,0,0.0,0,0.0,1,0.5,1,2.125,0,0.0,0,0.0,0,0.0,0,0.0,0,,,,,0,11,11,11,,,,,,,,,136.55030720800005,136.55030720800005,136.55030720800005,136.55030720800005,136.55030720800005,136.55030720800005,136.55030720800005,136.55030720800005,136.4968902499999,136.55030720800005,136.55030720800005,136.55030720800005,136.4968902499999,136.55030720800005,136.55030720800005,136.55030720800005,138.63838354200016,142.67665845800002,136.55030720800005,136.55030720800005,141.7119767920003,137.00972808300048,138.05291337500057,138.63838354200016,139.65618987500056,136.55030720800005,136.55030720800005,136.53022358333322,136.55030720800005,136.55030720800005,136.55030720800005,136.53022358333322,136.55030720800005,136.55030720800005,141.7119767920003,136.55030720800005,141.7119767920003,141.76624995800012,142.41028729200025,136.55030720800005,2,1,1.4532719580001867,reldom2_s005,001,2025-01-30_15h35.59.008,What-B-Scan_AC,2022.2.5,None,
10,First_Order,2.0,viswhat,stimulus/viswhat_stim/blank_white.png,stimulus/viswhat_stim/blank_white.png,stimulus/viswhat_stim/water_animal-shark.png,stimulus/viswhat_stim/water_vehicle-yacht.png,stimulus/viswhat_stim/blank_white.png,stimulus/viswhat_stim/type_box.png,stimulus/viswhat_stim/type_yes.png,stimulus/viswhat_stim/type_no.png,None,Type,None,Location,2,0.0,0,5.125,0,5.125,0,5.125,0,0.0,0.625,0,0.0,0,0.0,1,0.5,1,2.125,0,0.0,0,0.0,0,0.0,0,0.0,0,,,,,0,12,12,12,,,,,,,,,142.67665845800002,142.67665845800002,142.67665845800002,142.67665845800002,142.67665845800002,142.67665845800002,142.67665845800002,142.67665845800002,142.60731162466698,142.67665845800002,142.67665845800002,142.67665845800002,142.60731162466698,142.67665845800002,142.67665845800002,142.67665845800002,144.76409458299986,,142.67665845800002,142.67665845800002,147.85246995800026,143.1561446249998,144.19981516700045,144.76409458299986,145.81055858299987,142.67665845800002,142.67665845800002,142.6406449580003,142.67665845800002,142.67665845800002,142.67665845800002,142.6406449580003,142.67665845800002,142.67665845800002,147.85246995800026,142.67665845800002,147.85246995800026,147.89033008299975,148.5701363750004,142.67665845800002,2,1,1.479498749999948,reldom2_s005,001,2025-01-30_15h35.59.008,What-B-Scan_AC,2022.2.5,None,
0,0.0,None,fixation,stimulus/viswhat_stim/blank_white.png,stimulus/viswhat_stim/blank_white.png,stimulus/audwhat_stim/blank_white.png,stimulus/audwhat_stim/blank_white.png,stimulus/viswhat_stim/blank_white.png,stimulus/viswhat_stim/blank_white.png,stimulus/viswhat_stim/blank_white.png,stimulus/viswhat_stim/blank_white.png,0.0,0.0,0.0,0.0,0,0.0,0,0.0,0,0.0,0,0.0,0,0.0,0.0,0,0.0,0,0.0,0,0.0,0,0.0,0,0.0,0,0.0,0,0.0,0,0.0,10,,,,,0,13,13,13,,,,,,,,,148.80840012499993,148.80840012499993,148.80840012499993,148.80840012499993,148.80840012499993,148.80840012499993,148.80840012499993,148.80840012499993,148.70346970833376,148.80840012499993,148.80840012499993,148.80840012499993,148.70346970833376,148.80840012499993,148.80840012499993,148.80840012499993,148.80840012499993,148.80840012499993,148.80840012499993,148.80840012499993,148.80840012499993,148.80840012499993,148.80840012499993,148.80840012499993,148.80840012499993,148.80840012499993,148.80840012499993,148.75346970833374,148.80840012499993,148.80840012499993,148.80840012499993,148.75346970833374,148.80840012499993,148.80840012499993,148.80840012499993,148.80840012499993,148.80840012499993,154.02022445800048,154.02022445800048,158.91768712500016,None,0,,reldom2_s005,001,2025-01-30_15h35.59.008,What-B-Scan_AC,2022.2.5,None,
11,Second_Order,2.0,viswhat,stimulus/viswhat_stim/land_animal-ostrich.png,stimulus/viswhat_stim/water_animal-stingray.png,stimulus/viswhat_stim/water_vehicle-cruiseship.png,stimulus/viswhat_stim/water_animal-seaturtle.png,stimulus/viswhat_stim/match_blank.png,stimulus/viswhat_stim/match_box.png,stimulus/viswhat_stim/match_yes.png,stimulus/viswhat_stim/match_no.png,2.0,Match,Type,Location,2,5.125,0,5.125,0,5.125,0,5.125,0,0.75,0.75,1,0.5,1,2.125,1,0.5,1,2.125,0,0.0,0,0.0,0,0.0,0,0.0,0,,,,,0,14,14,14,,,,,,,,,158.91768712500016,164.03534379200028,159.38824962499984,160.37518154200006,161.02173120800035,162.01129149999997,158.91768712500016,158.91768712500016,158.92539345833316,158.91768712500016,158.91768712500016,158.91768712500016,158.92539345833316,158.91768712500016,164.03534379200028,164.99287754200031,167.04223075000027,,164.99287754200031,164.99287754200031,170.22258324999984,165.4039840000005,166.5310859580004,167.04223075000027,168.17184416700002,164.99287754200031,164.99287754200031,164.90145658333327,164.99287754200031,164.99287754200031,164.99287754200031,164.90145658333327,164.99287754200031,164.99287754200031,170.22258324999984,164.99287754200031,170.22258324999984,170.12494162500025,,164.99287754200031,2,1,2.013179624998884,reldom2_s005,001,2025-01-30_15h35.59.008,What-B-Scan_AC,2022.2.5,None,
12,Second_Order,2.0,viswhat,stimulus/viswhat_stim/land_animal-ostrich.png,stimulus/viswhat_stim/land_vehicle-oldcar.png,stimulus/viswhat_stim/water_vehicle-ship.png,stimulus/viswhat_stim/land_vehicle-vespa.png,stimulus/viswhat_stim/match_blank.png,stimulus/viswhat_stim/match_box.png,stimulus/viswhat_stim/match_yes.png,stimulus/viswhat_stim/match_no.png,2.0,Match,Location,Type,2,5.125,0,5.125,0,5.125,0,5.125,0,0.625,0.625,1,0.5,1,2.125,1,0.5,1,2.125,0,0.0,0,0.0,0,0.0,0,0.0,0,,,,,0,15,15,15,,,,,,,,,170.9349398330005,176.056800458,171.39570591699976,172.3844878330001,173.02064537499973,174.0183134580002,170.9349398330005,170.9349398330005,170.93937566633372,170.9349398330005,170.9349398330005,170.9349398330005,170.93937566633372,170.9349398330005,176.056800458,176.82414741699995,178.9059385420005,182.95869562500047,176.82414741699995,176.82414741699995,182.03154020800048,177.2411876670003,178.35069408300023,178.9059385420005,180.02115770799992,176.82414741699995,176.82414741699995,176.75793300033305,176.82414741699995,176.82414741699995,176.82414741699995,176.75793300033305,176.82414741699995,176.82414741699995,182.03154020800048,176.82414741699995,182.03154020800048,182.03154020800048,182.95869562500047,176.82414741699995,2,1,0.8474853739999162,reldom2_s005,001,2025-01-30_15h35.59.008,What-B-Scan_AC,2022.2.5,None,
0,0.0,None,fixation,stimulus/viswhat_stim/blank_white.png,stimulus/viswhat_stim/blank_white.png,stimulus/audwhat_stim/blank_white.png,stimulus/audwhat_stim/blank_white.png,stimulus/viswhat_stim/blank_white.png,stimulus/viswhat_stim/blank_white.png,stimulus/viswhat_stim/blank_white.png,stimulus/viswhat_stim/blank_white.png,0.0,0.0,0.0,0.0,0,0.0,0,0.0,0,0.0,0,0.0,0,0.0,0.0,0,0.0,0,0.0,0,0.0,0,0.0,0,0.0,0,0.0,0,0.0,0,0.0,9,,,,,0,16,16,16,,,,,,,,,182.95869562500047,182.95869562500047,182.95869562500047,182.95869562500047,182.95869562500047,182.95869562500047,182.95869562500047,182.95869562500047,182.85183412533382,182.95869562500047,182.95869562500047,182.95869562500047,182.85183412533382,182.95869562500047,182.95869562500047,182.95869562500047,182.95869562500047,182.95869562500047,182.95869562500047,182.95869562500047,182.95869562500047,182.95869562500047,182.95869562500047,182.95869562500047,182.95869562500047,182.95869562500047,182.95869562500047,182.90183412533383,182.95869562500047,182.95869562500047,182.95869562500047,182.90183412533383,182.95869562500047,182.95869562500047,182.95869562500047,182.95869562500047,182.95869562500047,188.14018079200014,188.14018079200014,192.22867599999972,None,0,,reldom2_s005,001,2025-01-30_15h35.59.008,What-B-Scan_AC,2022.2.5,None,
13,First_Order,3.0,audwhat,stimulus/audwhat_stim/dummy.wav,stimulus/audwhat_stim/dummy.wav,stimulus/audwhat_stim/percussion mallet_low-pitch_Ftri_loud.wav,stimulus/audwhat_stim/percussion xylophone_high-pitch_Dtri_loud.wav,stimulus/audwhat_stim/blank_white.png,stimulus/audwhat_stim/pitch_box.png,stimulus/audwhat_stim/pitch_yes.png,stimulus/audwhat_stim/pitch_no.png,None,Pitch,None,Category,2,0.0,0,5.125,0,5.125,0,5.125,0,0.0,0.625,0,0.0,0,0.0,0,0.0,0,0.0,0,0.0,0,0.0,1,0.5,1,2.125,0,,,,,0,17,17,17,,,,,,,,,192.22867599999972,192.22867599999972,192.22867599999972,192.22867599999972,192.22867599999972,192.22867599999972,192.22867599999972,192.22867599999972,192.14921995866706,192.22867599999972,192.22867599999972,192.22867599999972,192.14921995866706,192.22867599999972,192.22867599999972,192.22867599999972,194.30465908299993,,192.22867599999972,192.22867599999972,197.41580141699978,192.22867599999972,192.22867599999972,192.22867599999972,192.22867599999972,192.70079929199983,193.74084112499986,192.67014491666694,,194.30465908299993,195.347902083,194.2739150416667,195.347902083,192.22867599999972,197.41580141699978,192.22867599999972,197.41580141699978,197.45798266700058,198.12097783300032,192.22867599999972,2,1,0.8589232079993963,reldom2_s005,001,2025-01-30_15h35.59.008,What-B-Scan_AC,2022.2.5,None,
14,First_Order,3.0,audwhat,stimulus/audwhat_stim/dummy.wav,stimulus/audwhat_stim/dummy.wav,stimulus/audwhat_stim/string cello_low-pitch_D_loud.wav,stimulus/audwhat_stim/percussion mallet_low-pitch_D_loud.wav,stimulus/audwhat_stim/blank_white.png,stimulus/audwhat_stim/pitch_box.png,stimulus/audwhat_stim/pitch_yes.png,stimulus/audwhat_stim/pitch_no.png,None,Pitch,None,Pitch,1,0.0,0,5.125,0,5.125,0,5.125,0,0.0,0.625,0,0.0,0,0.0,0,0.0,0,0.0,0,0.0,0,0.0,1,0.5,1,2.125,0,,,,,0,18,18,18,,,,,,,,,198.337792583,198.337792583,198.337792583,198.337792583,198.337792583,198.337792583,198.337792583,198.337792583,198.25431116633368,198.337792583,198.337792583,198.337792583,198.25431116633368,198.337792583,198.337792583,198.337792583,200.4094008330003,,198.337792583,198.337792583,203.5172136250003,198.337792583,198.337792583,198.337792583,198.337792583,198.80829354199977,199.84555350000028,198.77797195866722,,200.4094008330003,201.44855025000015,200.3786200836669,,198.337792583,203.5172136250003,198.337792583,203.5172136250003,203.55900720800037,204.2194936249998,198.337792583,1,1,1.3195550000000367,reldom2_s005,001,2025-01-30_15h35.59.008,What-B-Scan_AC,2022.2.5,None,
15,First_Order,3.0,audwhat,stimulus/audwhat_stim/dummy.wav,stimulus/audwhat_stim/dummy.wav,stimulus/audwhat_stim/string cello_high-pitch_D_loud.wav,stimulus/audwhat_stim/string cello_low-pitch_Ftri_loud.wav,stimulus/audwhat_stim/blank_white.png,stimulus/audwhat_stim/category_box.png,stimulus/audwhat_stim/category_yes.png,stimulus/audwhat_stim/category_no.png,None,Category,None,Category,1,0.0,0,5.125,0,5.125,0,5.125,0,0.0,0.625,0,0.0,0,0.0,0,0.0,0,0.0,0,0.0,0,0.0,1,0.5,1,2.125,0,,,,,0,19,19,19,,,,,,,,,204.44122616700042,204.44122616700042,204.44122616700042,204.44122616700042,204.44122616700042,204.44122616700042,204.44122616700042,204.44122616700042,204.35282695833317,204.44122616700042,204.44122616700042,204.44122616700042,204.35282695833317,204.44122616700042,204.44122616700042,204.44122616700042,206.52688837500045,,204.44122616700042,204.44122616700042,209.60832220800057,204.44122616700042,204.44122616700042,204.44122616700042,204.44122616700042,204.9161063749998,205.95834000000013,204.884622124667,,206.52688837500045,207.57376370800012,206.49615258366728,,204.44122616700042,209.60832220800057,204.44122616700042,209.60832220800057,209.6500981250001,210.31720808299997,204.44122616700042,1,1,0.590335124999001,reldom2_s005,001,2025-01-30_15h35.59.008,What-B-Scan_AC,2022.2.5,None,
16,First_Order,3.0,audwhat,stimulus/audwhat_stim/dummy.wav,stimulus/audwhat_stim/dummy.wav,stimulus/audwhat_stim/string viola_low-pitch_F_loud.wav,stimulus/audwhat_stim/percussion mallet_low-pitch_F_loud.wav,stimulus/audwhat_stim/blank_white.png,stimulus/audwhat_stim/category_box.png,stimulus/audwhat_stim/category_yes.png,stimulus/audwhat_stim/category_no.png,None,Category,None,Pitch,2,0.0,0,5.125,0,5.125,0,5.125,0,0.0,0.625,0,0.0,0,0.0,0,0.0,0,0.0,0,0.0,0,0.0,1,0.5,1,2.125,0,,,,,0,20,20,20,,,,,,,,,210.53427208300036,210.53427208300036,210.53427208300036,210.53427208300036,210.53427208300036,210.53427208300036,210.53427208300036,210.53427208300036,210.45054141633332,210.53427208300036,210.53427208300036,210.53427208300036,210.45054141633332,210.53427208300036,210.53427208300036,210.53427208300036,212.61715554200055,216.6917520420002,210.53427208300036,210.53427208300036,215.701181292,210.53427208300036,210.53427208300036,210.53427208300036,210.53427208300036,211.00958583300053,212.05047608299992,210.97849170866655,,212.61715554200055,213.66291462499976,212.58629912466702,,210.53427208300036,215.701181292,210.53427208300036,215.701181292,215.74286266699983,216.40750454200042,210.53427208300036,2,1,1.8091034579992993,reldom2_s005,001,2025-01-30_15h35.59.008,What-B-Scan_AC,2022.2.5,None,
0,0.0,None,fixation,stimulus/viswhat_stim/blank_white.png,stimulus/viswhat_stim/blank_white.png,stimulus/audwhat_stim/blank_white.png,stimulus/audwhat_stim/blank_white.png,stimulus/viswhat_stim/blank_white.png,stimulus/viswhat_stim/blank_white.png,stimulus/viswhat_stim/blank_white.png,stimulus/viswhat_stim/blank_white.png,0.0,0.0,0.0,0.0,0,0.0,0,0.0,0,0.0,0,0.0,0,0.0,0.0,0,0.0,0,0.0,0,0.0,0,0.0,0,0.0,0,0.0,0,0.0,0,0.0,9,,,,,0,21,21,21,,,,,,,,,216.6917520420002,216.6917520420002,216.6917520420002,216.6917520420002,216.6917520420002,216.6917520420002,216.6917520420002,216.6917520420002,216.58180229133373,216.6917520420002,216.6917520420002,216.6917520420002,216.58180229133373,216.6917520420002,216.6917520420002,216.6917520420002,216.6917520420002,216.6917520420002,216.6917520420002,216.6917520420002,216.6917520420002,216.6917520420002,216.6917520420002,216.6917520420002,216.6917520420002,216.6917520420002,216.6917520420002,216.6484689580004,216.6917520420002,216.6917520420002,216.6917520420002,216.6484689580004,216.6917520420002,216.6917520420002,216.6917520420002,216.6917520420002,216.6917520420002,221.9130923749999,221.9130923749999,225.87137562499993,None,0,,reldom2_s005,001,2025-01-30_15h35.59.008,What-B-Scan_AC,2022.2.5,None,
17,Second_Order,3.0,audwhat,stimulus/audwhat_stim/percussion mallet_high-pitch_Ftri_loud.wav,stimulus/audwhat_stim/string cello_high-pitch_Ftri_loud.wav,stimulus/audwhat_stim/percussion mallet_low-pitch_D_loud.wav,stimulus/audwhat_stim/string viola_low-pitch_D_loud.wav,stimulus/viswhat_stim/match_blank.png,stimulus/viswhat_stim/match_box.png,stimulus/viswhat_stim/match_yes.png,stimulus/viswhat_stim/match_no.png,1.0,Match,Pitch,Pitch,1,5.125,0,5.125,0,5.125,0,5.125,0,0.75,0.75,0,0.0,0,0.0,0,0.0,0,0.0,1,0.5,1,2.125,1,0.5,1,2.125,0,,,,,0,22,22,22,,,,,,,,,225.87137562499993,230.98730941699978,225.87137562499993,225.87137562499993,225.87137562499993,225.87137562499993,226.3265773330004,227.32462108300024,226.33929895866666,227.33264520800003,227.94708679199994,228.9450903750003,227.9592547916666,,230.98730941699978,231.82285666700045,233.89347325000017,237.82667370800027,231.82285666700045,231.82285666700045,237.0030565420002,231.82285666700045,231.82285666700045,231.82285666700045,231.82285666700045,232.2929173749999,233.3287087079998,232.26217966666653,,233.89347325000017,234.9321529580002,233.86267187466663,,231.82285666700045,237.0030565420002,231.82285666700045,237.0030565420002,237.0030565420002,,231.82285666700045,1,1,1.352452624999387,reldom2_s005,001,2025-01-30_15h35.59.008,What-B-Scan_AC,2022.2.5,None,
18,Second_Order,3.0,audwhat,stimulus/audwhat_stim/percussion mallet_high-pitch_Dtri_loud.wav,stimulus/audwhat_stim/string cello_high-pitch_Dtri_loud.wav,stimulus/audwhat_stim/string viola_low-pitch_Ftri_loud.wav,stimulus/audwhat_stim/percussion mallet_low-pitch_Ftri_loud.wav,stimulus/viswhat_stim/match_blank.png,stimulus/viswhat_stim/match_box.png,stimulus/viswhat_stim/match_yes.png,stimulus/viswhat_stim/match_no.png,1.0,Match,Pitch,Pitch,1,5.125,0,5.125,0,5.125,0,5.125,0,0.625,0.625,0,0.0,0,0.0,0,0.0,0,0.0,1,0.5,1,2.125,1,0.5,1,2.125,0,,,,,0,23,23,23,,,,,,,,,237.82667370800027,242.9486503750004,237.82667370800027,237.82667370800027,237.82667370800027,237.82667370800027,238.28309383299984,239.2773097500003,238.28631954166693,239.2773097500003,239.9087609170001,240.90616425000007,239.9204497086669,,242.9486503750004,243.6617100829999,245.7216110420004,,243.6617100829999,243.6617100829999,248.82236199999988,243.6617100829999,243.6617100829999,243.6617100829999,243.6617100829999,244.12914437500058,245.1619972919998,244.09891849966723,,245.7216110420004,246.75366866700006,245.69187054166676,,243.6617100829999,248.82236199999988,243.6617100829999,248.82236199999988,248.86568183300005,249.52667100000053,243.6617100829999,1,1,2.1480726659992797,reldom2_s005,001,2025-01-30_15h35.59.008,What-B-Scan_AC,2022.2.5,None,
0,0.0,None,fixation,stimulus/viswhat_stim/blank_white.png,stimulus/viswhat_stim/blank_white.png,stimulus/audwhat_stim/blank_white.png,stimulus/audwhat_stim/blank_white.png,stimulus/viswhat_stim/blank_white.png,stimulus/viswhat_stim/blank_white.png,stimulus/viswhat_stim/blank_white.png,stimulus/viswhat_stim/blank_white.png,0.0,0.0,0.0,0.0,0,0.0,0,0.0,0,0.0,0,0.0,0,0.0,0.0,0,0.0,0,0.0,0,0.0,0,0.0,0,0.0,0,0.0,0,0.0,0,0.0,8,,,,,0,24,24,24,,,,,,,,,249.76577066699974,249.76577066699974,249.76577066699974,249.76577066699974,249.76577066699974,249.76577066699974,249.76577066699974,249.76577066699974,249.6600043333339,249.76577066699974,249.76577066699974,249.76577066699974,249.6600043333339,249.76577066699974,249.76577066699974,249.76577066699974,249.76577066699974,249.76577066699974,249.76577066699974,249.76577066699974,249.76577066699974,249.76577066699974,249.76577066699974,249.76577066699974,249.76577066699974,249.76577066699974,249.76577066699974,249.72667100000055,249.76577066699974,249.76577066699974,249.76577066699974,249.72667100000055,249.76577066699974,249.76577066699974,249.76577066699974,249.76577066699974,249.76577066699974,254.9578732079999,254.9578732079999,258.02119800000037,None,0,,reldom2_s005,001,2025-01-30_15h35.59.008,What-B-Scan_AC,2022.2.5,None,
19,First_Order,4.0,audwhat,stimulus/audwhat_stim/dummy.wav,stimulus/audwhat_stim/dummy.wav,stimulus/audwhat_stim/percussion mallet_low-pitch_Ftri_loud.wav,stimulus/audwhat_stim/string viola_low-pitch_Ftri_loud.wav,stimulus/audwhat_stim/blank_white.png,stimulus/audwhat_stim/pitch_box.png,stimulus/audwhat_stim/pitch_yes.png,stimulus/audwhat_stim/pitch_no.png,None,Pitch,None,Pitch,1,0.0,0,5.125,0,5.125,0,5.125,0,0.0,0.625,0,0.0,0,0.0,0,0.0,0,0.0,0,0.0,0,0.0,1,0.5,1,2.125,0,,,,,0,25,25,25,,,,,,,,,258.02119800000037,258.02119800000037,258.02119800000037,258.02119800000037,258.02119800000037,258.02119800000037,258.02119800000037,258.02119800000037,257.94526891666703,258.02119800000037,258.02119800000037,258.02119800000037,257.94526891666703,258.02119800000037,258.02119800000037,258.02119800000037,260.09215183300057,,258.02119800000037,258.02119800000037,263.198959458,258.02119800000037,258.02119800000037,258.02119800000037,258.02119800000037,258.4929605420002,259.5288801249999,258.4621413336665,,260.09215183300057,261.13076558300054,260.0620837086665,,258.02119800000037,263.198959458,258.02119800000037,263.198959458,263.2407655830002,263.9019655000002,258.02119800000037,2,0,1.2845826249995298,reldom2_s005,001,2025-01-30_15h35.59.008,What-B-Scan_AC,2022.2.5,None,
20,First_Order,4.0,audwhat,stimulus/audwhat_stim/dummy.wav,stimulus/audwhat_stim/dummy.wav,stimulus/audwhat_stim/string viola_low-pitch_F_loud.wav,stimulus/audwhat_stim/string cello_high-pitch_Ftri_loud.wav,stimulus/audwhat_stim/blank_white.png,stimulus/audwhat_stim/category_box.png,stimulus/audwhat_stim/category_yes.png,stimulus/audwhat_stim/category_no.png,None,Category,None,Category,1,0.0,0,5.125,0,5.125,0,5.125,0,0.0,0.625,0,0.0,0,0.0,0,0.0,0,0.0,0,0.0,0,0.0,1,0.5,1,2.125,0,,,,,0,26,26,26,,,,,,,,,264.1202941250003,264.1202941250003,264.1202941250003,264.1202941250003,264.1202941250003,264.1202941250003,264.1202941250003,264.1202941250003,264.0352988333335,264.1202941250003,264.1202941250003,264.1202941250003,264.0352988333335,264.1202941250003,264.1202941250003,264.1202941250003,266.2025715,,264.1202941250003,264.1202941250003,269.29054412500045,264.1202941250003,264.1202941250003,264.1202941250003,264.1202941250003,264.59357550000004,265.6356073329998,264.5625971246666,,266.2025715,267.2547871249999,266.17184849966657,,264.1202941250003,269.29054412500045,264.1202941250003,269.29054412500045,269.332574,269.99773325000024,264.1202941250003,1,1,1.201547374999791,reldom2_s005,001,2025-01-30_15h35.59.008,What-B-Scan_AC,2022.2.5,None,
21,First_Order,4.0,audwhat,stimulus/audwhat_stim/dummy.wav,stimulus/audwhat_stim/dummy.wav,stimulus/audwhat_stim/string viola_high-pitch_F_loud.wav,stimulus/audwhat_stim/percussion mallet_high-pitch_F_loud.wav,stimulus/audwhat_stim/blank_white.png,stimulus/audwhat_stim/category_box.png,stimulus/audwhat_stim/category_yes.png,stimulus/audwhat_stim/category_no.png,None,Category,None,Pitch,2,0.0,0,5.125,0,5.125,0,5.125,0,0.0,0.625,0,0.0,0,0.0,0,0.0,0,0.0,0,0.0,0,0.0,1,0.5,1,2.125,0,,,,,0,27,27,27,,,,,,,,,270.21480625000004,270.21480625000004,270.21480625000004,270.21480625000004,270.21480625000004,270.21480625000004,270.21480625000004,270.21480625000004,270.13106658333356,270.21480625000004,270.21480625000004,270.21480625000004,270.13106658333356,270.21480625000004,270.21480625000004,270.21480625000004,272.2955570000004,276.34114429200054,270.21480625000004,270.21480625000004,275.37435512499997,270.21480625000004,270.21480625000004,270.21480625000004,270.21480625000004,270.68654720799987,271.72814862500036,270.6559974166669,,272.2955570000004,273.3415117080003,272.2649644996666,,270.21480625000004,275.37435512499997,270.21480625000004,275.37435512499997,275.4159365830001,276.08141454199995,270.21480625000004,2,1,1.2625757499990868,reldom2_s005,001,2025-01-30_15h35.59.008,What-B-Scan_AC,2022.2.5,None,
22,First_Order,4.0,audwhat,stimulus/audwhat_stim/dummy.wav,stimulus/audwhat_stim/dummy.wav,stimulus/audwhat_stim/percussion xylophone_high-pitch_D_loud.wav,stimulus/audwhat_stim/percussion mallet_low-pitch_F_loud.wav,stimulus/audwhat_stim/blank_white.png,stimulus/audwhat_stim/pitch_box.png,stimulus/audwhat_stim/pitch_yes.png,stimulus/audwhat_stim/pitch_no.png,None,Pitch,None,Category,2,0.0,0,5.125,0,5.125,0,5.125,0,0.0,0.625,0,0.0,0,0.0,0,0.0,0,0.0,0,0.0,0,0.0,1,0.5,1,2.125,0,,,,,0,28,28,28,,,,,,,,,276.34114429200054,276.34114429200054,276.34114429200054,276.34114429200054,276.34114429200054,276.34114429200054,276.34114429200054,276.34114429200054,276.2562869163331,276.34114429200054,276.34114429200054,276.34114429200054,276.2562869163331,276.34114429200054,276.34114429200054,276.34114429200054,278.4217793329999,282.4802249579998,276.34114429200054,276.34114429200054,281.5345704580004,276.34114429200054,276.34114429200054,276.34114429200054,276.34114429200054,276.8128609579999,277.8555646670002,276.78218049966677,277.8555646670002,278.4217793329999,279.4637093749998,278.39083204166695,,276.34114429200054,281.5345704580004,276.34114429200054,281.5345704580004,281.5345704580004,282.19716920800056,276.34114429200054,2,1,0.8639350419998664,reldom2_s005,001,2025-01-30_15h35.59.008,What-B-Scan_AC,2022.2.5,None,
0,0.0,None,fixation,stimulus/viswhat_stim/blank_white.png,stimulus/viswhat_stim/blank_white.png,stimulus/audwhat_stim/blank_white.png,stimulus/audwhat_stim/blank_white.png,stimulus/viswhat_stim/blank_white.png,stimulus/viswhat_stim/blank_white.png,stimulus/viswhat_stim/blank_white.png,stimulus/viswhat_stim/blank_white.png,0.0,0.0,0.0,0.0,0,0.0,0,0.0,0,0.0,0,0.0,0,0.0,0.0,0,0.0,0,0.0,0,0.0,0,0.0,0,0.0,0,0.0,0,0.0,0,0.0,10,,,,,0,29,29,29,,,,,,,,,282.4802249579998,282.4802249579998,282.4802249579998,282.4802249579998,282.4802249579998,282.4802249579998,282.4802249579998,282.4802249579998,282.37174545833307,282.4802249579998,282.4802249579998,282.4802249579998,282.37174545833307,282.4802249579998,282.4802249579998,282.4802249579998,282.4802249579998,282.4802249579998,282.4802249579998,282.4802249579998,282.4802249579998,282.4802249579998,282.4802249579998,282.4802249579998,282.4802249579998,282.4802249579998,282.4802249579998,282.43841212499973,282.4802249579998,282.4802249579998,282.4802249579998,282.43841212499973,282.4802249579998,282.4802249579998,282.4802249579998,282.4802249579998,282.4802249579998,287.7030071670006,287.7030071670006,292.63766116700026,None,0,,reldom2_s005,001,2025-01-30_15h35.59.008,What-B-Scan_AC,2022.2.5,None,
23,Second_Order,4.0,audwhat,stimulus/audwhat_stim/percussion mallet_high-pitch_Ftri_loud.wav,stimulus/audwhat_stim/percussion mallet_low-pitch_Dtri_loud.wav,stimulus/audwhat_stim/percussion mallet_high-pitch_D_loud.wav,stimulus/audwhat_stim/string viola_high-pitch_D_loud.wav,stimulus/viswhat_stim/match_blank.png,stimulus/viswhat_stim/match_box.png,stimulus/viswhat_stim/match_yes.png,stimulus/viswhat_stim/match_no.png,2.0,Match,Category,Pitch,2,5.125,0,5.125,0,5.125,0,5.125,0,0.75,0.75,0,0.0,0,0.0,0,0.0,0,0.0,1,0.5,1,2.125,1,0.5,1,2.125,0,,,,,0,30,30,30,,,,,,,,,292.63766116700026,297.75943220800036,292.63766116700026,292.63766116700026,292.63766116700026,292.63766116700026,293.0930975830006,294.0817457080002,293.0963835836667,294.09513204199993,294.7153189999999,295.70235095800035,294.7294167916664,295.72370200000023,297.75943220800036,298.58965983300004,300.66402958300023,304.60188625000046,298.58965983300004,298.58965983300004,303.7772547499999,298.58965983300004,298.58965983300004,298.58965983300004,298.58965983300004,299.062383083,300.0988433749999,299.0315909996664,,300.66402958300023,301.70661420800025,300.6331084586666,,298.58965983300004,303.7772547499999,298.58965983300004,303.7772547499999,303.7772547499999,,298.58965983300004,2,1,0.7141198329991312,reldom2_s005,001,2025-01-30_15h35.59.008,What-B-Scan_AC,2022.2.5,None,
24,Second_Order,4.0,audwhat,stimulus/audwhat_stim/string viola_high-pitch_Dtri_loud.wav,stimulus/audwhat_stim/percussion mallet_high-pitch_Dtri_loud.wav,stimulus/audwhat_stim/string cello_low-pitch_Dtri_loud.wav,stimulus/audwhat_stim/string viola_high-pitch_Ftri_loud.wav,stimulus/viswhat_stim/match_blank.png,stimulus/viswhat_stim/match_box.png,stimulus/viswhat_stim/match_yes.png,stimulus/viswhat_stim/match_no.png,2.0,Match,Pitch,Category,2,5.125,0,5.125,0,5.125,0,5.125,0,0.625,0.625,0,0.0,0,0.0,0,0.0,0,0.0,1,0.5,1,2.125,1,0.5,1,2.125,0,,,,,0,31,31,31,,,,,,,,,304.60188625000046,309.7207485830004,304.60188625000046,304.60188625000046,304.60188625000046,304.60188625000046,305.05802329200014,306.05672225000035,305.0704752916665,,306.67888841700005,307.6766595830004,306.6909766246665,307.6847592080003,309.7207485830004,310.43283308300033,312.49403379199975,,310.43283308300033,310.43283308300033,315.59848475000035,310.43283308300033,310.43283308300033,310.43283308300033,310.43283308300033,310.9025253330001,311.93241791699984,310.87145583366714,,312.49403379199975,313.531955167,312.4638000836669,,310.43283308300033,315.59848475000035,310.43283308300033,315.59848475000035,315.6398804170003,316.3014969579999,310.43283308300033,2,1,1.3315942079998422,reldom2_s005,001,2025-01-30_15h35.59.008,What-B-Scan_AC,2022.2.5,None,
0,0.0,None,fixation,stimulus/viswhat_stim/blank_white.png,stimulus/viswhat_stim/blank_white.png,stimulus/audwhat_stim/blank_white.png,stimulus/audwhat_stim/blank_white.png,stimulus/viswhat_stim/blank_white.png,stimulus/viswhat_stim/blank_white.png,stimulus/viswhat_stim/blank_white.png,stimulus/viswhat_stim/blank_white.png,0.0,0.0,0.0,0.0,0,0.0,0,0.0,0,0.0,0,0.0,0,0.0,0.0,0,0.0,0,0.0,0,0.0,0,0.0,0,0.0,0,0.0,0,0.0,0,0.0,9,,,,,0,32,32,32,,,,,,,,,316.5392435419999,316.5392435419999,316.5392435419999,316.5392435419999,316.5392435419999,316.5392435419999,316.5392435419999,316.5392435419999,316.43483029133324,316.5392435419999,316.5392435419999,316.5392435419999,316.43483029133324,316.5392435419999,316.5392435419999,316.5392435419999,316.5392435419999,316.5392435419999,316.5392435419999,316.5392435419999,316.5392435419999,316.5392435419999,316.5392435419999,316.5392435419999,316.5392435419999,316.5392435419999,316.5392435419999,316.48483029133325,316.5392435419999,316.5392435419999,316.5392435419999,316.48483029133325,316.5392435419999,316.5392435419999,316.5392435419999,316.5392435419999,316.5392435419999,321.7371199580002,321.7371199580002,325.8015821250001,None,0,,reldom2_s005,001,2025-01-30_15h35.59.008,What-B-Scan_AC,2022.2.5,None,
25,First_Order,5.0,viswhat,stimulus/viswhat_stim/blank_white.png,stimulus/viswhat_stim/blank_white.png,stimulus/viswhat_stim/land_animal-elephant.png,stimulus/viswhat_stim/land_vehicle-firetruck.png,stimulus/viswhat_stim/blank_white.png,stimulus/viswhat_stim/location_box.png,stimulus/viswhat_stim/location_yes.png,stimulus/viswhat_stim/location_no.png,None,Location,None,Location,1,0.0,0,5.125,0,5.125,0,5.125,0,0.0,0.625,0,0.0,0,0.0,1,0.5,1,2.125,0,0.0,0,0.0,0,0.0,0,0.0,0,,,,,0,33,33,33,,,,,,,,,325.8015821250001,325.8015821250001,325.8015821250001,325.8015821250001,325.8015821250001,325.8015821250001,325.8015821250001,325.8015821250001,325.6960470416667,325.8015821250001,325.8015821250001,325.8015821250001,325.6960470416667,325.8015821250001,325.8015821250001,325.8015821250001,327.9086277920005,331.87447079200047,325.8015821250001,325.8015821250001,330.9724895830004,326.2837454170003,327.368215167,327.9086277920005,328.9925732920001,325.8015821250001,325.8015821250001,325.7460470416667,325.8015821250001,325.8015821250001,325.8015821250001,325.7460470416667,325.8015821250001,325.8015821250001,330.9724895830004,325.8015821250001,330.9724895830004,331.02692766700056,331.87447079200047,325.8015821250001,1,1,1.4244876249995286,reldom2_s005,001,2025-01-30_15h35.59.008,What-B-Scan_AC,2022.2.5,None,
26,First_Order,5.0,viswhat,stimulus/viswhat_stim/blank_white.png,stimulus/viswhat_stim/blank_white.png,stimulus/viswhat_stim/land_vehicle-tank.png,stimulus/viswhat_stim/land_animal-pig.png,stimulus/viswhat_stim/blank_white.png,stimulus/viswhat_stim/type_box.png,stimulus/viswhat_stim/type_yes.png,stimulus/viswhat_stim/type_no.png,None,Type,None,Location,2,0.0,0,5.125,0,5.125,0,5.125,0,0.0,0.625,0,0.0,0,0.0,1,0.5,1,2.125,0,0.0,0,0.0,0,0.0,0,0.0,0,,,,,0,34,34,34,,,,,,,,,331.87447079200047,331.87447079200047,331.87447079200047,331.87447079200047,331.87447079200047,331.87447079200047,331.87447079200047,331.87447079200047,331.84670120866633,331.87447079200047,331.87447079200047,331.87447079200047,331.84670120866633,331.87447079200047,331.87447079200047,331.87447079200047,333.98071266700026,338.0402549170003,331.87447079200047,331.87447079200047,336.9995281669999,332.3618134170001,333.3838577920005,333.98071266700026,334.9856995830005,331.87447079200047,331.87447079200047,331.86336787533304,331.87447079200047,331.87447079200047,331.87447079200047,331.86336787533304,331.87447079200047,331.87447079200047,336.9995281669999,331.87447079200047,336.9995281669999,337.0993573750002,337.7307750830005,331.87447079200047,2,1,0.6486014169995542,reldom2_s005,001,2025-01-30_15h35.59.008,What-B-Scan_AC,2022.2.5,None,
27,First_Order,5.0,viswhat,stimulus/viswhat_stim/blank_white.png,stimulus/viswhat_stim/blank_white.png,stimulus/viswhat_stim/land_animal-moose.png,stimulus/viswhat_stim/land_vehicle-vespa.png,stimulus/viswhat_stim/blank_white.png,stimulus/viswhat_stim/location_box.png,stimulus/viswhat_stim/location_yes.png,stimulus/viswhat_stim/location_no.png,None,Location,None,Location,1,0.0,0,5.125,0,5.125,0,5.125,0,0.0,0.625,0,0.0,0,0.0,1,0.5,1,2.125,0,0.0,0,0.0,0,0.0,0,0.0,0,,,,,0,35,35,35,,,,,,,,,338.0402549170003,338.0402549170003,338.0402549170003,338.0402549170003,338.0402549170003,338.0402549170003,338.0402549170003,338.0402549170003,337.9144226253332,338.0402549170003,338.0402549170003,338.0402549170003,337.9144226253332,338.0402549170003,338.0402549170003,338.0402549170003,340.1440138329999,,338.0402549170003,338.0402549170003,343.2631257080002,338.5152299170004,339.60319529200024,340.1440138329999,341.2331747919998,338.0402549170003,338.0402549170003,337.98108929199987,338.0402549170003,338.0402549170003,338.0402549170003,337.98108929199987,338.0402549170003,338.0402549170003,343.2631257080002,338.0402549170003,343.2631257080002,343.2631257080002,344.15926924999985,338.0402549170003,1,1,0.540859248999368,reldom2_s005,001,2025-01-30_15h35.59.008,What-B-Scan_AC,2022.2.5,None,
28,First_Order,5.0,viswhat,stimulus/viswhat_stim/blank_white.png,stimulus/viswhat_stim/blank_white.png,stimulus/viswhat_stim/land_animal-giraffe.png,stimulus/viswhat_stim/water_animal-squid.png,stimulus/viswhat_stim/blank_white.png,stimulus/viswhat_stim/location_box.png,stimulus/viswhat_stim/location_yes.png,stimulus/viswhat_stim/location_no.png,None,Location,None,Type,2,0.0,0,5.125,0,5.125,0,5.125,0,0.0,0.625,0,0.0,0,0.0,1,0.5,1,2.125,0,0.0,0,0.0,0,0.0,0,0.0,0,,,,,0,36,36,36,,,,,,,,,344.15926924999985,344.15926924999985,344.15926924999985,344.15926924999985,344.15926924999985,344.15926924999985,344.15926924999985,344.15926924999985,344.0657876253335,344.15926924999985,344.15926924999985,344.15926924999985,344.0657876253335,344.15926924999985,344.15926924999985,344.15926924999985,346.2376644579999,,344.15926924999985,344.15926924999985,349.323427583,344.60826633299985,345.6770983329998,346.2376644579999,347.3089610830002,344.15926924999985,344.15926924999985,344.11578762533344,344.15926924999985,344.15926924999985,344.15926924999985,344.11578762533344,344.15926924999985,344.15926924999985,349.323427583,344.15926924999985,349.323427583,349.3740043329999,350.2880979170004,344.15926924999985,2,1,0.850687207998817,reldom2_s005,001,2025-01-30_15h35.59.008,What-B-Scan_AC,2022.2.5,None,
0,0.0,None,fixation,stimulus/viswhat_stim/blank_white.png,stimulus/viswhat_stim/blank_white.png,stimulus/audwhat_stim/blank_white.png,stimulus/audwhat_stim/blank_white.png,stimulus/viswhat_stim/blank_white.png,stimulus/viswhat_stim/blank_white.png,stimulus/viswhat_stim/blank_white.png,stimulus/viswhat_stim/blank_white.png,0.0,0.0,0.0,0.0,0,0.0,0,0.0,0,0.0,0,0.0,0,0.0,0.0,0,0.0,0,0.0,0,0.0,0,0.0,0,0.0,0,0.0,0,0.0,0,0.0,9,,,,,0,37,37,37,,,,,,,,,350.2880979170004,350.2880979170004,350.2880979170004,350.2880979170004,350.2880979170004,350.2880979170004,350.2880979170004,350.2880979170004,350.17899391699973,350.2880979170004,350.2880979170004,350.2880979170004,350.17899391699973,350.2880979170004,350.2880979170004,350.2880979170004,350.2880979170004,350.2880979170004,350.2880979170004,350.2880979170004,350.2880979170004,350.2880979170004,350.2880979170004,350.2880979170004,350.2880979170004,350.2880979170004,350.2880979170004,350.2456605836664,350.2880979170004,350.2880979170004,350.2880979170004,350.2456605836664,350.2880979170004,350.2880979170004,350.2880979170004,350.2880979170004,350.2880979170004,355.46953937499984,355.46953937499984,359.4078736669999,None,0,,reldom2_s005,001,2025-01-30_15h35.59.008,What-B-Scan_AC,2022.2.5,None,
29,Second_Order,5.0,viswhat,stimulus/viswhat_stim/water_vehicle-pirateship.png,stimulus/viswhat_stim/land_vehicle-schoolbus.png,stimulus/viswhat_stim/water_animal-dolphin.png,stimulus/viswhat_stim/land_animal-cat.png,stimulus/viswhat_stim/match_blank.png,stimulus/viswhat_stim/match_box.png,stimulus/viswhat_stim/match_yes.png,stimulus/viswhat_stim/match_no.png,1.0,Match,Type,Type,1,5.125,0,5.125,0,5.125,0,5.125,0,0.75,0.75,1,0.5,1,2.125,1,0.5,1,2.125,0,0.0,0,0.0,0,0.0,0,0.0,0,,,,,0,38,38,38,,,,,,,,,359.4078736669999,364.52985745800015,359.8804854170003,360.86926349999976,361.50542874999974,362.50298983300036,359.4078736669999,359.4078736669999,359.4104930833338,359.4078736669999,359.4078736669999,359.4078736669999,359.4104930833338,359.4078736669999,364.52985745800015,365.33455925,367.40889270800017,,365.33455925,365.33455925,370.49243083300007,365.78723358299976,366.8239721250002,367.40889270800017,368.4512278330003,365.33455925,365.33455925,365.3135370420003,365.33455925,365.33455925,365.33455925,365.3135370420003,365.33455925,365.33455925,370.49243083300007,365.33455925,370.49243083300007,370.5460566669999,,365.33455925,1,1,0.5389560419989721,reldom2_s005,001,2025-01-30_15h35.59.008,What-B-Scan_AC,2022.2.5,None,
30,Second_Order,5.0,viswhat,stimulus/viswhat_stim/water_animal-orka.png,stimulus/viswhat_stim/land_animal-bunny.png,stimulus/viswhat_stim/land_vehicle-motorcycle.png,stimulus/viswhat_stim/water_vehicle-motorboatraft.png,stimulus/viswhat_stim/match_blank.png,stimulus/viswhat_stim/match_box.png,stimulus/viswhat_stim/match_yes.png,stimulus/viswhat_stim/match_no.png,1.0,Match,Type,Type,1,5.125,0,5.125,0,5.125,0,5.125,0,0.625,0.625,1,0.5,1,2.125,1,0.5,1,2.125,0,0.0,0,0.0,0,0.0,0,0.0,0,,,,,0,39,39,39,,,,,,,,,371.3791615830005,376.50203283300016,371.79124095800034,372.7805132499998,373.41614758300057,374.4141971250001,371.3791615830005,371.3791615830005,371.3916742080004,371.3791615830005,371.3791615830005,371.3791615830005,371.3916742080004,371.3791615830005,376.50203283300016,377.18702937499984,379.26894679199995,383.3177063330004,377.18702937499984,377.18702937499984,382.3470845419997,377.63978683300047,378.66463037500034,379.26894679199995,380.2992477079997,377.18702937499984,377.18702937499984,377.17004320800044,377.18702937499984,377.18702937499984,377.18702937499984,377.17004320800044,377.18702937499984,377.18702937499984,382.3470845419997,377.18702937499984,382.3470845419997,382.3958603330002,383.03265595799985,377.18702937499984,1,1,0.9734754580003937,reldom2_s005,001,2025-01-30_15h35.59.008,What-B-Scan_AC,2022.2.5,None,
0,0.0,None,fixation,stimulus/viswhat_stim/blank_white.png,stimulus/viswhat_stim/blank_white.png,stimulus/audwhat_stim/blank_white.png,stimulus/audwhat_stim/blank_white.png,stimulus/viswhat_stim/blank_white.png,stimulus/viswhat_stim/blank_white.png,stimulus/viswhat_stim/blank_white.png,stimulus/viswhat_stim/blank_white.png,0.0,0.0,0.0,0.0,0,0.0,0,0.0,0,0.0,0,0.0,0,0.0,0.0,0,0.0,0,0.0,0,0.0,0,0.0,0,0.0,0,0.0,0,0.0,0,0.0,9,,,,,0,40,40,40,,,,,,,,,383.3177063330004,383.3177063330004,383.3177063330004,383.3177063330004,383.3177063330004,383.3177063330004,383.3177063330004,383.3177063330004,383.2222148336667,383.3177063330004,383.3177063330004,383.3177063330004,383.2222148336667,383.3177063330004,383.3177063330004,383.3177063330004,383.3177063330004,383.3177063330004,383.3177063330004,383.3177063330004,383.3177063330004,383.3177063330004,383.3177063330004,383.3177063330004,383.3177063330004,383.3177063330004,383.3177063330004,383.2722148336667,383.3177063330004,383.3177063330004,383.3177063330004,383.2722148336667,383.3177063330004,383.3177063330004,383.3177063330004,383.3177063330004,383.3177063330004,388.5170129170001,388.5170129170001,392.58930962500017,None,0,,reldom2_s005,001,2025-01-30_15h35.59.008,What-B-Scan_AC,2022.2.5,None,
31,First_Order,6.0,viswhat,stimulus/viswhat_stim/blank_white.png,stimulus/viswhat_stim/blank_white.png,stimulus/viswhat_stim/water_vehicle-ship.png,stimulus/viswhat_stim/land_vehicle-schoolbus.png,stimulus/viswhat_stim/blank_white.png,stimulus/viswhat_stim/location_box.png,stimulus/viswhat_stim/location_yes.png,stimulus/viswhat_stim/location_no.png,None,Location,None,Type,2,0.0,0,5.125,0,5.125,0,5.125,0,0.0,0.625,0,0.0,0,0.0,1,0.5,1,2.125,0,0.0,0,0.0,0,0.0,0,0.0,0,,,,,0,41,41,41,,,,,,,,,392.58930962500017,392.58930962500017,392.58930962500017,392.58930962500017,392.58930962500017,392.58930962500017,392.58930962500017,392.58930962500017,392.4826869586665,392.58930962500017,392.58930962500017,392.58930962500017,392.4826869586665,392.58930962500017,392.58930962500017,392.58930962500017,394.6636385419997,,392.58930962500017,392.58930962500017,397.77742883300016,393.0178632920006,394.11528966700007,394.6636385419997,395.7669952080005,392.58930962500017,392.58930962500017,392.5326869586665,392.58930962500017,392.58930962500017,392.58930962500017,392.5326869586665,392.58930962500017,392.58930962500017,397.77742883300016,392.58930962500017,397.77742883300016,397.77742883300016,398.6485262920005,392.58930962500017,2,1,1.0815739580002628,reldom2_s005,001,2025-01-30_15h35.59.008,What-B-Scan_AC,2022.2.5,None,
32,First_Order,6.0,viswhat,stimulus/viswhat_stim/blank_white.png,stimulus/viswhat_stim/blank_white.png,stimulus/viswhat_stim/land_vehicle-bus.png,stimulus/viswhat_stim/water_vehicle-jetski.png,stimulus/viswhat_stim/blank_white.png,stimulus/viswhat_stim/type_box.png,stimulus/viswhat_stim/type_yes.png,stimulus/viswhat_stim/type_no.png,None,Type,None,Type,1,0.0,0,5.125,0,5.125,0,5.125,0,0.0,0.625,0,0.0,0,0.0,1,0.5,1,2.125,0,0.0,0,0.0,0,0.0,0,0.0,0,,,,,0,42,42,42,,,,,,,,,398.6485262920005,398.6485262920005,398.6485262920005,398.6485262920005,398.6485262920005,398.6485262920005,398.6485262920005,398.6485262920005,398.6037845416664,398.6485262920005,398.6485262920005,398.6485262920005,398.6037845416664,398.6485262920005,398.6485262920005,398.6485262920005,400.74931862500034,404.74751916700006,398.6485262920005,398.6485262920005,403.8006909579999,399.1233001669998,400.15797804199974,400.74931862500034,401.7897754579999,398.6485262920005,398.6485262920005,398.6204512083331,398.6485262920005,398.6485262920005,398.6485262920005,398.6204512083331,398.6485262920005,398.6485262920005,403.8006909579999,398.6485262920005,403.8006909579999,403.87241766700026,404.5163846249998,398.6485262920005,1,1,0.4618966250000085,reldom2_s005,001,2025-01-30_15h35.59.008,What-B-Scan_AC,2022.2.5,None,
33,First_Order,6.0,viswhat,stimulus/viswhat_stim/blank_white.png,stimulus/viswhat_stim/blank_white.png,stimulus/viswhat_stim/water_animal-seahorse.png,stimulus/viswhat_stim/water_vehicle-cabincruiser.png,stimulus/viswhat_stim/blank_white.png,stimulus/viswhat_stim/type_box.png,stimulus/viswhat_stim/type_yes.png,stimulus/viswhat_stim/type_no.png,None,Type,None,Location,2,0.0,0,5.125,0,5.125,0,5.125,0,0.0,0.625,0,0.0,0,0.0,1,0.5,1,2.125,0,0.0,0,0.0,0,0.0,0,0.0,0,,,,,0,43,43,43,,,,,,,,,404.74751916700006,404.74751916700006,404.74751916700006,404.74751916700006,404.74751916700006,404.74751916700006,404.74751916700006,404.74751916700006,404.68761491699985,404.74751916700006,404.74751916700006,404.74751916700006,404.68761491699985,404.74751916700006,404.74751916700006,404.74751916700006,406.85520754200024,410.8661119999997,404.74751916700006,404.74751916700006,409.91294404200016,405.2054486670004,406.2229945420004,406.85520754200024,407.87859429200034,404.74751916700006,404.74751916700006,404.7209482503332,404.74751916700006,404.74751916700006,404.74751916700006,404.7209482503332,404.74751916700006,404.74751916700006,409.91294404200016,404.74751916700006,409.91294404200016,409.97168324999984,410.6181965420001,404.74751916700006,2,1,0.9230131669992261,reldom2_s005,001,2025-01-30_15h35.59.008,What-B-Scan_AC,2022.2.5,None,
34,First_Order,6.0,viswhat,stimulus/viswhat_stim/blank_white.png,stimulus/viswhat_stim/blank_white.png,stimulus/viswhat_stim/land_animal-tiger.png,stimulus/viswhat_stim/water_animal-octopus.png,stimulus/viswhat_stim/blank_white.png,stimulus/viswhat_stim/type_box.png,stimulus/viswhat_stim/type_yes.png,stimulus/viswhat_stim/type_no.png,None,Type,None,Type,1,0.0,0,5.125,0,5.125,0,5.125,0,0.0,0.625,0,0.0,0,0.0,1,0.5,1,2.125,0,0.0,0,0.0,0,0.0,0,0.0,0,,,,,0,44,44,44,,,,,,,,,410.8661119999997,410.8661119999997,410.8661119999997,410.8661119999997,410.8661119999997,410.8661119999997,410.8661119999997,410.8661119999997,410.7935451246666,410.8661119999997,410.8661119999997,410.8661119999997,410.7935451246666,410.8661119999997,410.8661119999997,410.8661119999997,412.9663192500002,417.0218211250003,410.8661119999997,410.8661119999997,416.026490792,411.34738070799995,412.3977880829998,412.9663192500002,414.01813800000036,410.8661119999997,410.8661119999997,410.8268784579999,410.8661119999997,410.8661119999997,410.8661119999997,410.8268784579999,410.8661119999997,410.8661119999997,416.026490792,410.8661119999997,416.026490792,416.06470012499994,416.7101347079997,410.8661119999997,1,1,1.2559522499996092,reldom2_s005,001,2025-01-30_15h35.59.008,What-B-Scan_AC,2022.2.5,None,
0,0.0,None,fixation,stimulus/viswhat_stim/blank_white.png,stimulus/viswhat_stim/blank_white.png,stimulus/audwhat_stim/blank_white.png,stimulus/audwhat_stim/blank_white.png,stimulus/viswhat_stim/blank_white.png,stimulus/viswhat_stim/blank_white.png,stimulus/viswhat_stim/blank_white.png,stimulus/viswhat_stim/blank_white.png,0.0,0.0,0.0,0.0,0,0.0,0,0.0,0,0.0,0,0.0,0,0.0,0.0,0,0.0,0,0.0,0,0.0,0,0.0,0,0.0,0,0.0,0,0.0,0,0.0,8,,,,,0,45,45,45,,,,,,,,,417.0218211250003,417.0218211250003,417.0218211250003,417.0218211250003,417.0218211250003,417.0218211250003,417.0218211250003,417.0218211250003,416.9188307913338,417.0218211250003,417.0218211250003,417.0218211250003,416.9188307913338,417.0218211250003,417.0218211250003,417.0218211250003,417.0218211250003,417.0218211250003,417.0218211250003,417.0218211250003,417.0218211250003,417.0218211250003,417.0218211250003,417.0218211250003,417.0218211250003,417.0218211250003,417.0218211250003,416.9688307913338,417.0218211250003,417.0218211250003,417.0218211250003,416.9688307913338,417.0218211250003,417.0218211250003,417.0218211250003,417.0218211250003,417.0218211250003,422.2425131250002,422.2425131250002,425.14580916700015,None,0,,reldom2_s005,001,2025-01-30_15h35.59.008,What-B-Scan_AC,2022.2.5,None,
35,Second_Order,6.0,viswhat,stimulus/viswhat_stim/land_animal-wolf.png,stimulus/viswhat_stim/land_vehicle-schoolbus.png,stimulus/viswhat_stim/water_animal-shark.png,stimulus/viswhat_stim/water_vehicle-ship.png,stimulus/viswhat_stim/match_blank.png,stimulus/viswhat_stim/match_box.png,stimulus/viswhat_stim/match_yes.png,stimulus/viswhat_stim/match_no.png,1.0,Match,Location,Location,1,5.125,0,5.125,0,5.125,0,5.125,0,0.75,0.75,1,0.5,1,2.125,1,0.5,1,2.125,0,0.0,0,0.0,0,0.0,0,0.0,0,,,,,0,46,46,46,,,,,,,,,425.14580916700015,430.2649857080005,425.6189814999998,426.61776095799996,427.24082391699994,428.2382372080001,425.14580916700015,425.14580916700015,425.15164604133327,425.14580916700015,425.14580916700015,425.14580916700015,425.15164604133327,425.14580916700015,430.2649857080005,431.1494680000005,433.20024637500046,,431.1494680000005,431.1494680000005,436.3796456250002,431.57293304199993,432.6326780420004,433.20024637500046,434.2630884580003,431.1494680000005,431.1494680000005,431.08222616633367,431.1494680000005,431.1494680000005,431.1494680000005,431.08222616633367,431.1494680000005,431.1494680000005,436.3796456250002,431.1494680000005,436.3796456250002,436.31385079200027,,431.1494680000005,1,1,0.5878473329994449,reldom2_s005,001,2025-01-30_15h35.59.008,What-B-Scan_AC,2022.2.5,None,
36,Second_Order,6.0,viswhat,stimulus/viswhat_stim/land_vehicle-oldcar.png,stimulus/viswhat_stim/land_animal-cat.png,stimulus/viswhat_stim/water_vehicle-cargoboat.png,stimulus/viswhat_stim/water_animal-orka.png,stimulus/viswhat_stim/match_blank.png,stimulus/viswhat_stim/match_box.png,stimulus/viswhat_stim/match_yes.png,stimulus/viswhat_stim/match_no.png,1.0,Match,Location,Location,1,5.125,0,5.125,0,5.125,0,5.125,0,0.625,0.625,1,0.5,1,2.125,1,0.5,1,2.125,0,0.0,0,0.0,0,0.0,0,0.0,0,,,,,0,47,47,47,,,,,,,,,437.1352011250001,442.259773625,437.58025808300044,438.5784632920004,439.2135647080004,440.20245458299996,437.1352011250001,437.1352011250001,437.14891470833385,437.1352011250001,437.1352011250001,437.1352011250001,437.14891470833385,437.1352011250001,442.259773625,443.00918058299976,445.09698095800013,,443.00918058299976,443.00918058299976,448.20005904200025,443.47964958300054,444.55546975000016,445.09698095800013,446.17895370800034,443.00918058299976,443.00918058299976,442.95534295833323,443.00918058299976,443.00918058299976,443.00918058299976,442.95534295833323,443.00918058299976,443.00918058299976,448.20005904200025,443.00918058299976,448.20005904200025,448.20005904200025,449.1032280420004,443.00918058299976,2,0,1.0939417079998748,reldom2_s005,001,2025-01-30_15h35.59.008,What-B-Scan_AC,2022.2.5,None,
0,0.0,None,fixation,stimulus/viswhat_stim/blank_white.png,stimulus/viswhat_stim/blank_white.png,stimulus/audwhat_stim/blank_white.png,stimulus/audwhat_stim/blank_white.png,stimulus/viswhat_stim/blank_white.png,stimulus/viswhat_stim/blank_white.png,stimulus/viswhat_stim/blank_white.png,stimulus/viswhat_stim/blank_white.png,0.0,0.0,0.0,0.0,0,0.0,0,0.0,0,0.0,0,0.0,0,0.0,0.0,0,0.0,0,0.0,0,0.0,0,0.0,0,0.0,0,0.0,0,0.0,0,0.0,10,,,,,0,48,48,48,,,,,,,,,449.1032280420004,449.1032280420004,449.1032280420004,449.1032280420004,449.1032280420004,449.1032280420004,449.1032280420004,449.1032280420004,448.9999971663337,449.1032280420004,449.1032280420004,449.1032280420004,448.9999971663337,449.1032280420004,449.1032280420004,449.1032280420004,449.1032280420004,449.1032280420004,449.1032280420004,449.1032280420004,449.1032280420004,449.1032280420004,449.1032280420004,449.1032280420004,449.1032280420004,449.1032280420004,449.1032280420004,449.04999716633364,449.1032280420004,449.1032280420004,449.1032280420004,449.04999716633364,449.1032280420004,449.1032280420004,449.1032280420004,449.1032280420004,449.1032280420004,454.30446437499995,454.30446437499995,459.3776425830001,None,0,,reldom2_s005,001,2025-01-30_15h35.59.008,What-B-Scan_AC,2022.2.5,None,
37,First_Order,7.0,audwhat,stimulus/audwhat_stim/dummy.wav,stimulus/audwhat_stim/dummy.wav,stimulus/audwhat_stim/string viola_low-pitch_Ftri_loud.wav,stimulus/audwhat_stim/string viola_high-pitch_Dtri_loud.wav,stimulus/audwhat_stim/blank_white.png,stimulus/audwhat_stim/category_box.png,stimulus/audwhat_stim/category_yes.png,stimulus/audwhat_stim/category_no.png,None,Category,None,Category,1,0.0,0,5.125,0,5.125,0,5.125,0,0.0,0.625,0,0.0,0,0.0,0,0.0,0,0.0,0,0.0,0,0.0,1,0.5,1,2.125,0,,,,,0,49,49,49,,,,,,,,,459.3776425830001,459.3776425830001,459.3776425830001,459.3776425830001,459.3776425830001,459.3776425830001,459.3776425830001,459.3776425830001,459.29934233366714,459.3776425830001,459.3776425830001,459.3776425830001,459.29934233366714,459.3776425830001,459.3776425830001,459.3776425830001,461.4602033330002,465.50486091699986,459.3776425830001,459.3776425830001,464.53558237500056,459.3776425830001,459.3776425830001,459.3776425830001,459.3776425830001,459.8507557920002,460.8933165420003,459.81975424966663,,461.4602033330002,462.50297491699985,461.4293304586665,,459.3776425830001,464.53558237500056,459.3776425830001,464.53558237500056,464.577425167,465.24513387499974,459.3776425830001,1,1,1.1798416250003356,reldom2_s005,001,2025-01-30_15h35.59.008,What-B-Scan_AC,2022.2.5,None,
38,First_Order,7.0,audwhat,stimulus/audwhat_stim/dummy.wav,stimulus/audwhat_stim/dummy.wav,stimulus/audwhat_stim/percussion mallet_high-pitch_D_loud.wav,stimulus/audwhat_stim/string viola_high-pitch_D_loud.wav,stimulus/audwhat_stim/blank_white.png,stimulus/audwhat_stim/pitch_box.png,stimulus/audwhat_stim/pitch_yes.png,stimulus/audwhat_stim/pitch_no.png,None,Pitch,None,Pitch,1,0.0,0,5.125,0,5.125,0,5.125,0,0.0,0.625,0,0.0,0,0.0,0,0.0,0,0.0,0,0.0,0,0.0,1,0.5,1,2.125,0,,,,,0,50,50,50,,,,,,,,,465.50486091699986,465.50486091699986,465.50486091699986,465.50486091699986,465.50486091699986,465.50486091699986,465.50486091699986,465.50486091699986,465.4202419583336,465.50486091699986,465.50486091699986,465.50486091699986,465.4202419583336,465.50486091699986,465.50486091699986,465.50486091699986,467.5790090830005,,465.50486091699986,465.50486091699986,470.6910329580005,465.50486091699986,465.50486091699986,465.50486091699986,465.50486091699986,465.97636429199974,467.0132611250001,465.9457416246671,,467.5790090830005,468.61732208300054,467.5476424166666,,465.50486091699986,470.6910329580005,465.50486091699986,470.6910329580005,470.73270333300025,471.39752320800017,465.50486091699986,1,1,1.471366749999106,reldom2_s005,001,2025-01-30_15h35.59.008,What-B-Scan_AC,2022.2.5,None,
39,First_Order,7.0,audwhat,stimulus/audwhat_stim/dummy.wav,stimulus/audwhat_stim/dummy.wav,stimulus/audwhat_stim/string viola_low-pitch_Dtri_loud.wav,stimulus/audwhat_stim/percussion mallet_low-pitch_Dtri_loud.wav,stimulus/audwhat_stim/blank_white.png,stimulus/audwhat_stim/category_box.png,stimulus/audwhat_stim/category_yes.png,stimulus/audwhat_stim/category_no.png,None,Category,None,Pitch,2,0.0,0,5.125,0,5.125,0,5.125,0,0.0,0.625,0,0.0,0,0.0,0,0.0,0,0.0,0,0.0,0,0.0,1,0.5,1,2.125,0,,,,,0,51,51,51,,,,,,,,,471.6151234580002,471.6151234580002,471.6151234580002,471.6151234580002,471.6151234580002,471.6151234580002,471.6151234580002,471.6151234580002,471.5308565413335,471.6151234580002,471.6151234580002,471.6151234580002,471.5308565413335,471.6151234580002,471.6151234580002,471.6151234580002,473.70318250000037,,471.6151234580002,471.6151234580002,476.784475292,471.6151234580002,471.6151234580002,471.6151234580002,471.6151234580002,472.0896192500004,473.13455675000023,472.05869429166637,,473.70318250000037,474.74764745799985,473.67238899966674,,471.6151234580002,476.784475292,471.6151234580002,476.784475292,476.82616316700023,477.49502525000025,471.6151234580002,1,0,2.0132099999991624,reldom2_s005,001,2025-01-30_15h35.59.008,What-B-Scan_AC,2022.2.5,None,
40,First_Order,7.0,audwhat,stimulus/audwhat_stim/dummy.wav,stimulus/audwhat_stim/dummy.wav,stimulus/audwhat_stim/string viola_high-pitch_F_loud.wav,stimulus/audwhat_stim/string viola_low-pitch_Ftri_loud.wav,stimulus/audwhat_stim/blank_white.png,stimulus/audwhat_stim/pitch_box.png,stimulus/audwhat_stim/pitch_yes.png,stimulus/audwhat_stim/pitch_no.png,None,Pitch,None,Category,2,0.0,0,5.125,0,5.125,0,5.125,0,0.0,0.625,0,0.0,0,0.0,0,0.0,0,0.0,0,0.0,0,0.0,1,0.5,1,2.125,0,,,,,0,52,52,52,,,,,,,,,477.71285933299987,477.71285933299987,477.71285933299987,477.71285933299987,477.71285933299987,477.71285933299987,477.71285933299987,477.71285933299987,477.6283585833336,477.71285933299987,477.71285933299987,477.71285933299987,477.6283585833336,477.71285933299987,477.71285933299987,477.71285933299987,479.790315833,483.85397533300056,477.71285933299987,477.71285933299987,482.9061740830002,477.71285933299987,477.71285933299987,477.71285933299987,477.71285933299987,478.1844008750004,479.223901417,478.1538651666672,,479.790315833,480.8301245829998,479.75934649966644,,477.71285933299987,482.9061740830002,477.71285933299987,482.9061740830002,482.9061740830002,483.569649,477.71285933299987,2,1,1.7606793329996435,reldom2_s005,001,2025-01-30_15h35.59.008,What-B-Scan_AC,2022.2.5,None,
0,0.0,None,fixation,stimulus/viswhat_stim/blank_white.png,stimulus/viswhat_stim/blank_white.png,stimulus/audwhat_stim/blank_white.png,stimulus/audwhat_stim/blank_white.png,stimulus/viswhat_stim/blank_white.png,stimulus/viswhat_stim/blank_white.png,stimulus/viswhat_stim/blank_white.png,stimulus/viswhat_stim/blank_white.png,0.0,0.0,0.0,0.0,0,0.0,0,0.0,0,0.0,0,0.0,0,0.0,0.0,0,0.0,0,0.0,0,0.0,0,0.0,0,0.0,0,0.0,0,0.0,0,0.0,9,,,,,0,53,53,53,,,,,,,,,483.85397533300056,483.85397533300056,483.85397533300056,483.85397533300056,483.85397533300056,483.85397533300056,483.85397533300056,483.85397533300056,483.74458441633317,483.85397533300056,483.85397533300056,483.85397533300056,483.74458441633317,483.85397533300056,483.85397533300056,483.85397533300056,483.85397533300056,483.85397533300056,483.85397533300056,483.85397533300056,483.85397533300056,483.85397533300056,483.85397533300056,483.85397533300056,483.85397533300056,483.85397533300056,483.85397533300056,483.81125108299983,483.85397533300056,483.85397533300056,483.85397533300056,483.81125108299983,483.85397533300056,483.85397533300056,483.85397533300056,483.85397533300056,483.85397533300056,489.08312475,489.08312475,493.0365036250005,None,0,,reldom2_s005,001,2025-01-30_15h35.59.008,What-B-Scan_AC,2022.2.5,None,
41,Second_Order,7.0,audwhat,stimulus/audwhat_stim/percussion mallet_low-pitch_F_loud.wav,stimulus/audwhat_stim/percussion mallet_high-pitch_D_loud.wav,stimulus/audwhat_stim/string cello_low-pitch_Dtri_loud.wav,stimulus/audwhat_stim/string viola_high-pitch_F_loud.wav,stimulus/viswhat_stim/match_blank.png,stimulus/viswhat_stim/match_box.png,stimulus/viswhat_stim/match_yes.png,stimulus/viswhat_stim/match_no.png,1.0,Match,Category,Category,1,5.125,0,5.125,0,5.125,0,5.125,0,0.75,0.75,0,0.0,0,0.0,0,0.0,0,0.0,1,0.5,1,2.125,1,0.5,1,2.125,0,,,,,0,54,54,54,,,,,,,,,493.0365036250005,498.154212292,493.0365036250005,493.0365036250005,493.0365036250005,493.0365036250005,493.4925774170006,494.4906421249998,493.50548966666724,494.49884004199976,495.1135826669997,496.1110412500002,495.12576808366725,496.11971175000053,498.154212292,498.98271083300006,501.05817020799986,504.9969221250003,498.98271083300006,498.98271083300006,504.1699141250001,498.98271083300006,498.98271083300006,498.98271083300006,498.98271083300006,499.45392725000056,500.49225616700005,499.4233947916666,,501.05817020799986,502.09922854199976,501.0276317916671,,498.98271083300006,504.1699141250001,498.98271083300006,504.1699141250001,504.1699141250001,,498.98271083300006,1,1,0.44797141599974566,reldom2_s005,001,2025-01-30_15h35.59.008,What-B-Scan_AC,2022.2.5,None,
42,Second_Order,7.0,audwhat,stimulus/audwhat_stim/percussion mallet_high-pitch_Ftri_loud.wav,stimulus/audwhat_stim/percussion mallet_low-pitch_F_loud.wav,stimulus/audwhat_stim/percussion mallet_low-pitch_Dtri_loud.wav,stimulus/audwhat_stim/string viola_low-pitch_Dtri_loud.wav,stimulus/viswhat_stim/match_blank.png,stimulus/viswhat_stim/match_box.png,stimulus/viswhat_stim/match_yes.png,stimulus/viswhat_stim/match_no.png,2.0,Match,Category,Pitch,2,5.125,0,5.125,0,5.125,0,5.125,0,0.625,0.625,0,0.0,0,0.0,0,0.0,0,0.0,1,0.5,1,2.125,1,0.5,1,2.125,0,,,,,0,55,55,55,,,,,,,,,504.9969221250003,510.11454125,504.9969221250003,504.9969221250003,504.9969221250003,504.9969221250003,505.4536065000002,506.4515843750005,505.46654612466705,506.45926599999984,507.07557758300027,508.0719816669998,507.086766708667,508.07980275000045,510.11454125,510.8285072079998,512.89909025,,510.8285072079998,510.8285072079998,516.0039715829998,510.8285072079998,510.8285072079998,510.8285072079998,510.8285072079998,511.2993944580003,512.3339984169997,511.26936216666695,,512.89909025,513.9357290420003,512.8676199996664,,510.8285072079998,516.0039715829998,510.8285072079998,516.0039715829998,516.0039715829998,516.6649327499999,510.8285072079998,2,1,0.8936998329991184,reldom2_s005,001,2025-01-30_15h35.59.008,What-B-Scan_AC,2022.2.5,None,
0,0.0,None,fixation,stimulus/viswhat_stim/blank_white.png,stimulus/viswhat_stim/blank_white.png,stimulus/audwhat_stim/blank_white.png,stimulus/audwhat_stim/blank_white.png,stimulus/viswhat_stim/blank_white.png,stimulus/viswhat_stim/blank_white.png,stimulus/viswhat_stim/blank_white.png,stimulus/viswhat_stim/blank_white.png,0.0,0.0,0.0,0.0,0,0.0,0,0.0,0,0.0,0,0.0,0,0.0,0.0,0,0.0,0,0.0,0,0.0,0,0.0,0,0.0,0,0.0,0,0.0,0,0.0,9,,,,,0,56,56,56,,,,,,,,,516.9485067080004,516.9485067080004,516.9485067080004,516.9485067080004,516.9485067080004,516.9485067080004,516.9485067080004,516.9485067080004,516.8393097083336,516.9485067080004,516.9485067080004,516.9485067080004,516.8393097083336,516.9485067080004,516.9485067080004,516.9485067080004,516.9485067080004,516.9485067080004,516.9485067080004,516.9485067080004,516.9485067080004,516.9485067080004,516.9485067080004,516.9485067080004,516.9485067080004,516.9485067080004,516.9485067080004,516.9059763750003,516.9485067080004,516.9485067080004,516.9485067080004,516.9059763750003,516.9485067080004,516.9485067080004,516.9485067080004,516.9485067080004,516.9485067080004,522.1530168750005,522.1530168750005,526.1945542080002,None,0,,reldom2_s005,001,2025-01-30_15h35.59.008,What-B-Scan_AC,2022.2.5,None,
43,First_Order,8.0,audwhat,stimulus/audwhat_stim/dummy.wav,stimulus/audwhat_stim/dummy.wav,stimulus/audwhat_stim/string cello_high-pitch_D_loud.wav,stimulus/audwhat_stim/string cello_low-pitch_F_loud.wav,stimulus/audwhat_stim/blank_white.png,stimulus/audwhat_stim/pitch_box.png,stimulus/audwhat_stim/pitch_yes.png,stimulus/audwhat_stim/pitch_no.png,None,Pitch,None,Category,2,0.0,0,5.125,0,5.125,0,5.125,0,0.0,0.625,0,0.0,0,0.0,0,0.0,0,0.0,0,0.0,0,0.0,1,0.5,1,2.125,0,,,,,0,57,57,57,,,,,,,,,526.1945542080002,526.1945542080002,526.1945542080002,526.1945542080002,526.1945542080002,526.1945542080002,526.1945542080002,526.1945542080002,526.1157793746667,526.1945542080002,526.1945542080002,526.1945542080002,526.1157793746667,526.1945542080002,526.1945542080002,526.1945542080002,528.2640660420002,,526.1945542080002,526.1945542080002,531.3719837079998,526.1945542080002,526.1945542080002,526.1945542080002,526.1945542080002,526.6657049169999,527.7002618750003,526.6349797916666,,528.2640660420002,529.3027594169998,528.2338603336668,,526.1945542080002,531.3719837079998,526.1945542080002,531.3719837079998,531.4142660830003,532.0760498330001,526.1945542080002,2,1,1.2481147909993524,reldom2_s005,001,2025-01-30_15h35.59.008,What-B-Scan_AC,2022.2.5,None,
44,First_Order,8.0,audwhat,stimulus/audwhat_stim/dummy.wav,stimulus/audwhat_stim/dummy.wav,stimulus/audwhat_stim/percussion mallet_low-pitch_F_loud.wav,stimulus/audwhat_stim/string cello_low-pitch_F_loud.wav,stimulus/audwhat_stim/blank_white.png,stimulus/audwhat_stim/pitch_box.png,stimulus/audwhat_stim/pitch_yes.png,stimulus/audwhat_stim/pitch_no.png,None,Pitch,None,Pitch,1,0.0,0,5.125,0,5.125,0,5.125,0,0.0,0.625,0,0.0,0,0.0,0,0.0,0,0.0,0,0.0,0,0.0,1,0.5,1,2.125,0,,,,,0,58,58,58,,,,,,,,,532.2936820000004,532.2936820000004,532.2936820000004,532.2936820000004,532.2936820000004,532.2936820000004,532.2936820000004,532.2936820000004,532.2093831663334,532.2936820000004,532.2936820000004,532.2936820000004,532.2093831663334,532.2936820000004,532.2936820000004,532.2936820000004,534.3682463330006,,532.2936820000004,532.2936820000004,537.4804757080001,532.2936820000004,532.2936820000004,532.2936820000004,532.2936820000004,532.7643307919998,533.8026103330003,532.7340956246665,,534.3682463330006,535.408706833,534.3376799166665,,532.2936820000004,537.4804757080001,532.2936820000004,537.4804757080001,537.522127792,538.1857337500005,532.2936820000004,1,1,2.6980704999996306,reldom2_s005,001,2025-01-30_15h35.59.008,What-B-Scan_AC,2022.2.5,None,
45,First_Order,8.0,audwhat,stimulus/audwhat_stim/dummy.wav,stimulus/audwhat_stim/dummy.wav,stimulus/audwhat_stim/string viola_low-pitch_Dtri_loud.wav,stimulus/audwhat_stim/string cello_high-pitch_Ftri_loud.wav,stimulus/audwhat_stim/blank_white.png,stimulus/audwhat_stim/category_box.png,stimulus/audwhat_stim/category_yes.png,stimulus/audwhat_stim/category_no.png,None,Category,None,Category,1,0.0,0,5.125,0,5.125,0,5.125,0,0.0,0.625,0,0.0,0,0.0,0,0.0,0,0.0,0,0.0,0,0.0,1,0.5,1,2.125,0,,,,,0,59,59,59,,,,,,,,,538.4028924579998,538.4028924579998,538.4028924579998,538.4028924579998,538.4028924579998,538.4028924579998,538.4028924579998,538.4028924579998,538.3190670833338,538.4028924579998,538.4028924579998,538.4028924579998,538.3190670833338,538.4028924579998,538.4028924579998,538.4028924579998,540.489048083,544.5384690420005,538.4028924579998,538.4028924579998,543.5707425420005,538.4028924579998,538.4028924579998,538.4028924579998,538.4028924579998,538.877806167,539.9207324580002,538.8460259996666,,540.489048083,541.5361112500004,540.4583715836663,,538.4028924579998,543.5707425420005,538.4028924579998,543.5707425420005,543.6127137920002,544.2780904170004,538.4028924579998,1,1,1.5467793739999252,reldom2_s005,001,2025-01-30_15h35.59.008,What-B-Scan_AC,2022.2.5,None,
46,First_Order,8.0,audwhat,stimulus/audwhat_stim/dummy.wav,stimulus/audwhat_stim/dummy.wav,stimulus/audwhat_stim/string viola_high-pitch_Ftri_loud.wav,stimulus/audwhat_stim/percussion xylophone_high-pitch_Ftri_loud.wav,stimulus/audwhat_stim/blank_white.png,stimulus/audwhat_stim/category_box.png,stimulus/audwhat_stim/category_yes.png,stimulus/audwhat_stim/category_no.png,None,Category,None,Pitch,2,0.0,0,5.125,0,5.125,0,5.125,0,0.0,0.625,0,0.0,0,0.0,0,0.0,0,0.0,0,0.0,0,0.0,1,0.5,1,2.125,0,,,,,0,60,60,60,,,,,,,,,544.5384690420005,544.5384690420005,544.5384690420005,544.5384690420005,544.5384690420005,544.5384690420005,544.5384690420005,544.5384690420005,544.4526106663335,544.5384690420005,544.5384690420005,544.5384690420005,544.4526106663335,544.5384690420005,544.5384690420005,544.5384690420005,546.6249257919999,,544.5384690420005,544.5384690420005,549.7132933749999,544.5384690420005,544.5384690420005,544.5384690420005,544.5384690420005,545.0141618750004,546.0577998750005,544.9831551246664,,546.6249257919999,547.675633625,546.5943449996669,547.675633625,544.5384690420005,549.7132933749999,544.5384690420005,549.7132933749999,549.7547974170002,550.420729333,544.5384690420005,2,1,1.0568564579998565,reldom2_s005,001,2025-01-30_15h35.59.008,What-B-Scan_AC,2022.2.5,None,
0,0.0,None,fixation,stimulus/viswhat_stim/blank_white.png,stimulus/viswhat_stim/blank_white.png,stimulus/audwhat_stim/blank_white.png,stimulus/audwhat_stim/blank_white.png,stimulus/viswhat_stim/blank_white.png,stimulus/viswhat_stim/blank_white.png,stimulus/viswhat_stim/blank_white.png,stimulus/viswhat_stim/blank_white.png,0.0,0.0,0.0,0.0,0,0.0,0,0.0,0,0.0,0,0.0,0,0.0,0.0,0,0.0,0,0.0,0,0.0,0,0.0,0,0.0,0,0.0,0,0.0,0,0.0,8,,,,,0,61,61,61,,,,,,,,,550.6600699999999,550.6600699999999,550.6600699999999,550.6600699999999,550.6600699999999,550.6600699999999,550.6600699999999,550.6600699999999,550.5540626663334,550.6600699999999,550.6600699999999,550.6600699999999,550.5540626663334,550.6600699999999,550.6600699999999,550.6600699999999,550.6600699999999,550.6600699999999,550.6600699999999,550.6600699999999,550.6600699999999,550.6600699999999,550.6600699999999,550.6600699999999,550.6600699999999,550.6600699999999,550.6600699999999,550.620729333,550.6600699999999,550.6600699999999,550.6600699999999,550.620729333,550.6600699999999,550.6600699999999,550.6600699999999,550.6600699999999,550.6600699999999,555.8902919580005,555.8902919580005,558.8162204170003,None,0,,reldom2_s005,001,2025-01-30_15h35.59.008,What-B-Scan_AC,2022.2.5,None,
47,Second_Order,8.0,audwhat,stimulus/audwhat_stim/string cello_low-pitch_Dtri_loud.wav,stimulus/audwhat_stim/string viola_high-pitch_D_loud.wav,stimulus/audwhat_stim/percussion xylophone_high-pitch_F_loud.wav,stimulus/audwhat_stim/percussion mallet_low-pitch_D_loud.wav,stimulus/viswhat_stim/match_blank.png,stimulus/viswhat_stim/match_box.png,stimulus/viswhat_stim/match_yes.png,stimulus/viswhat_stim/match_no.png,1.0,Match,Category,Category,1,5.125,0,5.125,0,5.125,0,5.125,0,0.75,0.75,0,0.0,0,0.0,0,0.0,0,0.0,1,0.5,1,2.125,1,0.5,1,2.125,0,,,,,0,62,62,62,,,,,,,,,558.8162204170003,563.9392722920002,558.8162204170003,558.8162204170003,558.8162204170003,558.8162204170003,559.2733881250006,560.2625875419999,559.2767377086668,,560.8984555420002,561.896316333,560.9105938336672,,563.9392722920002,564.7719035830005,566.8472836669998,570.7867858750005,564.7719035830005,564.7719035830005,569.9591462500002,564.7719035830005,564.7719035830005,564.7719035830005,564.7719035830005,565.2428746249998,566.2830021669997,565.2126521246666,566.2830021669997,566.8472836669998,567.8873721669997,566.8153826246664,,564.7719035830005,569.9591462500002,564.7719035830005,569.9591462500002,569.9591462500002,,564.7719035830005,1,1,0.6512944579999385,reldom2_s005,001,2025-01-30_15h35.59.008,What-B-Scan_AC,2022.2.5,None,
48,Second_Order,8.0,audwhat,stimulus/audwhat_stim/percussion mallet_high-pitch_D_loud.wav,stimulus/audwhat_stim/percussion mallet_low-pitch_Dtri_loud.wav,stimulus/audwhat_stim/string viola_high-pitch_F_loud.wav,stimulus/audwhat_stim/string viola_low-pitch_Dtri_loud.wav,stimulus/viswhat_stim/match_blank.png,stimulus/viswhat_stim/match_box.png,stimulus/viswhat_stim/match_yes.png,stimulus/viswhat_stim/match_no.png,1.0,Match,Category,Category,1,5.125,0,5.125,0,5.125,0,5.125,0,0.625,0.625,0,0.0,0,0.0,0,0.0,0,0.0,1,0.5,1,2.125,1,0.5,1,2.125,0,,,,,0,63,63,63,,,,,,,,,570.7867858750005,575.8999027079999,570.7867858750005,570.7867858750005,570.7867858750005,570.7867858750005,571.2388657920001,572.2373576250002,571.2512023336669,572.2451813750004,572.8587785830005,573.8573772500004,572.8716844996673,573.8654087080004,575.8999027079999,576.6109729170003,578.6762390829999,,576.6109729170003,576.6109729170003,581.7799340419997,576.6109729170003,576.6109729170003,576.6109729170003,576.6109729170003,577.0818006250001,578.1134737080001,577.0509813746669,,578.6762390829999,579.713736875,578.6452714166664,,576.6109729170003,581.7799340419997,576.6109729170003,581.7799340419997,581.8209434999999,582.4839065420001,576.6109729170003,1,1,2.399474040998939,reldom2_s005,001,2025-01-30_15h35.59.008,What-B-Scan_AC,2022.2.5,None,
0,0.0,None,fixation,stimulus/viswhat_stim/blank_white.png,stimulus/viswhat_stim/blank_white.png,stimulus/audwhat_stim/blank_white.png,stimulus/audwhat_stim/blank_white.png,stimulus/viswhat_stim/blank_white.png,stimulus/viswhat_stim/blank_white.png,stimulus/viswhat_stim/blank_white.png,stimulus/viswhat_stim/blank_white.png,0.0,0.0,0.0,0.0,0,0.0,0,0.0,0,0.0,0,0.0,0,0.0,0.0,0,0.0,0,0.0,0,0.0,0,0.0,0,0.0,0,0.0,0,0.0,0,0.0,16,,,,,0,64,64,64,,,,,,,,,582.7229439170005,582.7229439170005,582.7229439170005,582.7229439170005,582.7229439170005,582.7229439170005,582.7229439170005,582.7229439170005,582.6172398753334,582.7229439170005,582.7229439170005,582.7229439170005,582.6172398753334,582.7229439170005,582.7229439170005,582.7229439170005,582.7229439170005,582.7229439170005,582.7229439170005,582.7229439170005,582.7229439170005,582.7229439170005,582.7229439170005,582.7229439170005,582.7229439170005,582.7229439170005,582.7229439170005,582.683906542,582.7229439170005,582.7229439170005,582.7229439170005,582.683906542,582.7229439170005,582.7229439170005,582.7229439170005,582.7229439170005,582.7229439170005,587.9216527079998,587.9216527079998,598.8623509170002,None,0,,reldom2_s005,001,2025-01-30_15h35.59.008,What-B-Scan_AC,2022.2.5,None,
