Trial,Order,Block,Type,Stimuli_File1,Stimuli_File2,Stimuli_File3,Stimuli_File4,Cue_File1,Cue_File2,Response_File_Yes,Response_File_No,Match,Cue_Dimension,Pair1_Dimension,Pair2_Dimension,Key,Cue1_Duration,Cue1_Onset,Cue2_Duration,Cue2_Onset,ResponseYes_Duration,ResponseYes_Onset,ResponseNo_Duration,ResponseNo_Onset,ITI_Within,ITI_Between,Image1_Duration,Image1_Onset,Image2_Duration,Image2_Onset,Image3_Duration,Image3_Onset,Image4_Duration,Image4_Onset,Sound1_Duration,Sound1_Onset,Sound2_Duration,Sound2_Onset,Sound3_Duration,Sound3_Onset,Sound4_Duration,Sound4_Onset,Fixation_Duration,trials_2.thisRepN,trials_2.thisTrialN,trials_2.thisN,trials_2.thisIndex,trials.thisRepN,trials.thisTrialN,trials.thisN,trials.thisIndex,text_start.started,key_resp_start.started,key_resp_start.keys,key_resp_start.rt,text2.started,key_resp_2.started,key_resp_2.keys,key_resp_2.rt,cue_file1.started,cue_file1.stopped,image_1.started,image_1.stopped,image_2.started,image_2.stopped,sound_icon1.started,sound_icon1.stopped,sound_1.started,sound_1.stopped,sound_icon2.started,sound_icon2.stopped,sound_2.started,sound_2.stopped,image_blank_1.started,image_blank_1.stopped,key_press.started,key_press.stopped,fixation_text.started,cue_file2.started,cue_file2.stopped,image_3.started,image_3.stopped,image_4.started,image_4.stopped,sound_icon3.started,sound_icon3.stopped,sound_3.started,sound_3.stopped,sound_icon4.started,sound_icon4.stopped,sound_4.started,sound_4.stopped,response_yes.started,response_yes.stopped,response_no.started,response_no.stopped,iti_blank.started,iti_blank.stopped,fixation_text.stopped,key_press.keys,key_press.corr,key_press.rt,participant,session,date,expName,psychopyVersion,frameRate,
,,,,,,,,,,,,,,,,,,,,,,,,,,,,,,,,,,,,,,,,,,,,,,,,,,,,9.296232958000019,9.296232958000019,2,12.484765541999877,,,,,,,,,,,,,,,,,,,,,,,,,,,,,,,,,,,,,,,,,,,,,,,,reldom2_s005,001,2025-01-30_15h01.35.887,Where-B-Scan_AC,2022.2.5,None,
,,,,,,,,,,,,,,,,,,,,,,,,,,,,,,,,,,,,,,,,,,,,0,0,0,0,,,,,,,,,21.813314375000118,21.813314375000118,5,18.705502832999628,,,,,,,,,,,,,,,,,,,,,,,,,,,,,,,,,,,,,,,,,,,,reldom2_s005,001,2025-01-30_15h01.35.887,Where-B-Scan_AC,2022.2.5,None,
,,,,,,,,,,,,,,,,,,,,,,,,,,,,,,,,,,,,,,,,,,,,1,0,1,0,,,,,,,,,40.5317905830002,40.5317905830002,5,1.9865342919997602,,,,,,,,,,,,,,,,,,,,,,,,,,,,,,,,,,,,,,,,,,,,reldom2_s005,001,2025-01-30_15h01.35.887,Where-B-Scan_AC,2022.2.5,None,
,,,,,,,,,,,,,,,,,,,,,,,,,,,,,,,,,,,,,,,,,,,,2,0,2,0,,,,,,,,,42.5463157500003,42.5463157500003,5,1.97358633299973,,,,,,,,,,,,,,,,,,,,,,,,,,,,,,,,,,,,,,,,,,,,reldom2_s005,001,2025-01-30_15h01.35.887,Where-B-Scan_AC,2022.2.5,None,
,,,,,,,,,,,,,,,,,,,,,,,,,,,,,,,,,,,,,,,,,,,,3,0,3,0,,,,,,,,,44.53515808300017,44.53515808300017,5,1.984156666999752,,,,,,,,,,,,,,,,,,,,,,,,,,,,,,,,,,,,,,,,,,,,reldom2_s005,001,2025-01-30_15h01.35.887,Where-B-Scan_AC,2022.2.5,None,
0,0.0,None,fixation,stimulus/audwhere_stim/blank_white.png,stimulus/audwhere_stim/blank_white.png,stimulus/viswhere_stim/blank_white.png,stimulus/viswhere_stim/blank_white.png,stimulus/audwhere_stim/blank_white.png,stimulus/audwhere_stim/blank_white.png,stimulus/audwhere_stim/blank_white.png,stimulus/audwhere_stim/blank_white.png,0.0,0.0,0.0,0.0,0,0.0,0,0.0,0,0.0,0,0.0,0,0.0,0.0,0,0.0,0,0.0,0,0.0,0,0.0,0,0.0,0,0.0,0,0.0,0,0.0,16,,,,,0,0,0,0,,,,,,,,,46.7084882500003,46.7084882500003,46.7084882500003,46.7084882500003,46.7084882500003,46.7084882500003,46.7084882500003,46.7084882500003,46.605922666333605,46.7084882500003,46.7084882500003,46.7084882500003,46.605922666333605,46.7084882500003,46.7084882500003,46.7084882500003,46.7084882500003,46.7084882500003,46.7084882500003,46.7084882500003,46.7084882500003,46.7084882500003,46.7084882500003,46.7084882500003,46.7084882500003,46.7084882500003,46.7084882500003,46.67258933300027,46.7084882500003,46.7084882500003,46.7084882500003,46.67258933300027,46.7084882500003,46.7084882500003,46.7084882500003,46.7084882500003,46.7084882500003,51.92408975000035,51.92408975000035,62.950062875000185,None,0,,reldom2_s005,001,2025-01-30_15h01.35.887,Where-B-Scan_AC,2022.2.5,None,
1,First_Order,1.0,audwhere,stimulus/audwhere_stim/dummy.wav,stimulus/audwhere_stim/dummy.wav,stimulus/audwhere_stim/right_away_290h.wav,stimulus/audwhere_stim/right_toward_300h.wav,stimulus/audwhere_stim/blank_white.png,stimulus/audwhere_stim/direction_box.png,stimulus/audwhere_stim/direction_yes.png,stimulus/audwhere_stim/direction_no.png,None,Direction,None,Side,2,0.0,0,5.125,0,5.125,0,5.125,0,0.0,0.625,0,0.0,0,0.0,0,0.0,0,0.0,0,0.0,0,0.0,1,0.5,1,2.125,0,,,,,0,1,1,1,,,,,,,,,62.950062875000185,62.950062875000185,62.950062875000185,62.950062875000185,62.950062875000185,62.950062875000185,62.950062875000185,62.950062875000185,62.877252625000345,62.950062875000185,62.950062875000185,62.950062875000185,62.877252625000345,62.950062875000185,62.950062875000185,62.950062875000185,65.02800287500031,,62.950062875000185,62.950062875000185,68.12836587500033,62.950062875000185,62.950062875000185,62.950062875000185,62.950062875000185,63.40069729100014,64.44334241600018,63.372415166666784,,65.02800287500031,66.06724416599991,64.99976441666674,,62.950062875000185,68.12836587500033,62.950062875000185,68.12836587500033,68.16910320800025,68.845027458,62.950062875000185,2,1,1.2440982499997517,reldom2_s005,001,2025-01-30_15h01.35.887,Where-B-Scan_AC,2022.2.5,None,
2,First_Order,1.0,audwhere,stimulus/audwhere_stim/dummy.wav,stimulus/audwhere_stim/dummy.wav,stimulus/audwhere_stim/left_toward_290h.wav,stimulus/audwhere_stim/right_toward_280h.wav,stimulus/audwhere_stim/blank_white.png,stimulus/audwhere_stim/side_box.png,stimulus/audwhere_stim/side_yes.png,stimulus/audwhere_stim/side_no.png,None,Side,None,Direction,2,0.0,0,5.125,0,5.125,0,5.125,0,0.0,0.625,0,0.0,0,0.0,0,0.0,0,0.0,0,0.0,0,0.0,1,0.5,1,2.125,0,,,,,0,2,2,2,,,,,,,,,69.05193358299994,69.05193358299994,69.05193358299994,69.05193358299994,69.05193358299994,69.05193358299994,69.05193358299994,69.05193358299994,68.97836079133333,69.05193358299994,69.05193358299994,69.05193358299994,68.97836079133333,69.05193358299994,69.05193358299994,69.05193358299994,71.15103825000006,,69.05193358299994,69.05193358299994,74.23791391600025,69.05193358299994,69.05193358299994,69.05193358299994,69.05193358299994,69.49901391599997,70.52793391600017,69.47107308266665,,71.15103825000006,72.18427070799999,71.123296957667,,69.05193358299994,74.23791391600025,69.05193358299994,74.23791391600025,74.277165083,74.94563850000031,69.05193358299994,2,1,0.6383650409998154,reldom2_s005,001,2025-01-30_15h01.35.887,Where-B-Scan_AC,2022.2.5,None,
3,First_Order,1.0,audwhere,stimulus/audwhere_stim/dummy.wav,stimulus/audwhere_stim/dummy.wav,stimulus/audwhere_stim/right_toward_280h.wav,stimulus/audwhere_stim/right_away_300h.wav,stimulus/audwhere_stim/blank_white.png,stimulus/audwhere_stim/direction_box.png,stimulus/audwhere_stim/direction_yes.png,stimulus/audwhere_stim/direction_no.png,None,Direction,None,Side,2,0.0,0,5.125,0,5.125,0,5.125,0,0.0,0.625,0,0.0,0,0.0,0,0.0,0,0.0,0,0.0,0,0.0,1,0.5,1,2.125,0,,,,,0,3,3,3,,,,,,,,,75.15350450000005,75.15350450000005,75.15350450000005,75.15350450000005,75.15350450000005,75.15350450000005,75.15350450000005,75.15350450000005,75.07897183333364,75.15350450000005,75.15350450000005,75.15350450000005,75.07897183333364,75.15350450000005,75.15350450000005,75.15350450000005,77.2273367910002,81.26507183300009,75.15350450000005,75.15350450000005,80.33993708300022,75.15350450000005,75.15350450000005,75.15350450000005,75.15350450000005,75.60304416600002,76.64330133300018,75.57491729166692,,77.2273367910002,78.26196329100003,77.19770912466699,,75.15350450000005,80.33993708300022,75.15350450000005,80.33993708300022,80.37967037499993,81.05883020800002,75.15350450000005,1,0,1.396284583999659,reldom2_s005,001,2025-01-30_15h01.35.887,Where-B-Scan_AC,2022.2.5,None,
4,First_Order,1.0,audwhere,stimulus/audwhere_stim/dummy.wav,stimulus/audwhere_stim/dummy.wav,stimulus/audwhere_stim/left_toward_270h.wav,stimulus/audwhere_stim/right_toward_300h.wav,stimulus/audwhere_stim/blank_white.png,stimulus/audwhere_stim/direction_box.png,stimulus/audwhere_stim/direction_yes.png,stimulus/audwhere_stim/direction_no.png,None,Direction,None,Direction,1,0.0,0,5.125,0,5.125,0,5.125,0,0.0,0.625,0,0.0,0,0.0,0,0.0,0,0.0,0,0.0,0,0.0,1,0.5,1,2.125,0,,,,,0,4,4,4,,,,,,,,,81.26507183300009,81.26507183300009,81.26507183300009,81.26507183300009,81.26507183300009,81.26507183300009,81.26507183300009,81.26507183300009,81.19216354133334,81.26507183300009,81.26507183300009,81.26507183300009,81.19216354133334,81.26507183300009,81.26507183300009,81.26507183300009,83.3511033750001,87.41055216600034,81.26507183300009,81.26507183300009,86.42645654100033,81.26507183300009,81.26507183300009,81.26507183300009,81.26507183300009,81.71606579100035,82.7648252910003,81.68680312466701,82.71890458300004,83.3511033750001,84.391022583,83.32248954166677,,81.26507183300009,86.42645654100033,81.26507183300009,86.42645654100033,86.46645699999999,87.14367741600017,81.26507183300009,1,1,0.9940191659993616,reldom2_s005,001,2025-01-30_15h01.35.887,Where-B-Scan_AC,2022.2.5,None,
0,0.0,None,fixation,stimulus/audwhere_stim/blank_white.png,stimulus/audwhere_stim/blank_white.png,stimulus/viswhere_stim/blank_white.png,stimulus/viswhere_stim/blank_white.png,stimulus/audwhere_stim/blank_white.png,stimulus/audwhere_stim/blank_white.png,stimulus/audwhere_stim/blank_white.png,stimulus/audwhere_stim/blank_white.png,0.0,0.0,0.0,0.0,0,0.0,0,0.0,0,0.0,0,0.0,0,0.0,0.0,0,0.0,0,0.0,0,0.0,0,0.0,0,0.0,0,0.0,0,0.0,0,0.0,10,,,,,0,5,5,5,,,,,,,,,87.41055216600034,87.41055216600034,87.41055216600034,87.41055216600034,87.41055216600034,87.41055216600034,87.41055216600034,87.41055216600034,87.31659566633346,87.41055216600034,87.41055216600034,87.41055216600034,87.31659566633346,87.41055216600034,87.41055216600034,87.41055216600034,87.41055216600034,87.41055216600034,87.41055216600034,87.41055216600034,87.41055216600034,87.41055216600034,87.41055216600034,87.41055216600034,87.41055216600034,87.41055216600034,87.41055216600034,87.36659566633347,87.41055216600034,87.41055216600034,87.41055216600034,87.36659566633347,87.41055216600034,87.41055216600034,87.41055216600034,87.41055216600034,87.41055216600034,92.59559933300034,92.59559933300034,97.56215570800032,None,0,,reldom2_s005,001,2025-01-30_15h01.35.887,Where-B-Scan_AC,2022.2.5,None,
5,Second_Order,1.0,audwhere,stimulus/audwhere_stim/right_toward_300h.wav,stimulus/audwhere_stim/left_toward_280h.wav,stimulus/audwhere_stim/right_toward_280h.wav,stimulus/audwhere_stim/right_away_280h.wav,stimulus/audwhere_stim/match_blank.png,stimulus/audwhere_stim/match_box.png,stimulus/audwhere_stim/match_yes.png,stimulus/audwhere_stim/match_no.png,2.0,Match,Direction,Side,2,5.125,0,5.125,0,5.125,0,5.125,0,0.75,0.75,0,0.0,0,0.0,0,0.0,0,0.0,1,0.5,1,2.125,1,0.5,1,2.125,0,,,,,0,6,6,6,,,,,,,,,97.56215570800032,102.68590425000002,97.56215570800032,97.56215570800032,97.56215570800032,97.56215570800032,98.01156170800004,98.99740108300011,98.0248537076666,99.01847366600032,99.63310762500032,100.631258333,99.64522170766692,100.63936245800005,102.68590425000002,103.51858283299998,105.59248841599992,,103.51858283299998,103.51858283299998,108.67840237500013,103.51858283299998,103.51858283299998,103.51858283299998,103.51858283299998,103.96947366600034,105.00804704100028,103.94081741666675,,105.59248841599992,106.63749600000028,105.56280145766665,,103.51858283299998,108.67840237500013,103.51858283299998,108.67840237500013,108.71901570799992,,103.51858283299998,2,1,1.0229594999996152,reldom2_s005,001,2025-01-30_15h01.35.887,Where-B-Scan_AC,2022.2.5,None,
6,Second_Order,1.0,audwhere,stimulus/audwhere_stim/right_toward_270h.wav,stimulus/audwhere_stim/right_away_290h.wav,stimulus/audwhere_stim/left_toward_300h.wav,stimulus/audwhere_stim/left_away_290h.wav,stimulus/audwhere_stim/match_blank.png,stimulus/audwhere_stim/match_box.png,stimulus/audwhere_stim/match_yes.png,stimulus/audwhere_stim/match_no.png,1.0,Match,Side,Side,1,5.125,0,5.125,0,5.125,0,5.125,0,0.625,0.625,0,0.0,0,0.0,0,0.0,0,0.0,1,0.5,1,2.125,1,0.5,1,2.125,0,,,,,0,7,7,7,,,,,,,,,109.5125956249999,114.63461445800021,109.5125956249999,109.5125956249999,109.5125956249999,109.5125956249999,109.9733660830002,110.97118887500028,109.98591937466678,110.97909775000016,111.59551691600018,112.59182075000035,111.60671337466671,112.5996881660003,114.63461445800021,115.34381195800006,117.41366966600026,121.46963287500012,115.34381195800006,115.34381195800006,120.52670987500005,115.34381195800006,115.34381195800006,115.34381195800006,115.34381195800006,115.79416075000017,116.82971470800021,115.76553504166692,,117.41366966600026,118.45475400000032,117.3842604996669,,115.34381195800006,120.52670987500005,115.34381195800006,120.52670987500005,120.52670987500005,121.2023320000003,115.34381195800006,1,1,0.7164541249994727,reldom2_s005,001,2025-01-30_15h01.35.887,Where-B-Scan_AC,2022.2.5,None,
0,0.0,None,fixation,stimulus/audwhere_stim/blank_white.png,stimulus/audwhere_stim/blank_white.png,stimulus/viswhere_stim/blank_white.png,stimulus/viswhere_stim/blank_white.png,stimulus/audwhere_stim/blank_white.png,stimulus/audwhere_stim/blank_white.png,stimulus/audwhere_stim/blank_white.png,stimulus/audwhere_stim/blank_white.png,0.0,0.0,0.0,0.0,0,0.0,0,0.0,0,0.0,0,0.0,0,0.0,0.0,0,0.0,0,0.0,0,0.0,0,0.0,0,0.0,0,0.0,0,0.0,0,0.0,9,,,,,0,8,8,8,,,,,,,,,121.46963287500012,121.46963287500012,121.46963287500012,121.46963287500012,121.46963287500012,121.46963287500012,121.46963287500012,121.46963287500012,121.37507312433365,121.46963287500012,121.46963287500012,121.46963287500012,121.37507312433365,121.46963287500012,121.46963287500012,121.46963287500012,121.46963287500012,121.46963287500012,121.46963287500012,121.46963287500012,121.46963287500012,121.46963287500012,121.46963287500012,121.46963287500012,121.46963287500012,121.46963287500012,121.46963287500012,121.42507312433366,121.46963287500012,121.46963287500012,121.46963287500012,121.42507312433366,121.46963287500012,121.46963287500012,121.46963287500012,121.46963287500012,121.46963287500012,126.66640345800033,126.66640345800033,130.73956279100003,None,0,,reldom2_s005,001,2025-01-30_15h01.35.887,Where-B-Scan_AC,2022.2.5,None,
7,First_Order,2.0,audwhere,stimulus/audwhere_stim/dummy.wav,stimulus/audwhere_stim/dummy.wav,stimulus/audwhere_stim/left_toward_270h.wav,stimulus/audwhere_stim/right_toward_270h.wav,stimulus/audwhere_stim/blank_white.png,stimulus/audwhere_stim/direction_box.png,stimulus/audwhere_stim/direction_yes.png,stimulus/audwhere_stim/direction_no.png,None,Direction,None,Direction,1,0.0,0,5.125,0,5.125,0,5.125,0,0.0,0.625,0,0.0,0,0.0,0,0.0,0,0.0,0,0.0,0,0.0,1,0.5,1,2.125,0,,,,,0,9,9,9,,,,,,,,,130.73956279100003,130.73956279100003,130.73956279100003,130.73956279100003,130.73956279100003,130.73956279100003,130.73956279100003,130.73956279100003,130.669180874667,130.73956279100003,130.73956279100003,130.73956279100003,130.669180874667,130.73956279100003,130.73956279100003,130.73956279100003,132.84267875000023,,130.73956279100003,130.73956279100003,135.91132737499993,130.73956279100003,130.73956279100003,130.73956279100003,130.73956279100003,131.19706512500034,132.24734945799992,131.16798629166695,132.20208920799996,132.84267875000023,133.89842179100015,132.81271774966697,,130.73956279100003,135.91132737499993,130.73956279100003,135.91132737499993,135.95195950000016,136.63641404100008,130.73956279100003,1,1,1.2224116669995055,reldom2_s005,001,2025-01-30_15h01.35.887,Where-B-Scan_AC,2022.2.5,None,
8,First_Order,2.0,audwhere,stimulus/audwhere_stim/dummy.wav,stimulus/audwhere_stim/dummy.wav,stimulus/audwhere_stim/left_toward_280h.wav,stimulus/audwhere_stim/right_toward_290h.wav,stimulus/audwhere_stim/blank_white.png,stimulus/audwhere_stim/side_box.png,stimulus/audwhere_stim/side_yes.png,stimulus/audwhere_stim/side_no.png,None,Side,None,Direction,2,0.0,0,5.125,0,5.125,0,5.125,0,0.0,0.625,0,0.0,0,0.0,0,0.0,0,0.0,0,0.0,0,0.0,1,0.5,1,2.125,0,,,,,0,10,10,10,,,,,,,,,136.84641495799997,136.84641495799997,136.84641495799997,136.84641495799997,136.84641495799997,136.84641495799997,136.84641495799997,136.84641495799997,136.76974737433343,136.84641495799997,136.84641495799997,136.84641495799997,136.76974737433343,136.84641495799997,136.84641495799997,136.84641495799997,138.94402254100032,,136.84641495799997,136.84641495799997,142.00408525000012,136.84641495799997,136.84641495799997,136.84641495799997,136.84641495799997,137.30261020800026,138.35339133300022,137.2735308326667,138.30697379100002,138.94402254100032,139.9957343750002,138.91527733266665,139.9503715830001,136.84641495799997,142.00408525000012,136.84641495799997,142.00408525000012,142.04450825000004,142.7293951659999,136.84641495799997,2,1,0.48107941699981893,reldom2_s005,001,2025-01-30_15h01.35.887,Where-B-Scan_AC,2022.2.5,None,
9,First_Order,2.0,audwhere,stimulus/audwhere_stim/dummy.wav,stimulus/audwhere_stim/dummy.wav,stimulus/audwhere_stim/left_away_270h.wav,stimulus/audwhere_stim/left_toward_290h.wav,stimulus/audwhere_stim/blank_white.png,stimulus/audwhere_stim/side_box.png,stimulus/audwhere_stim/side_yes.png,stimulus/audwhere_stim/side_no.png,None,Side,None,Side,1,0.0,0,5.125,0,5.125,0,5.125,0,0.0,0.625,0,0.0,0,0.0,0,0.0,0,0.0,0,0.0,0,0.0,1,0.5,1,2.125,0,,,,,0,11,11,11,,,,,,,,,142.94469675000028,142.94469675000028,142.94469675000028,142.94469675000028,142.94469675000028,142.94469675000028,142.94469675000028,142.94469675000028,142.86272849933326,142.94469675000028,142.94469675000028,142.94469675000028,142.86272849933326,142.94469675000028,142.94469675000028,142.94469675000028,145.0461034580003,,142.94469675000028,142.94469675000028,148.10577879099992,142.94469675000028,142.94469675000028,142.94469675000028,142.94469675000028,143.39923312500014,144.45227058299997,143.370226249667,144.40598100000034,145.0461034580003,146.1009622910001,145.01680929166676,146.055934083,142.94469675000028,148.10577879099992,142.94469675000028,148.10577879099992,148.1454489580001,148.8282518750002,142.94469675000028,1,1,1.111733374999858,reldom2_s005,001,2025-01-30_15h01.35.887,Where-B-Scan_AC,2022.2.5,None,
10,First_Order,2.0,audwhere,stimulus/audwhere_stim/dummy.wav,stimulus/audwhere_stim/dummy.wav,stimulus/audwhere_stim/right_away_290h.wav,stimulus/audwhere_stim/right_toward_290h.wav,stimulus/audwhere_stim/blank_white.png,stimulus/audwhere_stim/side_box.png,stimulus/audwhere_stim/side_yes.png,stimulus/audwhere_stim/side_no.png,None,Side,None,Side,1,0.0,0,5.125,0,5.125,0,5.125,0,0.0,0.625,0,0.0,0,0.0,0,0.0,0,0.0,0,0.0,0,0.0,1,0.5,1,2.125,0,,,,,0,12,12,12,,,,,,,,,149.0365148750002,149.0365148750002,149.0365148750002,149.0365148750002,149.0365148750002,149.0365148750002,149.0365148750002,149.0365148750002,148.96158520833356,149.0365148750002,149.0365148750002,149.0365148750002,148.96158520833356,149.0365148750002,149.0365148750002,149.0365148750002,151.1472672079999,155.16726104100007,149.0365148750002,149.0365148750002,154.21535837500005,149.0365148750002,149.0365148750002,149.0365148750002,149.0365148750002,149.49379720800016,150.55229550000013,149.46491987466678,,151.1472672079999,152.20340891600017,151.11741691666683,,149.0365148750002,154.21535837500005,149.0365148750002,154.21535837500005,154.25558491600032,154.93855916600023,149.0365148750002,1,1,0.9064057909995427,reldom2_s005,001,2025-01-30_15h01.35.887,Where-B-Scan_AC,2022.2.5,None,
0,0.0,None,fixation,stimulus/audwhere_stim/blank_white.png,stimulus/audwhere_stim/blank_white.png,stimulus/viswhere_stim/blank_white.png,stimulus/viswhere_stim/blank_white.png,stimulus/audwhere_stim/blank_white.png,stimulus/audwhere_stim/blank_white.png,stimulus/audwhere_stim/blank_white.png,stimulus/audwhere_stim/blank_white.png,0.0,0.0,0.0,0.0,0,0.0,0,0.0,0,0.0,0,0.0,0,0.0,0.0,0,0.0,0,0.0,0,0.0,0,0.0,0,0.0,0,0.0,0,0.0,0,0.0,9,,,,,0,13,13,13,,,,,,,,,155.16726104100007,155.16726104100007,155.16726104100007,155.16726104100007,155.16726104100007,155.16726104100007,155.16726104100007,155.16726104100007,155.0718924993336,155.16726104100007,155.16726104100007,155.16726104100007,155.0718924993336,155.16726104100007,155.16726104100007,155.16726104100007,155.16726104100007,155.16726104100007,155.16726104100007,155.16726104100007,155.16726104100007,155.16726104100007,155.16726104100007,155.16726104100007,155.16726104100007,155.16726104100007,155.16726104100007,155.12189249933357,155.16726104100007,155.16726104100007,155.16726104100007,155.12189249933357,155.16726104100007,155.16726104100007,155.16726104100007,155.16726104100007,155.16726104100007,160.36012312499997,160.36012312499997,164.3377917910002,None,0,,reldom2_s005,001,2025-01-30_15h01.35.887,Where-B-Scan_AC,2022.2.5,None,
11,Second_Order,2.0,audwhere,stimulus/audwhere_stim/left_toward_280h.wav,stimulus/audwhere_stim/left_away_290h.wav,stimulus/audwhere_stim/left_away_290h.wav,stimulus/audwhere_stim/right_away_280h.wav,stimulus/audwhere_stim/match_blank.png,stimulus/audwhere_stim/match_box.png,stimulus/audwhere_stim/match_yes.png,stimulus/audwhere_stim/match_no.png,2.0,Match,Side,Direction,2,5.125,0,5.125,0,5.125,0,5.125,0,0.75,0.75,0,0.0,0,0.0,0,0.0,0,0.0,1,0.5,1,2.125,1,0.5,1,2.125,0,,,,,0,14,14,14,,,,,,,,,164.3377917910002,169.4609220000002,164.3377917910002,164.3377917910002,164.3377917910002,164.3377917910002,164.79983495800025,165.7980042500003,164.81228716666672,165.80591158300012,166.42061808300014,167.41874137500008,166.432710082667,167.42830062500025,169.4609220000002,170.29209583300008,172.39617475000023,176.29899100000011,170.29209583300008,170.29209583300008,175.46057954100024,170.29209583300008,170.29209583300008,170.29209583300008,170.29209583300008,170.74783916600018,171.80293433299994,170.71837370766687,171.7576684579999,172.39617475000023,173.4525587080002,172.36590766666703,173.40622762500016,170.29209583300008,175.46057954100024,170.29209583300008,175.46057954100024,175.50039837500026,,170.29209583300008,2,1,0.9285019169997213,reldom2_s005,001,2025-01-30_15h01.35.887,Where-B-Scan_AC,2022.2.5,None,
12,Second_Order,2.0,audwhere,stimulus/audwhere_stim/left_away_270h.wav,stimulus/audwhere_stim/left_toward_280h.wav,stimulus/audwhere_stim/right_away_280h.wav,stimulus/audwhere_stim/right_toward_300h.wav,stimulus/audwhere_stim/match_blank.png,stimulus/audwhere_stim/match_box.png,stimulus/audwhere_stim/match_yes.png,stimulus/audwhere_stim/match_no.png,1.0,Match,Side,Side,1,5.125,0,5.125,0,5.125,0,5.125,0,0.625,0.625,0,0.0,0,0.0,0,0.0,0,0.0,1,0.5,1,2.125,1,0.5,1,2.125,0,,,,,0,15,15,15,,,,,,,,,176.29899100000011,181.42195545799996,176.29899100000011,176.29899100000011,176.29899100000011,176.29899100000011,176.75993429100026,177.75866450000012,176.77296783266664,177.76646504100017,178.38165937500025,179.37916187500014,178.3937208746668,179.38722616600035,181.42195545799996,182.1320363330001,184.223615375,,182.1320363330001,182.1320363330001,187.2863681660001,182.1320363330001,182.1320363330001,182.1320363330001,182.1320363330001,182.5870704580002,183.6353102080002,182.55664895766702,183.5903235410001,184.223615375,185.28025504100015,184.19476083266662,,182.1320363330001,187.2863681660001,182.1320363330001,187.2863681660001,187.32752508300018,188.00599950000014,182.1320363330001,1,1,1.1167420419997143,reldom2_s005,001,2025-01-30_15h01.35.887,Where-B-Scan_AC,2022.2.5,None,
0,0.0,None,fixation,stimulus/audwhere_stim/blank_white.png,stimulus/audwhere_stim/blank_white.png,stimulus/viswhere_stim/blank_white.png,stimulus/viswhere_stim/blank_white.png,stimulus/audwhere_stim/blank_white.png,stimulus/audwhere_stim/blank_white.png,stimulus/audwhere_stim/blank_white.png,stimulus/audwhere_stim/blank_white.png,0.0,0.0,0.0,0.0,0,0.0,0,0.0,0,0.0,0,0.0,0,0.0,0.0,0,0.0,0,0.0,0,0.0,0,0.0,0,0.0,0,0.0,0,0.0,0,0.0,8,,,,,0,16,16,16,,,,,,,,,188.2352084160002,188.2352084160002,188.2352084160002,188.2352084160002,188.2352084160002,188.2352084160002,188.2352084160002,188.2352084160002,188.1393328333335,188.2352084160002,188.2352084160002,188.2352084160002,188.1393328333335,188.2352084160002,188.2352084160002,188.2352084160002,188.2352084160002,188.2352084160002,188.2352084160002,188.2352084160002,188.2352084160002,188.2352084160002,188.2352084160002,188.2352084160002,188.2352084160002,188.2352084160002,188.2352084160002,188.18933283333348,188.2352084160002,188.2352084160002,188.2352084160002,188.18933283333348,188.2352084160002,188.2352084160002,188.2352084160002,188.2352084160002,188.2352084160002,193.4643617910001,193.4643617910001,196.43078991600032,None,0,,reldom2_s005,001,2025-01-30_15h01.35.887,Where-B-Scan_AC,2022.2.5,None,
13,First_Order,3.0,viswhere,stimulus/viswhere_stim/blank_white.png,stimulus/viswhere_stim/blank_white.png,stimulus/viswhere_stim/150-deg_dot-left_seagreen.png,stimulus/viswhere_stim/150-deg_dot-right_royalblue.png,stimulus/viswhere_stim/blank_white.png,stimulus/viswhere_stim/line_box.png,stimulus/viswhere_stim/line_yes.png,stimulus/viswhere_stim/line_no.png,None,Line,None,Line,1,0.0,0,5.125,0,5.125,0,5.125,0,0.0,0.625,0,0.0,0,0.0,1,0.5,1,2.125,0,0.0,0,0.0,0,0.0,0,0.0,0,,,,,0,17,17,17,,,,,,,,,196.43078991600032,196.43078991600032,196.43078991600032,196.43078991600032,196.43078991600032,196.43078991600032,196.43078991600032,196.43078991600032,196.40909799966693,196.43078991600032,196.43078991600032,196.43078991600032,196.40909799966693,196.43078991600032,196.43078991600032,196.43078991600032,198.53468779100012,202.48764862500002,196.43078991600032,196.43078991600032,201.55924470800028,196.90033279099998,197.91219900000033,198.53468779100012,199.55129741600012,196.43078991600032,196.43078991600032,196.42576466633358,196.43078991600032,196.43078991600032,196.43078991600032,196.42576466633358,196.43078991600032,196.43078991600032,201.55924470800028,196.43078991600032,201.55924470800028,201.6435952910001,202.2696733749999,196.43078991600032,1,1,1.152491249999457,reldom2_s005,001,2025-01-30_15h01.35.887,Where-B-Scan_AC,2022.2.5,None,
14,First_Order,3.0,viswhere,stimulus/viswhere_stim/blank_white.png,stimulus/viswhere_stim/blank_white.png,stimulus/viswhere_stim/90-deg_dot-right_cyan.png,stimulus/viswhere_stim/90-deg_dot-left_turquoise.png,stimulus/viswhere_stim/blank_white.png,stimulus/viswhere_stim/line_box.png,stimulus/viswhere_stim/line_yes.png,stimulus/viswhere_stim/line_no.png,None,Line,None,Line,1,0.0,0,5.125,0,5.125,0,5.125,0,0.0,0.625,0,0.0,0,0.0,1,0.5,1,2.125,0,0.0,0,0.0,0,0.0,0,0.0,0,,,,,0,18,18,18,,,,,,,,,202.48764862500002,202.48764862500002,202.48764862500002,202.48764862500002,202.48764862500002,202.48764862500002,202.48764862500002,202.48764862500002,202.46486541633325,202.48764862500002,202.48764862500002,202.48764862500002,202.46486541633325,202.48764862500002,202.48764862500002,202.48764862500002,204.59622912500026,208.5615941660003,202.48764862500002,202.48764862500002,207.61731316600026,202.97284770800024,203.97735483299994,204.59622912500026,205.6065651660001,202.48764862500002,202.48764862500002,202.48153208299993,202.48764862500002,202.48764862500002,202.48764862500002,202.48153208299993,202.48764862500002,202.48764862500002,207.61731316600026,202.48764862500002,207.61731316600026,207.71575283300035,208.34187900000006,202.48764862500002,1,1,0.550652375000027,reldom2_s005,001,2025-01-30_15h01.35.887,Where-B-Scan_AC,2022.2.5,None,
15,First_Order,3.0,viswhere,stimulus/viswhere_stim/blank_white.png,stimulus/viswhere_stim/blank_white.png,stimulus/viswhere_stim/60-deg_dot-right_salmon.png,stimulus/viswhere_stim/150-deg_dot-right_turquoise.png,stimulus/viswhere_stim/blank_white.png,stimulus/viswhere_stim/dot_box.png,stimulus/viswhere_stim/dot_yes.png,stimulus/viswhere_stim/dot_no.png,None,Dot,None,Dot,1,0.0,0,5.125,0,5.125,0,5.125,0,0.0,0.625,0,0.0,0,0.0,1,0.5,1,2.125,0,0.0,0,0.0,0,0.0,0,0.0,0,,,,,0,19,19,19,,,,,,,,,208.5615941660003,208.5615941660003,208.5615941660003,208.5615941660003,208.5615941660003,208.5615941660003,208.5615941660003,208.5615941660003,208.53611749933347,208.5615941660003,208.5615941660003,208.5615941660003,208.53611749933347,208.5615941660003,208.5615941660003,208.5615941660003,210.6730997909999,214.6184902079999,208.5615941660003,208.5615941660003,213.6997101249999,209.0462923330001,210.05334537499994,210.6730997909999,211.68235737500027,208.5615941660003,208.5615941660003,208.55278416600015,208.5615941660003,208.5615941660003,208.5615941660003,208.55278416600015,208.5615941660003,208.5615941660003,213.6997101249999,208.5615941660003,213.6997101249999,213.78835849999996,214.41390124999998,208.5615941660003,2,0,1.1609066669998356,reldom2_s005,001,2025-01-30_15h01.35.887,Where-B-Scan_AC,2022.2.5,None,
16,First_Order,3.0,viswhere,stimulus/viswhere_stim/blank_white.png,stimulus/viswhere_stim/blank_white.png,stimulus/viswhere_stim/120-deg_dot-left_peru.png,stimulus/viswhere_stim/120-deg_dot-right_royalblue.png,stimulus/viswhere_stim/blank_white.png,stimulus/viswhere_stim/dot_box.png,stimulus/viswhere_stim/dot_yes.png,stimulus/viswhere_stim/dot_no.png,None,Dot,None,Line,2,0.0,0,5.125,0,5.125,0,5.125,0,0.0,0.625,0,0.0,0,0.0,1,0.5,1,2.125,0,0.0,0,0.0,0,0.0,0,0.0,0,,,,,0,20,20,20,,,,,,,,,214.6184902079999,214.6184902079999,214.6184902079999,214.6184902079999,214.6184902079999,214.6184902079999,214.6184902079999,214.6184902079999,214.59489754133332,214.6184902079999,214.6184902079999,214.6184902079999,214.59489754133332,214.6184902079999,214.6184902079999,214.6184902079999,216.7139850829999,220.76229520800007,214.6184902079999,214.6184902079999,219.74139833300023,215.0988372500001,216.11841237499993,216.7139850829999,217.7195387910001,214.6184902079999,214.6184902079999,214.611564208,214.6184902079999,214.6184902079999,214.6184902079999,214.611564208,214.6184902079999,214.6184902079999,219.74139833300023,214.6184902079999,219.74139833300023,219.842385208,220.46993241600012,214.6184902079999,2,1,0.8717586659995504,reldom2_s005,001,2025-01-30_15h01.35.887,Where-B-Scan_AC,2022.2.5,None,
0,0.0,None,fixation,stimulus/audwhere_stim/blank_white.png,stimulus/audwhere_stim/blank_white.png,stimulus/viswhere_stim/blank_white.png,stimulus/viswhere_stim/blank_white.png,stimulus/audwhere_stim/blank_white.png,stimulus/audwhere_stim/blank_white.png,stimulus/audwhere_stim/blank_white.png,stimulus/audwhere_stim/blank_white.png,0.0,0.0,0.0,0.0,0,0.0,0,0.0,0,0.0,0,0.0,0,0.0,0.0,0,0.0,0,0.0,0,0.0,0,0.0,0,0.0,0,0.0,0,0.0,0,0.0,10,,,,,0,21,21,21,,,,,,,,,220.76229520800007,220.76229520800007,220.76229520800007,220.76229520800007,220.76229520800007,220.76229520800007,220.76229520800007,220.76229520800007,220.6642739993334,220.76229520800007,220.76229520800007,220.76229520800007,220.6642739993334,220.76229520800007,220.76229520800007,220.76229520800007,220.76229520800007,220.76229520800007,220.76229520800007,220.76229520800007,220.76229520800007,220.76229520800007,220.76229520800007,220.76229520800007,220.76229520800007,220.76229520800007,220.76229520800007,220.71427399933341,220.76229520800007,220.76229520800007,220.76229520800007,220.71427399933341,220.76229520800007,220.76229520800007,220.76229520800007,220.76229520800007,220.76229520800007,225.97335016600027,225.97335016600027,230.89036062500008,None,0,,reldom2_s005,001,2025-01-30_15h01.35.887,Where-B-Scan_AC,2022.2.5,None,
17,Second_Order,3.0,viswhere,stimulus/viswhere_stim/90-deg_dot-left_lightsseagreen.png,stimulus/viswhere_stim/90-deg_dot-right_lightsseagreen.png,stimulus/viswhere_stim/120-deg_dot-right_cyan.png,stimulus/viswhere_stim/60-deg_dot-right_royalblue.png,stimulus/audwhere_stim/match_blank.png,stimulus/audwhere_stim/match_box.png,stimulus/audwhere_stim/match_yes.png,stimulus/audwhere_stim/match_no.png,2.0,Match,Line,Dot,2,5.125,0,5.125,0,5.125,0,5.125,0,0.75,0.75,1,0.5,1,2.125,1,0.5,1,2.125,0,0.0,0,0.0,0,0.0,0,0.0,0,,,,,0,22,22,22,,,,,,,,,230.89036062500008,236.01494200000025,231.3703464160003,232.36823625000034,232.99052833299993,233.9883315410002,230.89036062500008,230.89036062500008,230.90369970833368,230.89036062500008,230.89036062500008,230.89036062500008,230.90369970833368,230.89036062500008,236.01494200000025,236.7936178330001,238.87974175,242.78077683300035,236.7936178330001,236.7936178330001,241.92274425000005,237.25633137500017,238.26060350000034,238.87974175,239.88987445800012,236.7936178330001,236.7936178330001,236.78146074933335,236.7936178330001,236.7936178330001,236.7936178330001,236.78146074933335,236.7936178330001,236.7936178330001,241.92274425000005,236.7936178330001,241.92274425000005,242.006078291,242.78077683300035,236.7936178330001,2,1,0.7781420839996827,reldom2_s005,001,2025-01-30_15h01.35.887,Where-B-Scan_AC,2022.2.5,None,
18,Second_Order,3.0,viswhere,stimulus/viswhere_stim/90-deg_dot-left_lightsseagreen.png,stimulus/viswhere_stim/60-deg_dot-left_mediumslateblue.png,stimulus/viswhere_stim/60-deg_dot-right_lightsseagreen.png,stimulus/viswhere_stim/30-deg_dot-right_goldenrod.png,stimulus/audwhere_stim/match_blank.png,stimulus/audwhere_stim/match_box.png,stimulus/audwhere_stim/match_yes.png,stimulus/audwhere_stim/match_no.png,1.0,Match,Dot,Dot,1,5.125,0,5.125,0,5.125,0,5.125,0,0.625,0.625,1,0.5,1,2.125,1,0.5,1,2.125,0,0.0,0,0.0,0,0.0,0,0.0,0,,,,,0,23,23,23,,,,,,,,,242.78077683300035,247.90383758300004,243.26437483300015,244.26188895800033,244.88632750000033,245.88257950000025,242.78077683300035,242.78077683300035,242.79357662500007,242.78077683300035,242.78077683300035,242.78077683300035,242.79357662500007,242.78077683300035,247.90383758300004,248.56423700000005,250.66236395800024,254.70475241600025,248.56423700000005,248.56423700000005,253.69986804100017,249.04409454100005,250.06424316600032,250.66236395800024,251.67095029100028,248.56423700000005,248.56423700000005,248.5559955413333,248.56423700000005,248.56423700000005,248.56423700000005,248.5559955413333,248.56423700000005,248.56423700000005,253.69986804100017,248.56423700000005,253.69986804100017,253.7832482910003,254.4086655000001,248.56423700000005,1,1,0.9452356669994515,reldom2_s005,001,2025-01-30_15h01.35.887,Where-B-Scan_AC,2022.2.5,None,
0,0.0,None,fixation,stimulus/audwhere_stim/blank_white.png,stimulus/audwhere_stim/blank_white.png,stimulus/viswhere_stim/blank_white.png,stimulus/viswhere_stim/blank_white.png,stimulus/audwhere_stim/blank_white.png,stimulus/audwhere_stim/blank_white.png,stimulus/audwhere_stim/blank_white.png,stimulus/audwhere_stim/blank_white.png,0.0,0.0,0.0,0.0,0,0.0,0,0.0,0,0.0,0,0.0,0,0.0,0.0,0,0.0,0,0.0,0,0.0,0,0.0,0,0.0,0,0.0,0,0.0,0,0.0,9,,,,,0,24,24,24,,,,,,,,,254.70475241600025,254.70475241600025,254.70475241600025,254.70475241600025,254.70475241600025,254.70475241600025,254.70475241600025,254.70475241600025,254.6048413333336,254.70475241600025,254.70475241600025,254.70475241600025,254.6048413333336,254.70475241600025,254.70475241600025,254.70475241600025,254.70475241600025,254.70475241600025,254.70475241600025,254.70475241600025,254.70475241600025,254.70475241600025,254.70475241600025,254.70475241600025,254.70475241600025,254.70475241600025,254.70475241600025,254.65484133333362,254.70475241600025,254.70475241600025,254.70475241600025,254.65484133333362,254.70475241600025,254.70475241600025,254.70475241600025,254.70475241600025,254.70475241600025,259.9253632079999,259.9253632079999,263.92659433300014,None,0,,reldom2_s005,001,2025-01-30_15h01.35.887,Where-B-Scan_AC,2022.2.5,None,
19,First_Order,4.0,viswhere,stimulus/viswhere_stim/blank_white.png,stimulus/viswhere_stim/blank_white.png,stimulus/viswhere_stim/90-deg_dot-left_seagreen.png,stimulus/viswhere_stim/150-deg_dot-left_lightsseagreen.png,stimulus/viswhere_stim/blank_white.png,stimulus/viswhere_stim/dot_box.png,stimulus/viswhere_stim/dot_yes.png,stimulus/viswhere_stim/dot_no.png,None,Dot,None,Dot,1,0.0,0,5.125,0,5.125,0,5.125,0,0.0,0.625,0,0.0,0,0.0,1,0.5,1,2.125,0,0.0,0,0.0,0,0.0,0,0.0,0,,,,,0,25,25,25,,,,,,,,,263.92659433300014,263.92659433300014,263.92659433300014,263.92659433300014,263.92659433300014,263.92659433300014,263.92659433300014,263.92659433300014,263.9065825416666,263.92659433300014,263.92659433300014,263.92659433300014,263.9065825416666,263.92659433300014,263.92659433300014,263.92659433300014,266.0255701660003,269.99504237500014,263.92659433300014,263.92659433300014,269.06398666600035,264.4119932910003,265.424819416,266.0255701660003,267.0419783750003,263.92659433300014,263.92659433300014,263.9065825416666,263.92659433300014,263.92659433300014,263.92659433300014,263.9065825416666,263.92659433300014,263.92659433300014,269.06398666600035,263.92659433300014,269.06398666600035,269.15220483300027,269.7777495,263.92659433300014,1,1,1.1844901669996943,reldom2_s005,001,2025-01-30_15h01.35.887,Where-B-Scan_AC,2022.2.5,None,
20,First_Order,4.0,viswhere,stimulus/viswhere_stim/blank_white.png,stimulus/viswhere_stim/blank_white.png,stimulus/viswhere_stim/30-deg_dot-left_peru.png,stimulus/viswhere_stim/30-deg_dot-right_salmon.png,stimulus/viswhere_stim/blank_white.png,stimulus/viswhere_stim/dot_box.png,stimulus/viswhere_stim/dot_yes.png,stimulus/viswhere_stim/dot_no.png,None,Dot,None,Line,2,0.0,0,5.125,0,5.125,0,5.125,0,0.0,0.625,0,0.0,0,0.0,1,0.5,1,2.125,0,0.0,0,0.0,0,0.0,0,0.0,0,,,,,0,26,26,26,,,,,,,,,269.99504237500014,269.99504237500014,269.99504237500014,269.99504237500014,269.99504237500014,269.99504237500014,269.99504237500014,269.99504237500014,269.97291441633325,269.99504237500014,269.99504237500014,269.99504237500014,269.97291441633325,269.99504237500014,269.99504237500014,269.99504237500014,272.0973305000002,276.06425879100016,269.99504237500014,269.99504237500014,275.1183921249999,270.47713141600025,271.48105408300034,272.0973305000002,273.10932333300025,269.99504237500014,269.99504237500014,269.9895810829999,269.99504237500014,269.99504237500014,269.99504237500014,269.9895810829999,269.99504237500014,269.99504237500014,275.1183921249999,269.99504237500014,275.1183921249999,275.2159274999999,275.841614125,269.99504237500014,2,1,0.9202524170000288,reldom2_s005,001,2025-01-30_15h01.35.887,Where-B-Scan_AC,2022.2.5,None,
21,First_Order,4.0,viswhere,stimulus/viswhere_stim/blank_white.png,stimulus/viswhere_stim/blank_white.png,stimulus/viswhere_stim/60-deg_dot-left_lightsseagreen.png,stimulus/viswhere_stim/30-deg_dot-left_slateblue.png,stimulus/viswhere_stim/blank_white.png,stimulus/viswhere_stim/line_box.png,stimulus/viswhere_stim/line_yes.png,stimulus/viswhere_stim/line_no.png,None,Line,None,Dot,2,0.0,0,5.125,0,5.125,0,5.125,0,0.0,0.625,0,0.0,0,0.0,1,0.5,1,2.125,0,0.0,0,0.0,0,0.0,0,0.0,0,,,,,0,27,27,27,,,,,,,,,276.06425879100016,276.06425879100016,276.06425879100016,276.06425879100016,276.06425879100016,276.06425879100016,276.06425879100016,276.06425879100016,276.0372359993333,276.06425879100016,276.06425879100016,276.06425879100016,276.0372359993333,276.06425879100016,276.06425879100016,276.06425879100016,278.17397437499994,282.1319168750001,276.06425879100016,276.06425879100016,281.2045038330002,276.54929825,277.5558392500002,278.17397437499994,279.18791337500033,276.06425879100016,276.06425879100016,276.05390266599994,276.06425879100016,276.06425879100016,276.06425879100016,276.05390266599994,276.06425879100016,276.06425879100016,281.2045038330002,276.06425879100016,281.2045038330002,281.2876593750002,281.91481462499996,276.06425879100016,2,1,0.8837819999994281,reldom2_s005,001,2025-01-30_15h01.35.887,Where-B-Scan_AC,2022.2.5,None,
22,First_Order,4.0,viswhere,stimulus/viswhere_stim/blank_white.png,stimulus/viswhere_stim/blank_white.png,stimulus/viswhere_stim/120-deg_dot-right_peru.png,stimulus/viswhere_stim/150-deg_dot-right_peru.png,stimulus/viswhere_stim/blank_white.png,stimulus/viswhere_stim/line_box.png,stimulus/viswhere_stim/line_yes.png,stimulus/viswhere_stim/line_no.png,None,Line,None,Dot,2,0.0,0,5.125,0,5.125,0,5.125,0,0.0,0.625,0,0.0,0,0.0,1,0.5,1,2.125,0,0.0,0,0.0,0,0.0,0,0.0,0,,,,,0,28,28,28,,,,,,,,,282.1319168750001,282.1319168750001,282.1319168750001,282.1319168750001,282.1319168750001,282.1319168750001,282.1319168750001,282.1319168750001,282.1089267493333,282.1319168750001,282.1319168750001,282.1319168750001,282.1089267493333,282.1319168750001,282.1319168750001,282.1319168750001,284.233817458,288.2708492080001,282.1319168750001,282.1319168750001,287.2771398750001,282.61956362499996,283.63194454099994,284.233817458,285.253978708,282.1319168750001,282.1319168750001,282.12559341599996,282.1319168750001,282.1319168750001,282.1319168750001,282.12559341599996,282.1319168750001,282.1319168750001,287.2771398750001,282.1319168750001,287.2771398750001,287.34938616599993,287.9758385,282.1319168750001,2,1,0.8766676249997545,reldom2_s005,001,2025-01-30_15h01.35.887,Where-B-Scan_AC,2022.2.5,None,
0,0.0,None,fixation,stimulus/audwhere_stim/blank_white.png,stimulus/audwhere_stim/blank_white.png,stimulus/viswhere_stim/blank_white.png,stimulus/viswhere_stim/blank_white.png,stimulus/audwhere_stim/blank_white.png,stimulus/audwhere_stim/blank_white.png,stimulus/audwhere_stim/blank_white.png,stimulus/audwhere_stim/blank_white.png,0.0,0.0,0.0,0.0,0,0.0,0,0.0,0,0.0,0,0.0,0,0.0,0.0,0,0.0,0,0.0,0,0.0,0,0.0,0,0.0,0,0.0,0,0.0,0,0.0,10,,,,,0,29,29,29,,,,,,,,,288.2708492080001,288.2708492080001,288.2708492080001,288.2708492080001,288.2708492080001,288.2708492080001,288.2708492080001,288.2708492080001,288.16997974933366,288.2708492080001,288.2708492080001,288.2708492080001,288.16997974933366,288.2708492080001,288.2708492080001,288.2708492080001,288.2708492080001,288.2708492080001,288.2708492080001,288.2708492080001,288.2708492080001,288.2708492080001,288.2708492080001,288.2708492080001,288.2708492080001,288.2708492080001,288.2708492080001,288.2199797493337,288.2708492080001,288.2708492080001,288.2708492080001,288.2199797493337,288.2708492080001,288.2708492080001,288.2708492080001,288.2708492080001,288.2708492080001,293.470449166,293.470449166,298.41997012499996,None,0,,reldom2_s005,001,2025-01-30_15h01.35.887,Where-B-Scan_AC,2022.2.5,None,
23,Second_Order,4.0,viswhere,stimulus/viswhere_stim/60-deg_dot-right_peru.png,stimulus/viswhere_stim/60-deg_dot-left_royalblue.png,stimulus/viswhere_stim/90-deg_dot-left_slateblue.png,stimulus/viswhere_stim/90-deg_dot-right_royalblue.png,stimulus/audwhere_stim/match_blank.png,stimulus/audwhere_stim/match_box.png,stimulus/audwhere_stim/match_yes.png,stimulus/audwhere_stim/match_no.png,1.0,Match,Line,Line,1,5.125,0,5.125,0,5.125,0,5.125,0,0.75,0.75,1,0.5,1,2.125,1,0.5,1,2.125,0,0.0,0,0.0,0,0.0,0,0.0,0,,,,,0,30,30,30,,,,,,,,,298.41997012499996,303.537144291,298.8921408750002,299.8904520410001,300.52564658300025,301.514426791,298.41997012499996,298.41997012499996,298.4336097083334,298.41997012499996,298.41997012499996,298.41997012499996,298.4336097083334,298.41997012499996,303.537144291,304.3161494579999,306.402060375,310.297390875,304.3161494579999,304.3161494579999,309.45184987500033,304.7844020000002,305.79947812499995,306.402060375,307.4045542500003,304.3161494579999,304.3161494579999,304.30507254133363,304.3161494579999,304.3161494579999,304.3161494579999,304.30507254133363,304.3161494579999,304.3161494579999,309.45184987500033,304.3161494579999,309.45184987500033,309.52296445799993,310.297390875,304.3161494579999,1,1,0.5126059999993231,reldom2_s005,001,2025-01-30_15h01.35.887,Where-B-Scan_AC,2022.2.5,None,
24,Second_Order,4.0,viswhere,stimulus/viswhere_stim/120-deg_dot-left_peru.png,stimulus/viswhere_stim/120-deg_dot-right_peru.png,stimulus/viswhere_stim/30-deg_dot-right_peru.png,stimulus/viswhere_stim/30-deg_dot-left_lightsseagreen.png,stimulus/audwhere_stim/match_blank.png,stimulus/audwhere_stim/match_box.png,stimulus/audwhere_stim/match_yes.png,stimulus/audwhere_stim/match_no.png,1.0,Match,Line,Line,1,5.125,0,5.125,0,5.125,0,5.125,0,0.625,0.625,1,0.5,1,2.125,1,0.5,1,2.125,0,0.0,0,0.0,0,0.0,0,0.0,0,,,,,0,31,31,31,,,,,,,,,310.297390875,315.41413412500015,310.7822046250003,311.7723959580003,312.40713829100014,313.405053208,310.297390875,310.297390875,310.310527208,310.297390875,310.297390875,310.297390875,310.310527208,310.297390875,315.41413412500015,316.0717232500001,318.1617047909999,322.2077024580003,316.0717232500001,316.0717232500001,321.19550045799997,316.535709666,317.5431678330001,318.1617047909999,319.1777540000003,316.0717232500001,316.0717232500001,316.0610441243334,316.0717232500001,316.0717232500001,316.0717232500001,316.0610441243334,316.0717232500001,316.0717232500001,321.19550045799997,316.0717232500001,321.19550045799997,321.2799292909999,321.9238413329999,316.0717232500001,1,1,0.6757492079996155,reldom2_s005,001,2025-01-30_15h01.35.887,Where-B-Scan_AC,2022.2.5,None,
0,0.0,None,fixation,stimulus/audwhere_stim/blank_white.png,stimulus/audwhere_stim/blank_white.png,stimulus/viswhere_stim/blank_white.png,stimulus/viswhere_stim/blank_white.png,stimulus/audwhere_stim/blank_white.png,stimulus/audwhere_stim/blank_white.png,stimulus/audwhere_stim/blank_white.png,stimulus/audwhere_stim/blank_white.png,0.0,0.0,0.0,0.0,0,0.0,0,0.0,0,0.0,0,0.0,0,0.0,0.0,0,0.0,0,0.0,0,0.0,0,0.0,0,0.0,0,0.0,0,0.0,0,0.0,9,,,,,0,32,32,32,,,,,,,,,322.2077024580003,322.2077024580003,322.2077024580003,322.2077024580003,322.2077024580003,322.2077024580003,322.2077024580003,322.2077024580003,322.1072912913335,322.2077024580003,322.2077024580003,322.2077024580003,322.1072912913335,322.2077024580003,322.2077024580003,322.2077024580003,322.2077024580003,322.2077024580003,322.2077024580003,322.2077024580003,322.2077024580003,322.2077024580003,322.2077024580003,322.2077024580003,322.2077024580003,322.2077024580003,322.2077024580003,322.15729129133354,322.2077024580003,322.2077024580003,322.2077024580003,322.15729129133354,322.2077024580003,322.2077024580003,322.2077024580003,322.2077024580003,322.2077024580003,327.4177025409999,327.4177025409999,331.44018800000003,None,0,,reldom2_s005,001,2025-01-30_15h01.35.887,Where-B-Scan_AC,2022.2.5,None,
25,First_Order,5.0,audwhere,stimulus/audwhere_stim/dummy.wav,stimulus/audwhere_stim/dummy.wav,stimulus/audwhere_stim/right_toward_280h.wav,stimulus/audwhere_stim/right_away_290h.wav,stimulus/audwhere_stim/blank_white.png,stimulus/audwhere_stim/side_box.png,stimulus/audwhere_stim/side_yes.png,stimulus/audwhere_stim/side_no.png,None,Side,None,Side,1,0.0,0,5.125,0,5.125,0,5.125,0,0.0,0.625,0,0.0,0,0.0,0,0.0,0,0.0,0,0.0,0,0.0,1,0.5,1,2.125,0,,,,,0,33,33,33,,,,,,,,,331.44018800000003,331.44018800000003,331.44018800000003,331.44018800000003,331.44018800000003,331.44018800000003,331.44018800000003,331.44018800000003,331.36894741666686,331.44018800000003,331.44018800000003,331.44018800000003,331.36894741666686,331.44018800000003,331.44018800000003,331.44018800000003,333.5327130410001,337.5533932500002,331.44018800000003,331.44018800000003,336.60319770800015,331.44018800000003,331.44018800000003,331.44018800000003,331.44018800000003,331.90391920799993,332.9747514999999,331.8738541246669,,333.5327130410001,334.60427308299995,333.50271733266686,,331.44018800000003,336.60319770800015,331.44018800000003,336.60319770800015,336.6443897500003,337.29785637500026,331.44018800000003,1,1,1.2605577909998829,reldom2_s005,001,2025-01-30_15h01.35.887,Where-B-Scan_AC,2022.2.5,None,
26,First_Order,5.0,audwhere,stimulus/audwhere_stim/dummy.wav,stimulus/audwhere_stim/dummy.wav,stimulus/audwhere_stim/right_toward_300h.wav,stimulus/audwhere_stim/left_toward_270h.wav,stimulus/audwhere_stim/blank_white.png,stimulus/audwhere_stim/direction_box.png,stimulus/audwhere_stim/direction_yes.png,stimulus/audwhere_stim/direction_no.png,None,Direction,None,Direction,1,0.0,0,5.125,0,5.125,0,5.125,0,0.0,0.625,0,0.0,0,0.0,0,0.0,0,0.0,0,0.0,0,0.0,1,0.5,1,2.125,0,,,,,0,34,34,34,,,,,,,,,337.5533932500002,337.5533932500002,337.5533932500002,337.5533932500002,337.5533932500002,337.5533932500002,337.5533932500002,337.5533932500002,337.47245412433324,337.5533932500002,337.5533932500002,337.5533932500002,337.47245412433324,337.5533932500002,337.5533932500002,337.5533932500002,339.66332779100003,343.6698671250001,337.5533932500002,337.5533932500002,342.710861,337.5533932500002,337.5533932500002,337.5533932500002,337.5533932500002,338.02438175,339.05500283300034,337.9940056666667,,339.66332779100003,340.6982538750003,339.63236808266697,,337.5533932500002,342.710861,337.5533932500002,342.710861,342.7519595409999,343.41585541600034,337.5533932500002,1,1,3.3580233749994477,reldom2_s005,001,2025-01-30_15h01.35.887,Where-B-Scan_AC,2022.2.5,None,
27,First_Order,5.0,audwhere,stimulus/audwhere_stim/dummy.wav,stimulus/audwhere_stim/dummy.wav,stimulus/audwhere_stim/left_toward_290h.wav,stimulus/audwhere_stim/left_away_300h.wav,stimulus/audwhere_stim/blank_white.png,stimulus/audwhere_stim/direction_box.png,stimulus/audwhere_stim/direction_yes.png,stimulus/audwhere_stim/direction_no.png,None,Direction,None,Side,2,0.0,0,5.125,0,5.125,0,5.125,0,0.0,0.625,0,0.0,0,0.0,0,0.0,0,0.0,0,0.0,0,0.0,1,0.5,1,2.125,0,,,,,0,35,35,35,,,,,,,,,343.6698671250001,343.6698671250001,343.6698671250001,343.6698671250001,343.6698671250001,343.6698671250001,343.6698671250001,343.6698671250001,343.58961887433327,343.6698671250001,343.6698671250001,343.6698671250001,343.58961887433327,343.6698671250001,343.6698671250001,343.6698671250001,345.77907275000007,,343.6698671250001,343.6698671250001,348.8261507500001,343.6698671250001,343.6698671250001,343.6698671250001,343.6698671250001,344.14023254099993,345.17144995800027,344.1102449166667,,345.77907275000007,346.81228525000006,345.74887958266686,,343.6698671250001,348.8261507500001,343.6698671250001,348.8261507500001,348.86745395800017,349.5247294579999,343.6698671250001,2,1,1.750011333999737,reldom2_s005,001,2025-01-30_15h01.35.887,Where-B-Scan_AC,2022.2.5,None,
28,First_Order,5.0,audwhere,stimulus/audwhere_stim/dummy.wav,stimulus/audwhere_stim/dummy.wav,stimulus/audwhere_stim/right_away_300h.wav,stimulus/audwhere_stim/right_toward_290h.wav,stimulus/audwhere_stim/blank_white.png,stimulus/audwhere_stim/direction_box.png,stimulus/audwhere_stim/direction_yes.png,stimulus/audwhere_stim/direction_no.png,None,Direction,None,Side,2,0.0,0,5.125,0,5.125,0,5.125,0,0.0,0.625,0,0.0,0,0.0,0,0.0,0,0.0,0,0.0,0,0.0,1,0.5,1,2.125,0,,,,,0,36,36,36,,,,,,,,,349.779932166,349.779932166,349.779932166,349.779932166,349.779932166,349.779932166,349.779932166,349.779932166,349.6994566243335,349.779932166,349.779932166,349.779932166,349.6994566243335,349.779932166,349.779932166,349.779932166,351.891457791,355.9257200410002,349.779932166,349.779932166,354.9467480410003,349.779932166,349.779932166,349.779932166,349.779932166,350.2494031250003,351.2816120000002,350.21978924966675,,351.891457791,352.9291749580002,351.8609165416667,,349.779932166,354.9467480410003,349.779932166,354.9467480410003,354.9886942500002,355.6496662909999,349.779932166,1,0,1.9920945419994496,reldom2_s005,001,2025-01-30_15h01.35.887,Where-B-Scan_AC,2022.2.5,None,
0,0.0,None,fixation,stimulus/audwhere_stim/blank_white.png,stimulus/audwhere_stim/blank_white.png,stimulus/viswhere_stim/blank_white.png,stimulus/viswhere_stim/blank_white.png,stimulus/audwhere_stim/blank_white.png,stimulus/audwhere_stim/blank_white.png,stimulus/audwhere_stim/blank_white.png,stimulus/audwhere_stim/blank_white.png,0.0,0.0,0.0,0.0,0,0.0,0,0.0,0,0.0,0,0.0,0,0.0,0.0,0,0.0,0,0.0,0,0.0,0,0.0,0,0.0,0,0.0,0,0.0,0,0.0,10,,,,,0,37,37,37,,,,,,,,,355.9257200410002,355.9257200410002,355.9257200410002,355.9257200410002,355.9257200410002,355.9257200410002,355.9257200410002,355.9257200410002,355.8236849993333,355.9257200410002,355.9257200410002,355.9257200410002,355.8236849993333,355.9257200410002,355.9257200410002,355.9257200410002,355.9257200410002,355.9257200410002,355.9257200410002,355.9257200410002,355.9257200410002,355.9257200410002,355.9257200410002,355.9257200410002,355.9257200410002,355.9257200410002,355.9257200410002,355.8736849993333,355.9257200410002,355.9257200410002,355.9257200410002,355.8736849993333,355.9257200410002,355.9257200410002,355.9257200410002,355.9257200410002,355.9257200410002,361.1554258750002,361.1554258750002,366.0935200409999,None,0,,reldom2_s005,001,2025-01-30_15h01.35.887,Where-B-Scan_AC,2022.2.5,None,
29,Second_Order,5.0,audwhere,stimulus/audwhere_stim/right_toward_270h.wav,stimulus/audwhere_stim/right_away_280h.wav,stimulus/audwhere_stim/left_away_270h.wav,stimulus/audwhere_stim/right_away_300h.wav,stimulus/audwhere_stim/match_blank.png,stimulus/audwhere_stim/match_box.png,stimulus/audwhere_stim/match_yes.png,stimulus/audwhere_stim/match_no.png,2.0,Match,Side,Direction,2,5.125,0,5.125,0,5.125,0,5.125,0,0.75,0.75,0,0.0,0,0.0,0,0.0,0,0.0,1,0.5,1,2.125,1,0.5,1,2.125,0,,,,,0,38,38,38,,,,,,,,,366.0935200409999,371.2098596660003,366.0935200409999,366.0935200409999,366.0935200409999,366.0935200409999,366.5482408329999,367.54733575,366.56096212466696,367.5549655,368.16914795799994,369.16706458299996,368.1812429996669,369.17527420800025,371.2098596660003,372.0363855830001,374.1219594580002,378.0464138750003,372.0363855830001,372.0363855830001,377.19387858300024,372.0363855830001,372.0363855830001,372.0363855830001,372.0363855830001,372.497028708,373.565940083,372.4668916246667,,374.1219594580002,375.15182358300035,374.0925699576667,,372.0363855830001,377.19387858300024,372.0363855830001,377.19387858300024,377.235047916,,372.0363855830001,2,1,0.6760448749996613,reldom2_s005,001,2025-01-30_15h01.35.887,Where-B-Scan_AC,2022.2.5,None,
30,Second_Order,5.0,audwhere,stimulus/audwhere_stim/right_away_300h.wav,stimulus/audwhere_stim/right_toward_300h.wav,stimulus/audwhere_stim/left_toward_290h.wav,stimulus/audwhere_stim/left_away_270h.wav,stimulus/audwhere_stim/match_blank.png,stimulus/audwhere_stim/match_box.png,stimulus/audwhere_stim/match_yes.png,stimulus/audwhere_stim/match_no.png,1.0,Match,Side,Side,1,5.125,0,5.125,0,5.125,0,5.125,0,0.625,0.625,0,0.0,0,0.0,0,0.0,0,0.0,1,0.5,1,2.125,1,0.5,1,2.125,0,,,,,0,39,39,39,,,,,,,,,378.0464138750003,383.17085216600026,378.0464138750003,378.0464138750003,378.0464138750003,378.0464138750003,378.505244083,379.49439954100035,378.5083815416667,379.50724141599994,380.1314755410003,381.12754079100023,380.1425230826669,381.1352326250003,383.17085216600026,383.8704605410003,385.9482333330002,390.0133322500001,383.8704605410003,383.8704605410003,389.0496069159999,383.8704605410003,383.8704605410003,383.8704605410003,383.8704605410003,384.32985750000034,385.3938829580002,384.30031733266674,,385.9482333330002,387.0142352910002,385.91836520766697,,383.8704605410003,389.0496069159999,383.8704605410003,389.0496069159999,389.08974612500015,389.7381968750001,383.8704605410003,1,1,1.3077732499996273,reldom2_s005,001,2025-01-30_15h01.35.887,Where-B-Scan_AC,2022.2.5,None,
0,0.0,None,fixation,stimulus/audwhere_stim/blank_white.png,stimulus/audwhere_stim/blank_white.png,stimulus/viswhere_stim/blank_white.png,stimulus/viswhere_stim/blank_white.png,stimulus/audwhere_stim/blank_white.png,stimulus/audwhere_stim/blank_white.png,stimulus/audwhere_stim/blank_white.png,stimulus/audwhere_stim/blank_white.png,0.0,0.0,0.0,0.0,0,0.0,0,0.0,0,0.0,0,0.0,0,0.0,0.0,0,0.0,0,0.0,0,0.0,0,0.0,0,0.0,0,0.0,0,0.0,0,0.0,8,,,,,0,40,40,40,,,,,,,,,390.0133322500001,390.0133322500001,390.0133322500001,390.0133322500001,390.0133322500001,390.0133322500001,390.0133322500001,390.0133322500001,389.9117556663333,390.0133322500001,390.0133322500001,390.0133322500001,389.9117556663333,390.0133322500001,390.0133322500001,390.0133322500001,390.0133322500001,390.0133322500001,390.0133322500001,390.0133322500001,390.0133322500001,390.0133322500001,390.0133322500001,390.0133322500001,390.0133322500001,390.0133322500001,390.0133322500001,389.9617556663333,390.0133322500001,390.0133322500001,390.0133322500001,389.9617556663333,390.0133322500001,390.0133322500001,390.0133322500001,390.0133322500001,390.0133322500001,395.2279364159999,395.2279364159999,398.2886920000001,None,0,,reldom2_s005,001,2025-01-30_15h01.35.887,Where-B-Scan_AC,2022.2.5,None,
31,First_Order,6.0,audwhere,stimulus/audwhere_stim/dummy.wav,stimulus/audwhere_stim/dummy.wav,stimulus/audwhere_stim/left_toward_270h.wav,stimulus/audwhere_stim/right_toward_280h.wav,stimulus/audwhere_stim/blank_white.png,stimulus/audwhere_stim/side_box.png,stimulus/audwhere_stim/side_yes.png,stimulus/audwhere_stim/side_no.png,None,Side,None,Direction,2,0.0,0,5.125,0,5.125,0,5.125,0,0.0,0.625,0,0.0,0,0.0,0,0.0,0,0.0,0,0.0,0,0.0,1,0.5,1,2.125,0,,,,,0,41,41,41,,,,,,,,,398.2886920000001,398.2886920000001,398.2886920000001,398.2886920000001,398.2886920000001,398.2886920000001,398.2886920000001,398.2886920000001,398.2154416246668,398.2886920000001,398.2886920000001,398.2886920000001,398.2154416246668,398.2886920000001,398.2886920000001,398.2886920000001,400.3860395830002,404.408786166,398.2886920000001,398.2886920000001,403.45755495799995,398.2886920000001,398.2886920000001,398.2886920000001,398.2886920000001,398.7570716250002,399.8280345410003,398.7265903326668,,400.3860395830002,401.4569862500002,400.3563695416667,,398.2886920000001,403.45755495799995,398.2886920000001,403.45755495799995,403.4985839579999,404.1548217080003,398.2886920000001,2,1,1.247031457999583,reldom2_s005,001,2025-01-30_15h01.35.887,Where-B-Scan_AC,2022.2.5,None,
32,First_Order,6.0,audwhere,stimulus/audwhere_stim/dummy.wav,stimulus/audwhere_stim/dummy.wav,stimulus/audwhere_stim/right_toward_280h.wav,stimulus/audwhere_stim/left_toward_290h.wav,stimulus/audwhere_stim/blank_white.png,stimulus/audwhere_stim/direction_box.png,stimulus/audwhere_stim/direction_yes.png,stimulus/audwhere_stim/direction_no.png,None,Direction,None,Direction,1,0.0,0,5.125,0,5.125,0,5.125,0,0.0,0.625,0,0.0,0,0.0,0,0.0,0,0.0,0,0.0,0,0.0,1,0.5,1,2.125,0,,,,,0,42,42,42,,,,,,,,,404.408786166,404.408786166,404.408786166,404.408786166,404.408786166,404.408786166,404.408786166,404.408786166,404.32895437433365,404.408786166,404.408786166,404.408786166,404.32895437433365,404.408786166,404.408786166,404.408786166,406.52208891600003,410.52939454100033,404.408786166,404.408786166,409.5736495000001,404.408786166,404.408786166,404.408786166,404.408786166,404.8813131659999,405.9129432909999,404.85025637466674,,406.52208891600003,407.5585806660001,406.4912096246669,,404.408786166,409.5736495000001,404.408786166,409.5736495000001,409.6153442499999,410.27515195800015,404.408786166,1,1,1.8698835829995915,reldom2_s005,001,2025-01-30_15h01.35.887,Where-B-Scan_AC,2022.2.5,None,
33,First_Order,6.0,audwhere,stimulus/audwhere_stim/dummy.wav,stimulus/audwhere_stim/dummy.wav,stimulus/audwhere_stim/left_toward_270h.wav,stimulus/audwhere_stim/left_away_300h.wav,stimulus/audwhere_stim/blank_white.png,stimulus/audwhere_stim/side_box.png,stimulus/audwhere_stim/side_yes.png,stimulus/audwhere_stim/side_no.png,None,Side,None,Side,1,0.0,0,5.125,0,5.125,0,5.125,0,0.0,0.625,0,0.0,0,0.0,0,0.0,0,0.0,0,0.0,0,0.0,1,0.5,1,2.125,0,,,,,0,43,43,43,,,,,,,,,410.52939454100033,410.52939454100033,410.52939454100033,410.52939454100033,410.52939454100033,410.52939454100033,410.52939454100033,410.52939454100033,410.44911833333356,410.52939454100033,410.52939454100033,410.52939454100033,410.44911833333356,410.52939454100033,410.52939454100033,410.52939454100033,412.634382833,,410.52939454100033,410.52939454100033,415.7145208750003,410.52939454100033,410.52939454100033,410.52939454100033,410.52939454100033,410.99630070800004,412.07100775000026,410.96590479166684,,412.634382833,413.7091797080002,412.6040376666667,,410.52939454100033,415.7145208750003,410.52939454100033,415.7145208750003,415.7551503750001,416.4118477500001,410.52939454100033,1,1,1.5691279170000598,reldom2_s005,001,2025-01-30_15h01.35.887,Where-B-Scan_AC,2022.2.5,None,
34,First_Order,6.0,audwhere,stimulus/audwhere_stim/dummy.wav,stimulus/audwhere_stim/dummy.wav,stimulus/audwhere_stim/right_toward_300h.wav,stimulus/audwhere_stim/left_toward_290h.wav,stimulus/audwhere_stim/blank_white.png,stimulus/audwhere_stim/side_box.png,stimulus/audwhere_stim/side_yes.png,stimulus/audwhere_stim/side_no.png,None,Side,None,Direction,2,0.0,0,5.125,0,5.125,0,5.125,0,0.0,0.625,0,0.0,0,0.0,0,0.0,0,0.0,0,0.0,0,0.0,1,0.5,1,2.125,0,,,,,0,44,44,44,,,,,,,,,416.62693933300034,416.62693933300034,416.62693933300034,416.62693933300034,416.62693933300034,416.62693933300034,416.62693933300034,416.62693933300034,416.54518108333343,416.62693933300034,416.62693933300034,416.62693933300034,416.54518108333343,416.62693933300034,416.62693933300034,416.62693933300034,418.7312077910001,,416.62693933300034,416.62693933300034,421.81945616600024,416.62693933300034,416.62693933300034,416.62693933300034,416.62693933300034,417.09570566599996,418.1681560410002,417.0640908746666,,418.7312077910001,419.76277704099994,418.70090037466684,,416.62693933300034,421.81945616600024,416.62693933300034,421.81945616600024,421.81945616600024,422.47561758300026,416.62693933300034,2,1,0.8406267909995222,reldom2_s005,001,2025-01-30_15h01.35.887,Where-B-Scan_AC,2022.2.5,None,
0,0.0,None,fixation,stimulus/audwhere_stim/blank_white.png,stimulus/audwhere_stim/blank_white.png,stimulus/viswhere_stim/blank_white.png,stimulus/viswhere_stim/blank_white.png,stimulus/audwhere_stim/blank_white.png,stimulus/audwhere_stim/blank_white.png,stimulus/audwhere_stim/blank_white.png,stimulus/audwhere_stim/blank_white.png,0.0,0.0,0.0,0.0,0,0.0,0,0.0,0,0.0,0,0.0,0,0.0,0.0,0,0.0,0,0.0,0,0.0,0,0.0,0,0.0,0,0.0,0,0.0,0,0.0,8,,,,,0,45,45,45,,,,,,,,,422.752352041,422.752352041,422.752352041,422.752352041,422.752352041,422.752352041,422.752352041,422.752352041,422.64967008333326,422.752352041,422.752352041,422.752352041,422.64967008333326,422.752352041,422.752352041,422.752352041,422.752352041,422.752352041,422.752352041,422.752352041,422.752352041,422.752352041,422.752352041,422.752352041,422.752352041,422.752352041,422.752352041,422.6996700833333,422.752352041,422.752352041,422.752352041,422.6996700833333,422.752352041,422.752352041,422.752352041,422.752352041,422.752352041,427.969987083,427.969987083,430.910544458,None,0,,reldom2_s005,001,2025-01-30_15h01.35.887,Where-B-Scan_AC,2022.2.5,None,
35,Second_Order,6.0,audwhere,stimulus/audwhere_stim/left_toward_280h.wav,stimulus/audwhere_stim/right_toward_270h.wav,stimulus/audwhere_stim/left_away_300h.wav,stimulus/audwhere_stim/right_away_280h.wav,stimulus/audwhere_stim/match_blank.png,stimulus/audwhere_stim/match_box.png,stimulus/audwhere_stim/match_yes.png,stimulus/audwhere_stim/match_no.png,1.0,Match,Direction,Direction,1,5.125,0,5.125,0,5.125,0,5.125,0,0.75,0.75,0,0.0,0,0.0,0,0.0,0,0.0,1,0.5,1,2.125,1,0.5,1,2.125,0,,,,,0,46,46,46,,,,,,,,,430.910544458,436.02599816600014,430.910544458,430.910544458,430.910544458,430.910544458,431.36440433300004,432.3627260000003,431.37686133266675,432.371240208,432.9859528330003,433.983022375,432.99765954166674,433.99020199999995,436.02599816600014,436.85409129100026,438.94352445799996,442.87061487500023,436.85409129100026,436.85409129100026,442.01756112500016,436.85409129100026,436.85409129100026,436.85409129100026,436.85409129100026,437.31787216600014,438.3860842910003,437.2876997496667,,438.94352445799996,440.016375791,438.91346299966676,,436.85409129100026,442.01756112500016,436.85409129100026,442.01756112500016,442.0586094580003,,436.85409129100026,1,1,1.0790888749997976,reldom2_s005,001,2025-01-30_15h01.35.887,Where-B-Scan_AC,2022.2.5,None,
36,Second_Order,6.0,audwhere,stimulus/audwhere_stim/left_toward_300h.wav,stimulus/audwhere_stim/right_toward_280h.wav,stimulus/audwhere_stim/left_away_300h.wav,stimulus/audwhere_stim/right_away_300h.wav,stimulus/audwhere_stim/match_blank.png,stimulus/audwhere_stim/match_box.png,stimulus/audwhere_stim/match_yes.png,stimulus/audwhere_stim/match_no.png,1.0,Match,Direction,Direction,1,5.125,0,5.125,0,5.125,0,5.125,0,0.625,0.625,0,0.0,0,0.0,0,0.0,0,0.0,1,0.5,1,2.125,1,0.5,1,2.125,0,,,,,0,47,47,47,,,,,,,,,442.87061487500023,447.98738033300015,442.87061487500023,442.87061487500023,442.87061487500023,442.87061487500023,443.325678958,444.323494708,443.337958041667,444.3311925410003,444.947115125,445.94371070800025,444.95867199966665,445.9516023750002,447.98738033300015,448.6907027500001,450.76901645800035,,448.6907027500001,448.6907027500001,453.8728368750003,448.6907027500001,448.6907027500001,448.6907027500001,448.6907027500001,449.1520337500001,450.2129116250003,449.12223841666696,,450.76901645800035,451.83247737500005,450.7389999576669,,448.6907027500001,453.8728368750003,448.6907027500001,453.8728368750003,453.9140362500002,454.56487208299995,448.6907027500001,1,1,1.1635434999993777,reldom2_s005,001,2025-01-30_15h01.35.887,Where-B-Scan_AC,2022.2.5,None,
0,0.0,None,fixation,stimulus/audwhere_stim/blank_white.png,stimulus/audwhere_stim/blank_white.png,stimulus/viswhere_stim/blank_white.png,stimulus/viswhere_stim/blank_white.png,stimulus/audwhere_stim/blank_white.png,stimulus/audwhere_stim/blank_white.png,stimulus/audwhere_stim/blank_white.png,stimulus/audwhere_stim/blank_white.png,0.0,0.0,0.0,0.0,0,0.0,0,0.0,0,0.0,0,0.0,0,0.0,0.0,0,0.0,0,0.0,0,0.0,0,0.0,0,0.0,0,0.0,0,0.0,0,0.0,10,,,,,0,48,48,48,,,,,,,,,454.79898841600016,454.79898841600016,454.79898841600016,454.79898841600016,454.79898841600016,454.79898841600016,454.79898841600016,454.79898841600016,454.6982054163333,454.79898841600016,454.79898841600016,454.79898841600016,454.6982054163333,454.79898841600016,454.79898841600016,454.79898841600016,454.79898841600016,454.79898841600016,454.79898841600016,454.79898841600016,454.79898841600016,454.79898841600016,454.79898841600016,454.79898841600016,454.79898841600016,454.79898841600016,454.79898841600016,454.7482054163333,454.79898841600016,454.79898841600016,454.79898841600016,454.7482054163333,454.79898841600016,454.79898841600016,454.79898841600016,454.79898841600016,454.79898841600016,460.02045041600013,460.02045041600013,465.00782449999997,None,0,,reldom2_s005,001,2025-01-30_15h01.35.887,Where-B-Scan_AC,2022.2.5,None,
37,First_Order,7.0,viswhere,stimulus/viswhere_stim/blank_white.png,stimulus/viswhere_stim/blank_white.png,stimulus/viswhere_stim/150-deg_dot-left_turquoise.png,stimulus/viswhere_stim/120-deg_dot-left_mediumslateblue.png,stimulus/viswhere_stim/blank_white.png,stimulus/viswhere_stim/line_box.png,stimulus/viswhere_stim/line_yes.png,stimulus/viswhere_stim/line_no.png,None,Line,None,Dot,2,0.0,0,5.125,0,5.125,0,5.125,0,0.0,0.625,0,0.0,0,0.0,1,0.5,1,2.125,0,0.0,0,0.0,0,0.0,0,0.0,0,,,,,0,49,49,49,,,,,,,,,465.00782449999997,465.00782449999997,465.00782449999997,465.00782449999997,465.00782449999997,465.00782449999997,465.00782449999997,465.00782449999997,464.9826967076666,465.00782449999997,465.00782449999997,465.00782449999997,464.9826967076666,465.00782449999997,465.00782449999997,465.00782449999997,467.11177883300024,471.0723089580001,465.00782449999997,465.00782449999997,470.1355630830003,465.49611941600006,466.5082568329999,467.11177883300024,468.13149170800034,465.00782449999997,465.00782449999997,464.9993633743333,465.00782449999997,465.00782449999997,465.00782449999997,464.9993633743333,465.00782449999997,465.00782449999997,470.1355630830003,465.00782449999997,470.1355630830003,470.2239682080003,470.8529530410001,465.00782449999997,2,1,0.7808742499996697,reldom2_s005,001,2025-01-30_15h01.35.887,Where-B-Scan_AC,2022.2.5,None,
38,First_Order,7.0,viswhere,stimulus/viswhere_stim/blank_white.png,stimulus/viswhere_stim/blank_white.png,stimulus/viswhere_stim/120-deg_dot-left_mediumslateblue.png,stimulus/viswhere_stim/120-deg_dot-right_seagreen.png,stimulus/viswhere_stim/blank_white.png,stimulus/viswhere_stim/dot_box.png,stimulus/viswhere_stim/dot_yes.png,stimulus/viswhere_stim/dot_no.png,None,Dot,None,Line,2,0.0,0,5.125,0,5.125,0,5.125,0,0.0,0.625,0,0.0,0,0.0,1,0.5,1,2.125,0,0.0,0,0.0,0,0.0,0,0.0,0,,,,,0,50,50,50,,,,,,,,,471.0723089580001,471.0723089580001,471.0723089580001,471.0723089580001,471.0723089580001,471.0723089580001,471.0723089580001,471.0723089580001,471.04771616633326,471.0723089580001,471.0723089580001,471.0723089580001,471.04771616633326,471.0723089580001,471.0723089580001,471.0723089580001,473.18080691600017,477.13798395799995,471.0723089580001,471.0723089580001,476.204354041,471.5554165000003,472.563618958,473.18080691600017,474.19297937500005,471.0723089580001,471.0723089580001,471.0643828329999,471.0723089580001,471.0723089580001,471.0723089580001,471.0643828329999,471.0723089580001,471.0723089580001,476.204354041,471.0723089580001,476.204354041,476.3011253750001,476.9334564579999,471.0723089580001,2,1,0.46219445899987477,reldom2_s005,001,2025-01-30_15h01.35.887,Where-B-Scan_AC,2022.2.5,None,
39,First_Order,7.0,viswhere,stimulus/viswhere_stim/blank_white.png,stimulus/viswhere_stim/blank_white.png,stimulus/viswhere_stim/60-deg_dot-right_salmon.png,stimulus/viswhere_stim/60-deg_dot-left_peru.png,stimulus/viswhere_stim/blank_white.png,stimulus/viswhere_stim/line_box.png,stimulus/viswhere_stim/line_yes.png,stimulus/viswhere_stim/line_no.png,None,Line,None,Line,1,0.0,0,5.125,0,5.125,0,5.125,0,0.0,0.625,0,0.0,0,0.0,1,0.5,1,2.125,0,0.0,0,0.0,0,0.0,0,0.0,0,,,,,0,51,51,51,,,,,,,,,477.13798395799995,477.13798395799995,477.13798395799995,477.13798395799995,477.13798395799995,477.13798395799995,477.13798395799995,477.13798395799995,477.1147740833333,477.13798395799995,477.13798395799995,477.13798395799995,477.1147740833333,477.13798395799995,477.13798395799995,477.13798395799995,479.2514301660003,483.2020671250002,477.13798395799995,477.13798395799995,482.2635807500001,477.62284420800006,478.6320201660001,479.2514301660003,480.2659411660002,477.13798395799995,477.13798395799995,477.13144074999997,477.13798395799995,477.13798395799995,477.13798395799995,477.13144074999997,477.13798395799995,477.13798395799995,482.2635807500001,477.13798395799995,482.2635807500001,482.36503941599995,482.9979563750003,477.13798395799995,1,1,0.8642069159996026,reldom2_s005,001,2025-01-30_15h01.35.887,Where-B-Scan_AC,2022.2.5,None,
40,First_Order,7.0,viswhere,stimulus/viswhere_stim/blank_white.png,stimulus/viswhere_stim/blank_white.png,stimulus/viswhere_stim/60-deg_dot-right_slateblue.png,stimulus/viswhere_stim/90-deg_dot-right_royalblue.png,stimulus/viswhere_stim/blank_white.png,stimulus/viswhere_stim/dot_box.png,stimulus/viswhere_stim/dot_yes.png,stimulus/viswhere_stim/dot_no.png,None,Dot,None,Dot,1,0.0,0,5.125,0,5.125,0,5.125,0,0.0,0.625,0,0.0,0,0.0,1,0.5,1,2.125,0,0.0,0,0.0,0,0.0,0,0.0,0,,,,,0,52,52,52,,,,,,,,,483.2020671250002,483.2020671250002,483.2020671250002,483.2020671250002,483.2020671250002,483.2020671250002,483.2020671250002,483.2020671250002,483.1787599163334,483.2020671250002,483.2020671250002,483.2020671250002,483.1787599163334,483.2020671250002,483.2020671250002,483.2020671250002,485.2998535830002,489.34653479100007,483.2020671250002,483.2020671250002,488.3354654580003,483.68830237500015,484.69913533299996,485.2998535830002,486.31450725000013,483.2020671250002,483.2020671250002,483.195426583,483.2020671250002,483.2020671250002,483.2020671250002,483.195426583,483.2020671250002,483.2020671250002,488.3354654580003,483.2020671250002,488.3354654580003,488.4186507080003,489.0502152500003,483.2020671250002,1,1,0.7896799169998303,reldom2_s005,001,2025-01-30_15h01.35.887,Where-B-Scan_AC,2022.2.5,None,
0,0.0,None,fixation,stimulus/audwhere_stim/blank_white.png,stimulus/audwhere_stim/blank_white.png,stimulus/viswhere_stim/blank_white.png,stimulus/viswhere_stim/blank_white.png,stimulus/audwhere_stim/blank_white.png,stimulus/audwhere_stim/blank_white.png,stimulus/audwhere_stim/blank_white.png,stimulus/audwhere_stim/blank_white.png,0.0,0.0,0.0,0.0,0,0.0,0,0.0,0,0.0,0,0.0,0,0.0,0.0,0,0.0,0,0.0,0,0.0,0,0.0,0,0.0,0,0.0,0,0.0,0,0.0,8,,,,,0,53,53,53,,,,,,,,,489.34653479100007,489.34653479100007,489.34653479100007,489.34653479100007,489.34653479100007,489.34653479100007,489.34653479100007,489.34653479100007,489.2451780833333,489.34653479100007,489.34653479100007,489.34653479100007,489.2451780833333,489.34653479100007,489.34653479100007,489.34653479100007,489.34653479100007,489.34653479100007,489.34653479100007,489.34653479100007,489.34653479100007,489.34653479100007,489.34653479100007,489.34653479100007,489.34653479100007,489.34653479100007,489.34653479100007,489.2951780833333,489.34653479100007,489.34653479100007,489.34653479100007,489.2951780833333,489.34653479100007,489.34653479100007,489.34653479100007,489.34653479100007,489.34653479100007,494.5767312080002,494.5767312080002,497.50487916600014,None,0,,reldom2_s005,001,2025-01-30_15h01.35.887,Where-B-Scan_AC,2022.2.5,None,
41,Second_Order,7.0,viswhere,stimulus/viswhere_stim/60-deg_dot-right_seagreen.png,stimulus/viswhere_stim/30-deg_dot-right_mediumslateblue.png,stimulus/viswhere_stim/60-deg_dot-left_mediumslateblue.png,stimulus/viswhere_stim/150-deg_dot-left_salmon.png,stimulus/audwhere_stim/match_blank.png,stimulus/audwhere_stim/match_box.png,stimulus/audwhere_stim/match_yes.png,stimulus/audwhere_stim/match_no.png,1.0,Match,Dot,Dot,1,5.125,0,5.125,0,5.125,0,5.125,0,0.75,0.75,1,0.5,1,2.125,1,0.5,1,2.125,0,0.0,0,0.0,0,0.0,0,0.0,0,,,,,0,54,54,54,,,,,,,,,497.50487916600014,502.62883658300007,497.9848096660003,498.983105625,499.6054367910001,500.60349345800023,497.50487916600014,497.50487916600014,497.51489216633365,497.50487916600014,497.50487916600014,497.50487916600014,497.51489216633365,497.50487916600014,502.62883658300007,503.40839912499996,505.50218220800025,509.3911115000001,503.40839912499996,503.40839912499996,508.54027833300006,503.87727533299994,504.89601762500024,505.50218220800025,506.52536683300013,503.40839912499996,503.40839912499996,503.3968152913335,503.40839912499996,503.40839912499996,503.40839912499996,503.3968152913335,503.40839912499996,503.40839912499996,508.54027833300006,503.40839912499996,508.54027833300006,508.6157687499999,509.3911115000001,503.40839912499996,1,1,1.000330749999648,reldom2_s005,001,2025-01-30_15h01.35.887,Where-B-Scan_AC,2022.2.5,None,
42,Second_Order,7.0,viswhere,stimulus/viswhere_stim/90-deg_dot-right_goldenrod.png,stimulus/viswhere_stim/120-deg_dot-right_mediumslateblue.png,stimulus/viswhere_stim/60-deg_dot-right_peru.png,stimulus/viswhere_stim/60-deg_dot-left_mediumslateblue.png,stimulus/audwhere_stim/match_blank.png,stimulus/audwhere_stim/match_box.png,stimulus/audwhere_stim/match_yes.png,stimulus/audwhere_stim/match_no.png,2.0,Match,Dot,Line,2,5.125,0,5.125,0,5.125,0,5.125,0,0.625,0.625,1,0.5,1,2.125,1,0.5,1,2.125,0,0.0,0,0.0,0,0.0,0,0.0,0,,,,,0,55,55,55,,,,,,,,,509.3911115000001,514.5067088330002,509.87497062500006,510.8636389160001,511.5000451660003,512.4973544580002,509.3911115000001,509.3911115000001,509.4031508750002,509.3911115000001,509.3911115000001,509.3911115000001,509.4031508750002,509.3911115000001,514.5067088330002,515.1646357080003,517.2624850830002,521.2971307500002,515.1646357080003,515.1646357080003,520.2980411660001,515.6293370830003,516.642810375,517.2624850830002,518.2748807500002,515.1646357080003,515.1646357080003,515.1542312913334,515.1646357080003,515.1646357080003,515.1646357080003,515.1542312913334,515.1646357080003,515.1646357080003,520.2980411660001,515.1646357080003,520.2980411660001,520.381435666,521.0133579160001,515.1646357080003,2,1,1.1392922919999364,reldom2_s005,001,2025-01-30_15h01.35.887,Where-B-Scan_AC,2022.2.5,None,
0,0.0,None,fixation,stimulus/audwhere_stim/blank_white.png,stimulus/audwhere_stim/blank_white.png,stimulus/viswhere_stim/blank_white.png,stimulus/viswhere_stim/blank_white.png,stimulus/audwhere_stim/blank_white.png,stimulus/audwhere_stim/blank_white.png,stimulus/audwhere_stim/blank_white.png,stimulus/audwhere_stim/blank_white.png,0.0,0.0,0.0,0.0,0,0.0,0,0.0,0,0.0,0,0.0,0,0.0,0.0,0,0.0,0,0.0,0,0.0,0,0.0,0,0.0,0,0.0,0,0.0,0,0.0,8,,,,,0,56,56,56,,,,,,,,,521.2971307500002,521.2971307500002,521.2971307500002,521.2971307500002,521.2971307500002,521.2971307500002,521.2971307500002,521.2971307500002,521.1936930413334,521.2971307500002,521.2971307500002,521.2971307500002,521.1936930413334,521.2971307500002,521.2971307500002,521.2971307500002,521.2971307500002,521.2971307500002,521.2971307500002,521.2971307500002,521.2971307500002,521.2971307500002,521.2971307500002,521.2971307500002,521.2971307500002,521.2971307500002,521.2971307500002,521.2436930413334,521.2971307500002,521.2971307500002,521.2971307500002,521.2436930413334,521.2971307500002,521.2971307500002,521.2971307500002,521.2971307500002,521.2971307500002,526.497312,526.497312,529.4792596249999,None,0,,reldom2_s005,001,2025-01-30_15h01.35.887,Where-B-Scan_AC,2022.2.5,None,
43,First_Order,8.0,viswhere,stimulus/viswhere_stim/blank_white.png,stimulus/viswhere_stim/blank_white.png,stimulus/viswhere_stim/120-deg_dot-left_lightsseagreen.png,stimulus/viswhere_stim/120-deg_dot-right_royalblue.png,stimulus/viswhere_stim/blank_white.png,stimulus/viswhere_stim/line_box.png,stimulus/viswhere_stim/line_yes.png,stimulus/viswhere_stim/line_no.png,None,Line,None,Line,1,0.0,0,5.125,0,5.125,0,5.125,0,0.0,0.625,0,0.0,0,0.0,1,0.5,1,2.125,0,0.0,0,0.0,0,0.0,0,0.0,0,,,,,0,57,57,57,,,,,,,,,529.4792596249999,529.4792596249999,529.4792596249999,529.4792596249999,529.4792596249999,529.4792596249999,529.4792596249999,529.4792596249999,529.4555733746666,529.4792596249999,529.4792596249999,529.4792596249999,529.4555733746666,529.4792596249999,529.4792596249999,529.4792596249999,531.5910766249999,535.5445434580001,529.4792596249999,529.4792596249999,534.602631625,529.9634902080002,530.9716956249999,531.5910766249999,532.6071527910003,529.4792596249999,529.4792596249999,529.4722400413333,529.4792596249999,529.4792596249999,529.4792596249999,529.4722400413333,529.4792596249999,529.4792596249999,534.602631625,529.4792596249999,534.602631625,534.7001445000001,535.365959625,529.4792596249999,1,1,0.7733062079996671,reldom2_s005,001,2025-01-30_15h01.35.887,Where-B-Scan_AC,2022.2.5,None,
44,First_Order,8.0,viswhere,stimulus/viswhere_stim/blank_white.png,stimulus/viswhere_stim/blank_white.png,stimulus/viswhere_stim/60-deg_dot-right_peru.png,stimulus/viswhere_stim/90-deg_dot-right_turquoise.png,stimulus/viswhere_stim/blank_white.png,stimulus/viswhere_stim/dot_box.png,stimulus/viswhere_stim/dot_yes.png,stimulus/viswhere_stim/dot_no.png,None,Dot,None,Dot,1,0.0,0,5.125,0,5.125,0,5.125,0,0.0,0.625,0,0.0,0,0.0,1,0.5,1,2.125,0,0.0,0,0.0,0,0.0,0,0.0,0,,,,,0,58,58,58,,,,,,,,,535.5445434580001,535.5445434580001,535.5445434580001,535.5445434580001,535.5445434580001,535.5445434580001,535.5445434580001,535.5445434580001,535.5210877913336,535.5445434580001,535.5445434580001,535.5445434580001,535.5210877913336,535.5445434580001,535.5445434580001,535.5445434580001,537.6580147909999,541.609099583,535.5445434580001,535.5445434580001,540.66747175,536.0299745000002,537.0391106659999,537.6580147909999,538.6720151250001,535.5445434580001,535.5445434580001,535.5377544580002,535.5445434580001,535.5445434580001,535.5445434580001,535.5377544580002,535.5445434580001,535.5445434580001,540.66747175,535.5445434580001,540.66747175,540.7644181660003,541.3907584160002,535.5445434580001,1,1,0.7178970419995494,reldom2_s005,001,2025-01-30_15h01.35.887,Where-B-Scan_AC,2022.2.5,None,
45,First_Order,8.0,viswhere,stimulus/viswhere_stim/blank_white.png,stimulus/viswhere_stim/blank_white.png,stimulus/viswhere_stim/150-deg_dot-right_lightsseagreen.png,stimulus/viswhere_stim/150-deg_dot-left_royalblue.png,stimulus/viswhere_stim/blank_white.png,stimulus/viswhere_stim/dot_box.png,stimulus/viswhere_stim/dot_yes.png,stimulus/viswhere_stim/dot_no.png,None,Dot,None,Line,2,0.0,0,5.125,0,5.125,0,5.125,0,0.0,0.625,0,0.0,0,0.0,1,0.5,1,2.125,0,0.0,0,0.0,0,0.0,0,0.0,0,,,,,0,59,59,59,,,,,,,,,541.609099583,541.609099583,541.609099583,541.609099583,541.609099583,541.609099583,541.609099583,541.609099583,541.5850512913333,541.609099583,541.609099583,541.609099583,541.5850512913333,541.609099583,541.609099583,541.609099583,543.7249135410002,547.6825827500002,541.609099583,541.609099583,546.731544791,542.0981280830001,543.118129,543.7249135410002,544.7314475410003,541.609099583,541.609099583,541.601717958,541.609099583,541.609099583,541.609099583,541.601717958,541.609099583,541.609099583,546.731544791,541.609099583,546.731544791,546.8344849580003,547.460427,541.609099583,2,1,0.957828999999947,reldom2_s005,001,2025-01-30_15h01.35.887,Where-B-Scan_AC,2022.2.5,None,
46,First_Order,8.0,viswhere,stimulus/viswhere_stim/blank_white.png,stimulus/viswhere_stim/blank_white.png,stimulus/viswhere_stim/30-deg_dot-left_salmon.png,stimulus/viswhere_stim/150-deg_dot-left_turquoise.png,stimulus/viswhere_stim/blank_white.png,stimulus/viswhere_stim/line_box.png,stimulus/viswhere_stim/line_yes.png,stimulus/viswhere_stim/line_no.png,None,Line,None,Dot,2,0.0,0,5.125,0,5.125,0,5.125,0,0.0,0.625,0,0.0,0,0.0,1,0.5,1,2.125,0,0.0,0,0.0,0,0.0,0,0.0,0,,,,,0,60,60,60,,,,,,,,,547.6825827500002,547.6825827500002,547.6825827500002,547.6825827500002,547.6825827500002,547.6825827500002,547.6825827500002,547.6825827500002,547.6556408743335,547.6825827500002,547.6825827500002,547.6825827500002,547.6556408743335,547.6825827500002,547.6825827500002,547.6825827500002,549.7794346660003,553.8236414160001,547.6825827500002,547.6825827500002,552.8163677080001,548.1557774160001,549.1742730830001,549.7794346660003,550.7822000410001,547.6825827500002,547.6825827500002,547.6723075410001,547.6825827500002,547.6825827500002,547.6825827500002,547.6723075410001,547.6825827500002,547.6825827500002,552.8163677080001,547.6825827500002,552.8163677080001,552.9009161250001,553.5274019580002,547.6825827500002,2,1,1.422895583999889,reldom2_s005,001,2025-01-30_15h01.35.887,Where-B-Scan_AC,2022.2.5,None,
0,0.0,None,fixation,stimulus/audwhere_stim/blank_white.png,stimulus/audwhere_stim/blank_white.png,stimulus/viswhere_stim/blank_white.png,stimulus/viswhere_stim/blank_white.png,stimulus/audwhere_stim/blank_white.png,stimulus/audwhere_stim/blank_white.png,stimulus/audwhere_stim/blank_white.png,stimulus/audwhere_stim/blank_white.png,0.0,0.0,0.0,0.0,0,0.0,0,0.0,0,0.0,0,0.0,0,0.0,0.0,0,0.0,0,0.0,0,0.0,0,0.0,0,0.0,0,0.0,0,0.0,0,0.0,9,,,,,0,61,61,61,,,,,,,,,553.8236414160001,553.8236414160001,553.8236414160001,553.8236414160001,553.8236414160001,553.8236414160001,553.8236414160001,553.8236414160001,553.7219900413337,553.8236414160001,553.8236414160001,553.8236414160001,553.7219900413337,553.8236414160001,553.8236414160001,553.8236414160001,553.8236414160001,553.8236414160001,553.8236414160001,553.8236414160001,553.8236414160001,553.8236414160001,553.8236414160001,553.8236414160001,553.8236414160001,553.8236414160001,553.8236414160001,553.7719900413337,553.8236414160001,553.8236414160001,553.8236414160001,553.7719900413337,553.8236414160001,553.8236414160001,553.8236414160001,553.8236414160001,553.8236414160001,559.0213872080003,559.0213872080003,562.9332801660003,None,0,,reldom2_s005,001,2025-01-30_15h01.35.887,Where-B-Scan_AC,2022.2.5,None,
47,Second_Order,8.0,viswhere,stimulus/viswhere_stim/90-deg_dot-left_lightsseagreen.png,stimulus/viswhere_stim/120-deg_dot-left_royalblue.png,stimulus/viswhere_stim/30-deg_dot-right_mediumslateblue.png,stimulus/viswhere_stim/60-deg_dot-right_lightsseagreen.png,stimulus/audwhere_stim/match_blank.png,stimulus/audwhere_stim/match_box.png,stimulus/audwhere_stim/match_yes.png,stimulus/audwhere_stim/match_no.png,1.0,Match,Dot,Dot,1,5.125,0,5.125,0,5.125,0,5.125,0,0.75,0.75,1,0.5,1,2.125,1,0.5,1,2.125,0,0.0,0,0.0,0,0.0,0,0.0,0,,,,,0,62,62,62,,,,,,,,,562.9332801660003,568.047208125,563.4147752080003,564.4036543330003,565.0401702910003,566.037975708,562.9332801660003,562.9332801660003,562.9435314993335,562.9332801660003,562.9332801660003,562.9332801660003,562.9435314993335,562.9332801660003,568.047208125,568.824068166,570.9263942500002,574.816447791,568.824068166,568.824068166,573.955213875,569.291358166,570.3038301659999,570.9263942500002,571.944856958,568.824068166,568.824068166,568.8155048333333,568.824068166,568.824068166,568.824068166,568.8155048333333,568.824068166,568.824068166,573.955213875,568.824068166,573.955213875,574.0385790830001,574.816447791,568.824068166,1,1,0.860693791999438,reldom2_s005,001,2025-01-30_15h01.35.887,Where-B-Scan_AC,2022.2.5,None,
48,Second_Order,8.0,viswhere,stimulus/viswhere_stim/60-deg_dot-left_seagreen.png,stimulus/viswhere_stim/90-deg_dot-left_peru.png,stimulus/viswhere_stim/30-deg_dot-right_turquoise.png,stimulus/viswhere_stim/30-deg_dot-left_lightsseagreen.png,stimulus/audwhere_stim/match_blank.png,stimulus/audwhere_stim/match_box.png,stimulus/audwhere_stim/match_yes.png,stimulus/audwhere_stim/match_no.png,2.0,Match,Dot,Line,2,5.125,0,5.125,0,5.125,0,5.125,0,0.625,0.625,1,0.5,1,2.125,1,0.5,1,2.125,0,0.0,0,0.0,0,0.0,0,0.0,0,,,,,0,63,63,63,,,,,,,,,574.816447791,579.936661833,575.2966133330001,576.2948998330003,576.9171415410001,577.9148579580001,574.816447791,574.816447791,574.8283601660003,574.816447791,574.816447791,574.816447791,574.8283601660003,574.816447791,579.936661833,580.5914389160002,582.6921750410002,586.7537845000002,580.5914389160002,580.5914389160002,585.7154922499999,581.0577228750003,582.0682487080003,582.6921750410002,583.7105339160003,580.5914389160002,580.5914389160002,580.5711531666668,580.5914389160002,580.5914389160002,580.5914389160002,580.5711531666668,580.5914389160002,580.5914389160002,585.7154922499999,580.5914389160002,585.7154922499999,585.812932583,586.4388036660002,580.5914389160002,2,1,0.6976843329994153,reldom2_s005,001,2025-01-30_15h01.35.887,Where-B-Scan_AC,2022.2.5,None,
0,0.0,None,fixation,stimulus/audwhere_stim/blank_white.png,stimulus/audwhere_stim/blank_white.png,stimulus/viswhere_stim/blank_white.png,stimulus/viswhere_stim/blank_white.png,stimulus/audwhere_stim/blank_white.png,stimulus/audwhere_stim/blank_white.png,stimulus/audwhere_stim/blank_white.png,stimulus/audwhere_stim/blank_white.png,0.0,0.0,0.0,0.0,0,0.0,0,0.0,0,0.0,0,0.0,0,0.0,0.0,0,0.0,0,0.0,0,0.0,0,0.0,0,0.0,0,0.0,0,0.0,0,0.0,16,,,,,0,64,64,64,,,,,,,,,586.7537845000002,586.7537845000002,586.7537845000002,586.7537845000002,586.7537845000002,586.7537845000002,586.7537845000002,586.7537845000002,586.6509469993333,586.7537845000002,586.7537845000002,586.7537845000002,586.6509469993333,586.7537845000002,586.7537845000002,586.7537845000002,586.7537845000002,586.7537845000002,586.7537845000002,586.7537845000002,586.7537845000002,586.7537845000002,586.7537845000002,586.7537845000002,586.7537845000002,586.7537845000002,586.7537845000002,586.7009469993333,586.7537845000002,586.7537845000002,586.7537845000002,586.7009469993333,586.7537845000002,586.7537845000002,586.7537845000002,586.7537845000002,586.7537845000002,591.9600960410003,591.9600960410003,602.9186452910003,None,0,,reldom2_s005,001,2025-01-30_15h01.35.887,Where-B-Scan_AC,2022.2.5,None,
