Trial,Order,Block,Type,Stimuli_File1,Stimuli_File2,Stimuli_File3,Stimuli_File4,Cue_File1,Cue_File2,Response_File_Yes,Response_File_No,Match,Cue_Dimension,Pair1_Dimension,Pair2_Dimension,Key,Cue1_Duration,Cue1_Onset,Cue2_Duration,Cue2_Onset,ResponseYes_Duration,ResponseYes_Onset,ResponseNo_Duration,ResponseNo_Onset,ITI_Within,ITI_Between,Image1_Duration,Image1_Onset,Image2_Duration,Image2_Onset,Image3_Duration,Image3_Onset,Image4_Duration,Image4_Onset,Sound1_Duration,Sound1_Onset,Sound2_Duration,Sound2_Onset,Sound3_Duration,Sound3_Onset,Sound4_Duration,Sound4_Onset,Fixation_Duration,trials_2.thisRepN,trials_2.thisTrialN,trials_2.thisN,trials_2.thisIndex,trials.thisRepN,trials.thisTrialN,trials.thisN,trials.thisIndex,text_start.started,key_resp_start.started,key_resp_start.keys,key_resp_start.rt,text2.started,key_resp_2.started,key_resp_2.keys,key_resp_2.rt,cue_file1.started,cue_file1.stopped,image_1.started,image_1.stopped,image_2.started,image_2.stopped,sound_icon1.started,sound_icon1.stopped,sound_1.started,sound_1.stopped,sound_icon2.started,sound_icon2.stopped,sound_2.started,sound_2.stopped,image_blank_1.started,image_blank_1.stopped,key_press.started,key_press.stopped,fixation_text.started,cue_file2.started,cue_file2.stopped,image_3.started,image_3.stopped,image_4.started,image_4.stopped,sound_icon3.started,sound_icon3.stopped,sound_3.started,sound_3.stopped,sound_icon4.started,sound_icon4.stopped,sound_4.started,sound_4.stopped,response_yes.started,response_yes.stopped,response_no.started,response_no.stopped,iti_blank.started,iti_blank.stopped,fixation_text.stopped,key_press.keys,key_press.corr,key_press.rt,participant,session,date,expName,psychopyVersion,frameRate,
,,,,,,,,,,,,,,,,,,,,,,,,,,,,,,,,,,,,,,,,,,,,,,,,,,,,8.77722175000008,8.77722175000008,2,9.684233457999653,,,,,,,,,,,,,,,,,,,,,,,,,,,,,,,,,,,,,,,,,,,,,,,,reldom2_s005,001,2025-01-30_15h13.10.550,Aud-B-Scan_AC,2022.2.5,None,
,,,,,,,,,,,,,,,,,,,,,,,,,,,,,,,,,,,,,,,,,,,,0,0,0,0,,,,,,,,,18.484275250000337,18.484275250000337,5,17.90185858299992,,,,,,,,,,,,,,,,,,,,,,,,,,,,,,,,,,,,,,,,,,,,reldom2_s005,001,2025-01-30_15h13.10.550,Aud-B-Scan_AC,2022.2.5,None,
,,,,,,,,,,,,,,,,,,,,,,,,,,,,,,,,,,,,,,,,,,,,1,0,1,0,,,,,,,,,36.40044925000029,36.40044925000029,5,1.9832997079997767,,,,,,,,,,,,,,,,,,,,,,,,,,,,,,,,,,,,,,,,,,,,reldom2_s005,001,2025-01-30_15h13.10.550,Aud-B-Scan_AC,2022.2.5,None,
,,,,,,,,,,,,,,,,,,,,,,,,,,,,,,,,,,,,,,,,,,,,2,0,2,0,,,,,,,,,38.399338292000266,38.399338292000266,5,1.984816832999968,,,,,,,,,,,,,,,,,,,,,,,,,,,,,,,,,,,,,,,,,,,,reldom2_s005,001,2025-01-30_15h13.10.550,Aud-B-Scan_AC,2022.2.5,None,
,,,,,,,,,,,,,,,,,,,,,,,,,,,,,,,,,,,,,,,,,,,,3,0,3,0,,,,,,,,,40.400639459000104,40.400639459000104,5,1.9826186659997802,,,,,,,,,,,,,,,,,,,,,,,,,,,,,,,,,,,,,,,,,,,,reldom2_s005,001,2025-01-30_15h13.10.550,Aud-B-Scan_AC,2022.2.5,None,
0,0.0,None,fixation,stimulus/audwhat_stim/blank_white.png,stimulus/audwhat_stim/blank_white.png,stimulus/audwhere_stim/blank_white.png,stimulus/audwhere_stim/blank_white.png,stimulus/audwhat_stim/blank_white.png,stimulus/audwhat_stim/blank_white.png,stimulus/audwhat_stim/blank_white.png,stimulus/audwhat_stim/blank_white.png,0.0,0.0,0.0,0.0,0,0.0,0,0.0,0,0.0,0,0.0,0,0.0,0.0,0,0,0,0,0,0,0,0,0,0.0,0,0.0,0,0.0,0,0.0,16,,,,,0,0,0,0,,,,,,,,,42.5785460420002,42.5785460420002,42.5785460420002,42.5785460420002,42.5785460420002,42.5785460420002,42.5785460420002,42.5785460420002,42.484725750000145,42.5785460420002,42.5785460420002,42.5785460420002,42.484725750000145,42.5785460420002,42.5785460420002,42.5785460420002,42.5785460420002,42.5785460420002,42.5785460420002,42.5785460420002,42.5785460420002,42.5785460420002,42.5785460420002,42.5785460420002,42.5785460420002,42.5785460420002,42.5785460420002,42.53472575000014,42.5785460420002,42.5785460420002,42.5785460420002,42.53472575000014,42.5785460420002,42.5785460420002,42.5785460420002,42.5785460420002,42.5785460420002,47.80038666700011,47.80038666700011,58.81288308400008,None,0,,reldom2_s005,001,2025-01-30_15h13.10.550,Aud-B-Scan_AC,2022.2.5,None,
1,First_Order,1.0,audwhat,stimulus/audwhat_stim/dummy.wav,stimulus/audwhat_stim/dummy.wav,stimulus/audwhat_stim/string viola_low-pitch_F_loud.wav,stimulus/audwhat_stim/string cello_high-pitch_Dtri_loud.wav,stimulus/audwhat_stim/blank_white.png,stimulus/audwhat_stim/pitch_box.png,stimulus/audwhat_stim/pitch_yes.png,stimulus/audwhat_stim/pitch_no.png,None,Pitch,None,Category,2,0.0,0,5.125,0,5.125,0,5.125,0,0.0,0.625,0,0,0,0,0,0,0,0,0,0.0,0,0.0,1,0.5,1,2.125,0,,,,,0,1,1,1,,,,,,,,,58.81288308400008,58.81288308400008,58.81288308400008,58.81288308400008,58.81288308400008,58.81288308400008,58.81288308400008,58.81288308400008,58.738559583999994,58.81288308400008,58.81288308400008,58.81288308400008,58.738559583999994,58.81288308400008,58.81288308400008,58.81288308400008,60.907629584000006,64.934476292,58.81288308400008,58.81288308400008,64.00234391699996,58.81288308400008,58.81288308400008,58.81288308400008,58.81288308400008,59.271306084000116,60.314170667000326,59.24256279166663,,60.907629584000006,61.95630695900036,60.87747545866684,,58.81288308400008,64.00234391699996,58.81288308400008,64.00234391699996,64.0429062090002,64.72460083400028,58.81288308400008,2,1,0.8891396239996538,reldom2_s005,001,2025-01-30_15h13.10.550,Aud-B-Scan_AC,2022.2.5,None,
2,First_Order,1.0,audwhat,stimulus/audwhat_stim/dummy.wav,stimulus/audwhat_stim/dummy.wav,stimulus/audwhat_stim/percussion xylophone_high-pitch_Ftri_loud.wav,stimulus/audwhat_stim/string viola_high-pitch_Ftri_loud.wav,stimulus/audwhat_stim/blank_white.png,stimulus/audwhat_stim/pitch_box.png,stimulus/audwhat_stim/pitch_yes.png,stimulus/audwhat_stim/pitch_no.png,None,Pitch,None,Pitch,1,0.0,0,5.125,0,5.125,0,5.125,0,0.0,0.625,0,0,0,0,0,0,0,0,0,0.0,0,0.0,1,0.5,1,2.125,0,,,,,0,2,2,2,,,,,,,,,64.934476292,64.934476292,64.934476292,64.934476292,64.934476292,64.934476292,64.934476292,64.934476292,64.85793416733361,64.934476292,64.934476292,64.934476292,64.85793416733361,64.934476292,64.934476292,64.934476292,67.03894779200027,,64.934476292,64.934476292,70.10186662500018,64.934476292,64.934476292,64.934476292,64.934476292,65.39051558400024,66.44649258400023,65.36175291666702,66.40036091699994,67.03894779200027,68.08936670900039,67.0103026256668,,64.934476292,70.10186662500018,64.934476292,70.10186662500018,70.14252945900034,70.82527662500024,64.934476292,1,1,1.3872833319996971,reldom2_s005,001,2025-01-30_15h13.10.550,Aud-B-Scan_AC,2022.2.5,None,
3,First_Order,1.0,audwhat,stimulus/audwhat_stim/dummy.wav,stimulus/audwhat_stim/dummy.wav,stimulus/audwhat_stim/string viola_low-pitch_Dtri_loud.wav,stimulus/audwhat_stim/percussion mallet_low-pitch_Dtri_loud.wav,stimulus/audwhat_stim/blank_white.png,stimulus/audwhat_stim/category_box.png,stimulus/audwhat_stim/category_yes.png,stimulus/audwhat_stim/category_no.png,None,Category,None,Pitch,2,0.0,0,5.125,0,5.125,0,5.125,0,0.0,0.625,0,0,0,0,0,0,0,0,0,0.0,0,0.0,1,0.5,1,2.125,0,,,,,0,3,3,3,,,,,,,,,71.03957445900005,71.03957445900005,71.03957445900005,71.03957445900005,71.03957445900005,71.03957445900005,71.03957445900005,71.03957445900005,70.95860995833357,71.03957445900005,71.03957445900005,71.03957445900005,70.95860995833357,71.03957445900005,71.03957445900005,71.03957445900005,73.10921270900053,,71.03957445900005,71.03957445900005,76.20115791700027,71.03957445900005,71.03957445900005,71.03957445900005,71.03957445900005,71.49951200000032,72.55778858400026,71.47070620866658,,73.10921270900053,74.1731147090004,73.07985308366666,,71.03957445900005,76.20115791700027,71.03957445900005,76.20115791700027,76.24159891700037,76.89227720899999,71.03957445900005,2,1,1.7909013750004306,reldom2_s005,001,2025-01-30_15h13.10.550,Aud-B-Scan_AC,2022.2.5,None,
4,First_Order,1.0,audwhat,stimulus/audwhat_stim/dummy.wav,stimulus/audwhat_stim/dummy.wav,stimulus/audwhat_stim/percussion mallet_low-pitch_D_loud.wav,stimulus/audwhat_stim/percussion xylophone_high-pitch_Dtri_loud.wav,stimulus/audwhat_stim/blank_white.png,stimulus/audwhat_stim/pitch_box.png,stimulus/audwhat_stim/pitch_yes.png,stimulus/audwhat_stim/pitch_no.png,None,Pitch,None,Category,2,0.0,0,5.125,0,5.125,0,5.125,0,0.0,0.625,0,0,0,0,0,0,0,0,0,0.0,0,0.0,1,0.5,1,2.125,0,,,,,0,4,4,4,,,,,,,,,77.14726266700018,77.14726266700018,77.14726266700018,77.14726266700018,77.14726266700018,77.14726266700018,77.14726266700018,77.14726266700018,77.06631550033319,77.14726266700018,77.14726266700018,77.14726266700018,77.06631550033319,77.14726266700018,77.14726266700018,77.14726266700018,79.2209678750005,83.29146366700024,77.14726266700018,77.14726266700018,82.32484037500035,77.14726266700018,77.14726266700018,77.14726266700018,77.14726266700018,77.60753945899978,78.66815966700051,77.5779312506668,,79.2209678750005,80.29013891700015,79.19114950066638,80.24354250000033,77.14726266700018,82.32484037500035,77.14726266700018,82.32484037500035,82.36655116700058,83.01475779199973,77.14726266700018,2,1,1.0092954159999863,reldom2_s005,001,2025-01-30_15h13.10.550,Aud-B-Scan_AC,2022.2.5,None,
0,0.0,None,fixation,stimulus/audwhat_stim/blank_white.png,stimulus/audwhat_stim/blank_white.png,stimulus/audwhere_stim/blank_white.png,stimulus/audwhere_stim/blank_white.png,stimulus/audwhat_stim/blank_white.png,stimulus/audwhat_stim/blank_white.png,stimulus/audwhat_stim/blank_white.png,stimulus/audwhat_stim/blank_white.png,0.0,0.0,0.0,0.0,0,0.0,0,0.0,0,0.0,0,0.0,0,0.0,0.0,0,0,0,0,0,0,0,0,0,0.0,0,0.0,0,0.0,0,0.0,8,,,,,0,5,5,5,,,,,,,,,83.29146366700024,83.29146366700024,83.29146366700024,83.29146366700024,83.29146366700024,83.29146366700024,83.29146366700024,83.29146366700024,83.18883645833387,83.29146366700024,83.29146366700024,83.29146366700024,83.18883645833387,83.29146366700024,83.29146366700024,83.29146366700024,83.29146366700024,83.29146366700024,83.29146366700024,83.29146366700024,83.29146366700024,83.29146366700024,83.29146366700024,83.29146366700024,83.29146366700024,83.29146366700024,83.29146366700024,83.23883645833388,83.29146366700024,83.29146366700024,83.29146366700024,83.23883645833388,83.29146366700024,83.29146366700024,83.29146366700024,83.29146366700024,83.29146366700024,88.50157379200027,88.50157379200027,91.4608737919998,None,0,,reldom2_s005,001,2025-01-30_15h13.10.550,Aud-B-Scan_AC,2022.2.5,None,
5,Second_Order,1.0,audwhat,stimulus/audwhat_stim/percussion mallet_high-pitch_Dtri_loud.wav,stimulus/audwhat_stim/string cello_high-pitch_Dtri_loud.wav,stimulus/audwhat_stim/string viola_low-pitch_F_loud.wav,stimulus/audwhat_stim/percussion mallet_low-pitch_F_loud.wav,stimulus/audwhat_stim/match_blank.png,stimulus/audwhat_stim/match_box.png,stimulus/audwhat_stim/match_yes.png,stimulus/audwhat_stim/match_no.png,1.0,Match,Pitch,Pitch,1,5.125,0,5.125,0,5.125,0,5.125,0,0.75,0.75,0,0,0,0,0,0,0,0,1,0.5,1,2.125,1,0.5,1,2.125,0,,,,,0,6,6,6,,,,,,,,,91.4608737919998,96.57701687500048,91.4608737919998,91.4608737919998,91.4608737919998,91.4608737919998,91.91589979200035,92.91367287499997,91.92827195866654,92.92122154200024,93.53688916700048,94.53445979200023,93.5488961666672,,96.57701687500048,97.40782175000004,99.47521708400018,,97.40782175000004,97.40782175000004,102.56185845900018,97.40782175000004,97.40782175000004,97.40782175000004,97.40782175000004,97.86707445899992,98.92377466700054,97.83667791666655,,99.47521708400018,100.5361063750006,99.44577458366645,,97.40782175000004,102.56185845900018,97.40782175000004,102.56185845900018,102.60299600000053,,97.40782175000004,1,1,1.9428925829997752,reldom2_s005,001,2025-01-30_15h13.10.550,Aud-B-Scan_AC,2022.2.5,None,
6,Second_Order,1.0,audwhat,stimulus/audwhat_stim/percussion mallet_low-pitch_F_loud.wav,stimulus/audwhat_stim/percussion mallet_high-pitch_Dtri_loud.wav,stimulus/audwhat_stim/string viola_low-pitch_Ftri_loud.wav,stimulus/audwhat_stim/percussion mallet_low-pitch_Ftri_loud.wav,stimulus/audwhat_stim/match_blank.png,stimulus/audwhat_stim/match_box.png,stimulus/audwhat_stim/match_yes.png,stimulus/audwhat_stim/match_no.png,2.0,Match,Category,Pitch,2,5.125,0,5.125,0,5.125,0,5.125,0,0.625,0.625,0,0,0,0,0,0,0,0,1,0.5,1,2.125,1,0.5,1,2.125,0,,,,,0,7,7,7,,,,,,,,,103.4103334170004,108.53334637500029,103.4103334170004,103.4103334170004,103.4103334170004,103.4103334170004,103.85923474999981,104.858256042,103.87236245866667,104.86592441700031,105.49268929200025,106.48635554199973,105.49618491666685,106.48635554199973,108.53334637500029,109.25042337500054,111.31064049999986,,109.25042337500054,109.25042337500054,114.43805112500013,109.25042337500054,109.25042337500054,109.25042337500054,109.25042337500054,109.70604133400047,110.7605471249999,109.67687320866686,,111.31064049999986,112.36753658399994,111.28097866666691,,109.25042337500054,114.43805112500013,109.25042337500054,114.43805112500013,114.43805112500013,115.08613695900021,109.25042337500054,2,1,1.146676041000319,reldom2_s005,001,2025-01-30_15h13.10.550,Aud-B-Scan_AC,2022.2.5,None,
0,0.0,None,fixation,stimulus/audwhat_stim/blank_white.png,stimulus/audwhat_stim/blank_white.png,stimulus/audwhere_stim/blank_white.png,stimulus/audwhere_stim/blank_white.png,stimulus/audwhat_stim/blank_white.png,stimulus/audwhat_stim/blank_white.png,stimulus/audwhat_stim/blank_white.png,stimulus/audwhat_stim/blank_white.png,0.0,0.0,0.0,0.0,0,0.0,0,0.0,0,0.0,0,0.0,0,0.0,0.0,0,0,0,0,0,0,0,0,0,0.0,0,0.0,0,0.0,0,0.0,10,,,,,0,8,8,8,,,,,,,,,115.35963483399973,115.35963483399973,115.35963483399973,115.35963483399973,115.35963483399973,115.35963483399973,115.35963483399973,115.35963483399973,115.25944654233365,115.35963483399973,115.35963483399973,115.35963483399973,115.25944654233365,115.35963483399973,115.35963483399973,115.35963483399973,115.35963483399973,115.35963483399973,115.35963483399973,115.35963483399973,115.35963483399973,115.35963483399973,115.35963483399973,115.35963483399973,115.35963483399973,115.35963483399973,115.35963483399973,115.30944654233366,115.35963483399973,115.35963483399973,115.35963483399973,115.30944654233366,115.35963483399973,115.35963483399973,115.35963483399973,115.35963483399973,115.35963483399973,120.55061424999985,120.55061424999985,125.61295691699979,None,0,,reldom2_s005,001,2025-01-30_15h13.10.550,Aud-B-Scan_AC,2022.2.5,None,
7,First_Order,2.0,audwhat,stimulus/audwhat_stim/dummy.wav,stimulus/audwhat_stim/dummy.wav,stimulus/audwhat_stim/percussion xylophone_high-pitch_F_loud.wav,stimulus/audwhat_stim/percussion mallet_low-pitch_D_loud.wav,stimulus/audwhat_stim/blank_white.png,stimulus/audwhat_stim/category_box.png,stimulus/audwhat_stim/category_yes.png,stimulus/audwhat_stim/category_no.png,None,Category,None,Category,1,0.0,0,5.125,0,5.125,0,5.125,0,0.0,0.625,0,0,0,0,0,0,0,0,0,0.0,0,0.0,1,0.5,1,2.125,0,,,,,0,9,9,9,,,,,,,,,125.61295691699979,125.61295691699979,125.61295691699979,125.61295691699979,125.61295691699979,125.61295691699979,125.61295691699979,125.61295691699979,125.54028454166716,125.61295691699979,125.61295691699979,125.61295691699979,125.54028454166716,125.61295691699979,125.61295691699979,125.61295691699979,127.7177825839999,,125.61295691699979,125.61295691699979,130.80485508400034,125.61295691699979,125.61295691699979,125.61295691699979,125.61295691699979,126.07901483400019,127.1591211670002,126.04897975066639,127.11212849999993,127.7177825839999,128.7480752500005,127.6881998336669,,125.61295691699979,130.80485508400034,125.61295691699979,130.80485508400034,130.80485508400034,131.45795908400032,125.61295691699979,1,1,2.564533916000073,reldom2_s005,001,2025-01-30_15h13.10.550,Aud-B-Scan_AC,2022.2.5,None,
8,First_Order,2.0,audwhat,stimulus/audwhat_stim/dummy.wav,stimulus/audwhat_stim/dummy.wav,stimulus/audwhat_stim/percussion mallet_low-pitch_D_loud.wav,stimulus/audwhat_stim/string viola_low-pitch_D_loud.wav,stimulus/audwhat_stim/blank_white.png,stimulus/audwhat_stim/pitch_box.png,stimulus/audwhat_stim/pitch_yes.png,stimulus/audwhat_stim/pitch_no.png,None,Pitch,None,Pitch,1,0.0,0,5.125,0,5.125,0,5.125,0,0.0,0.625,0,0,0,0,0,0,0,0,0,0.0,0,0.0,1,0.5,1,2.125,0,,,,,0,10,10,10,,,,,,,,,131.71360458399977,131.71360458399977,131.71360458399977,131.71360458399977,131.71360458399977,131.71360458399977,131.71360458399977,131.71360458399977,131.63196041733332,131.71360458399977,131.71360458399977,131.71360458399977,131.63196041733332,131.71360458399977,131.71360458399977,131.71360458399977,133.80792075000045,137.83917266699973,131.71360458399977,131.71360458399977,136.88475254200057,131.71360458399977,131.71360458399977,131.71360458399977,131.71360458399977,132.17927016700014,133.24951425000017,132.14879579166725,,133.80792075000045,134.88305587500054,133.77775212566692,,131.71360458399977,136.88475254200057,131.71360458399977,136.88475254200057,136.92598683400047,137.58121949999986,131.71360458399977,2,0,2.959560999999667,reldom2_s005,001,2025-01-30_15h13.10.550,Aud-B-Scan_AC,2022.2.5,None,
9,First_Order,2.0,audwhat,stimulus/audwhat_stim/dummy.wav,stimulus/audwhat_stim/dummy.wav,stimulus/audwhat_stim/percussion mallet_low-pitch_D_loud.wav,stimulus/audwhat_stim/percussion mallet_high-pitch_Ftri_loud.wav,stimulus/audwhat_stim/blank_white.png,stimulus/audwhat_stim/category_box.png,stimulus/audwhat_stim/category_yes.png,stimulus/audwhat_stim/category_no.png,None,Category,None,Category,1,0.0,0,5.125,0,5.125,0,5.125,0,0.0,0.625,0,0,0,0,0,0,0,0,0,0.0,0,0.0,1,0.5,1,2.125,0,,,,,0,11,11,11,,,,,,,,,137.83917266699973,137.83917266699973,137.83917266699973,137.83917266699973,137.83917266699973,137.83917266699973,137.83917266699973,137.83917266699973,137.75556537533353,137.83917266699973,137.83917266699973,137.83917266699973,137.75556537533353,137.83917266699973,137.83917266699973,137.83917266699973,139.9430636670004,,137.83917266699973,137.83917266699973,143.03151608400003,137.83917266699973,137.83917266699973,137.83917266699973,137.83917266699973,138.3078010420004,139.3828677500005,138.27674370866706,,139.9430636670004,140.9757977090003,139.91214104166673,,137.83917266699973,143.03151608400003,137.83917266699973,143.03151608400003,143.03151608400003,143.69067879199974,137.83917266699973,2,0,3.319285998999476,reldom2_s005,001,2025-01-30_15h13.10.550,Aud-B-Scan_AC,2022.2.5,None,
10,First_Order,2.0,audwhat,stimulus/audwhat_stim/dummy.wav,stimulus/audwhat_stim/dummy.wav,stimulus/audwhat_stim/string cello_high-pitch_F_loud.wav,stimulus/audwhat_stim/percussion mallet_high-pitch_F_loud.wav,stimulus/audwhat_stim/blank_white.png,stimulus/audwhat_stim/category_box.png,stimulus/audwhat_stim/category_yes.png,stimulus/audwhat_stim/category_no.png,None,Category,None,Pitch,2,0.0,0,5.125,0,5.125,0,5.125,0,0.0,0.625,0,0,0,0,0,0,0,0,0,0.0,0,0.0,1,0.5,1,2.125,0,,,,,0,12,12,12,,,,,,,,,143.9487896669998,143.9487896669998,143.9487896669998,143.9487896669998,143.9487896669998,143.9487896669998,143.9487896669998,143.9487896669998,143.8642577083339,143.9487896669998,143.9487896669998,143.9487896669998,143.8642577083339,143.9487896669998,143.9487896669998,143.9487896669998,146.05724283400014,150.08523504200002,143.9487896669998,143.9487896669998,149.1079562089999,143.9487896669998,143.9487896669998,143.9487896669998,143.9487896669998,144.4191945419998,145.44889095899998,144.38760691666656,,146.05724283400014,147.09246299999995,146.0272001256665,,143.9487896669998,149.1079562089999,143.9487896669998,149.1079562089999,149.1491485000006,149.80866770900047,143.9487896669998,2,1,1.8478496249999807,reldom2_s005,001,2025-01-30_15h13.10.550,Aud-B-Scan_AC,2022.2.5,None,
0,0.0,None,fixation,stimulus/audwhat_stim/blank_white.png,stimulus/audwhat_stim/blank_white.png,stimulus/audwhere_stim/blank_white.png,stimulus/audwhere_stim/blank_white.png,stimulus/audwhat_stim/blank_white.png,stimulus/audwhat_stim/blank_white.png,stimulus/audwhat_stim/blank_white.png,stimulus/audwhat_stim/blank_white.png,0.0,0.0,0.0,0.0,0,0.0,0,0.0,0,0.0,0,0.0,0,0.0,0.0,0,0,0,0,0,0,0,0,0,0.0,0,0.0,0,0.0,0,0.0,8,,,,,0,13,13,13,,,,,,,,,150.08523504200002,150.08523504200002,150.08523504200002,150.08523504200002,150.08523504200002,150.08523504200002,150.08523504200002,150.08523504200002,149.98327775033354,150.08523504200002,150.08523504200002,150.08523504200002,149.98327775033354,150.08523504200002,150.08523504200002,150.08523504200002,150.08523504200002,150.08523504200002,150.08523504200002,150.08523504200002,150.08523504200002,150.08523504200002,150.08523504200002,150.08523504200002,150.08523504200002,150.08523504200002,150.08523504200002,150.03327775033353,150.08523504200002,150.08523504200002,150.08523504200002,150.03327775033353,150.08523504200002,150.08523504200002,150.08523504200002,150.08523504200002,150.08523504200002,155.3106401670002,155.3106401670002,158.25442620900048,None,0,,reldom2_s005,001,2025-01-30_15h13.10.550,Aud-B-Scan_AC,2022.2.5,None,
11,Second_Order,2.0,audwhat,stimulus/audwhat_stim/string viola_high-pitch_Dtri_loud.wav,stimulus/audwhat_stim/string cello_low-pitch_D_loud.wav,stimulus/audwhat_stim/percussion mallet_high-pitch_Dtri_loud.wav,stimulus/audwhat_stim/percussion mallet_low-pitch_Ftri_loud.wav,stimulus/audwhat_stim/match_blank.png,stimulus/audwhat_stim/match_box.png,stimulus/audwhat_stim/match_yes.png,stimulus/audwhat_stim/match_no.png,1.0,Match,Category,Category,1,5.125,0,5.125,0,5.125,0,5.125,0,0.75,0.75,0,0,0,0,0,0,0,0,1,0.5,1,2.125,1,0.5,1,2.125,0,,,,,0,14,14,14,,,,,,,,,158.25442620900048,163.37643979200038,158.25442620900048,158.25442620900048,158.25442620900048,158.25442620900048,158.70308999999997,159.70121495900003,158.71582933366724,,160.33620725000037,161.3251098340006,160.3401580006669,,163.37643979200038,164.2110398750001,166.30069658400043,170.2209090840006,164.2110398750001,164.2110398750001,169.3694315419998,164.2110398750001,164.2110398750001,164.2110398750001,164.2110398750001,164.67609012499997,165.7427917089999,164.64597704166707,,166.30069658400043,167.37389216700012,166.2711072916666,,164.2110398750001,169.3694315419998,164.2110398750001,169.3694315419998,169.40977337500044,,164.2110398750001,1,1,0.7215790000000197,reldom2_s005,001,2025-01-30_15h13.10.550,Aud-B-Scan_AC,2022.2.5,None,
12,Second_Order,2.0,audwhat,stimulus/audwhat_stim/string viola_low-pitch_F_loud.wav,stimulus/audwhat_stim/string viola_high-pitch_Ftri_loud.wav,stimulus/audwhat_stim/percussion mallet_low-pitch_Ftri_loud.wav,stimulus/audwhat_stim/percussion xylophone_high-pitch_Dtri_loud.wav,stimulus/audwhat_stim/match_blank.png,stimulus/audwhat_stim/match_box.png,stimulus/audwhat_stim/match_yes.png,stimulus/audwhat_stim/match_no.png,1.0,Match,Category,Category,1,5.125,0,5.125,0,5.125,0,5.125,0,0.625,0.625,0,0,0,0,0,0,0,0,1,0.5,1,2.125,1,0.5,1,2.125,0,,,,,0,15,15,15,,,,,,,,,170.2209090840006,175.34192437500042,170.2209090840006,170.2209090840006,170.2209090840006,170.2209090840006,170.68027395900026,171.6788061670004,170.69303158366645,,172.3022827499999,173.2994267920003,172.31380345866663,,175.34192437500042,176.05242083400026,178.1335068340004,,176.05242083400026,176.05242083400026,181.23924524999984,176.05242083400026,176.05242083400026,176.05242083400026,176.05242083400026,176.51602337500026,177.58020354200016,176.4861411666673,,178.1335068340004,179.2044514170002,178.10409391666715,179.15825804199994,176.05242083400026,181.23924524999984,176.05242083400026,181.23924524999984,181.23924524999984,181.89142804200037,176.05242083400026,1,1,1.265775207999468,reldom2_s005,001,2025-01-30_15h13.10.550,Aud-B-Scan_AC,2022.2.5,None,
0,0.0,None,fixation,stimulus/audwhat_stim/blank_white.png,stimulus/audwhat_stim/blank_white.png,stimulus/audwhere_stim/blank_white.png,stimulus/audwhere_stim/blank_white.png,stimulus/audwhat_stim/blank_white.png,stimulus/audwhat_stim/blank_white.png,stimulus/audwhat_stim/blank_white.png,stimulus/audwhat_stim/blank_white.png,0.0,0.0,0.0,0.0,0,0.0,0,0.0,0,0.0,0,0.0,0,0.0,0.0,0,0,0,0,0,0,0,0,0,0.0,0,0.0,0,0.0,0,0.0,9,,,,,0,16,16,16,,,,,,,,,182.1678850420003,182.1678850420003,182.1678850420003,182.1678850420003,182.1678850420003,182.1678850420003,182.1678850420003,182.1678850420003,182.06583845833316,182.1678850420003,182.1678850420003,182.1678850420003,182.06583845833316,182.1678850420003,182.1678850420003,182.1678850420003,182.1678850420003,182.1678850420003,182.1678850420003,182.1678850420003,182.1678850420003,182.1678850420003,182.1678850420003,182.1678850420003,182.1678850420003,182.1678850420003,182.1678850420003,182.11583845833314,182.1678850420003,182.1678850420003,182.1678850420003,182.11583845833314,182.1678850420003,182.1678850420003,182.1678850420003,182.1678850420003,182.1678850420003,187.34914216700054,187.34914216700054,191.4396758339999,None,0,,reldom2_s005,001,2025-01-30_15h13.10.550,Aud-B-Scan_AC,2022.2.5,None,
13,First_Order,3.0,audwhere,stimulus/audwhere_stim/dummy.wav,stimulus/audwhere_stim/dummy.wav,stimulus/audwhere_stim/left_toward_290h.wav,stimulus/audwhere_stim/right_toward_280h.wav,stimulus/audwhere_stim/blank_white.png,stimulus/audwhere_stim/direction_box.png,stimulus/audwhere_stim/direction_yes.png,stimulus/audwhere_stim/direction_no.png,None,Direction,None,Direction,1,0.0,0,5.125,0,5.125,0,5.125,0,0.0,0.625,0,0,0,0,0,0,0,0,0,0.0,0,0.0,1,0.5,1,2.125,0,,,,,0,17,17,17,,,,,,,,,191.4396758339999,191.4396758339999,191.4396758339999,191.4396758339999,191.4396758339999,191.4396758339999,191.4396758339999,191.4396758339999,191.3659760836669,191.4396758339999,191.4396758339999,191.4396758339999,191.3659760836669,191.4396758339999,191.4396758339999,191.4396758339999,193.5461547089999,,191.4396758339999,191.4396758339999,196.5966780839999,191.4396758339999,191.4396758339999,191.4396758339999,191.4396758339999,191.9091392500004,192.93872066699987,191.87865270866703,,193.5461547089999,194.5805969590001,193.5156177506672,,191.4396758339999,196.5966780839999,191.4396758339999,196.5966780839999,196.6379350420002,197.29479908400026,191.4396758339999,1,1,1.6147600829999647,reldom2_s005,001,2025-01-30_15h13.10.550,Aud-B-Scan_AC,2022.2.5,None,
14,First_Order,3.0,audwhere,stimulus/audwhere_stim/dummy.wav,stimulus/audwhere_stim/dummy.wav,stimulus/audwhere_stim/left_toward_270h.wav,stimulus/audwhere_stim/right_toward_290h.wav,stimulus/audwhere_stim/blank_white.png,stimulus/audwhere_stim/direction_box.png,stimulus/audwhere_stim/direction_yes.png,stimulus/audwhere_stim/direction_no.png,None,Direction,None,Direction,1,0.0,0,5.125,0,5.125,0,5.125,0,0.0,0.625,0,0,0,0,0,0,0,0,0,0.0,0,0.0,1,0.5,1,2.125,0,,,,,0,18,18,18,,,,,,,,,197.55071370899987,197.55071370899987,197.55071370899987,197.55071370899987,197.55071370899987,197.55071370899987,197.55071370899987,197.55071370899987,197.46916491733387,197.55071370899987,197.55071370899987,197.55071370899987,197.46916491733387,197.55071370899987,197.55071370899987,197.55071370899987,199.66151141699993,203.67070620899995,197.55071370899987,197.55071370899987,202.71628141700057,197.55071370899987,197.55071370899987,197.55071370899987,197.55071370899987,198.01911941700018,199.05211624999993,197.9890206256671,,199.66151141699993,200.69946787499975,199.63193133366647,,197.55071370899987,202.71628141700057,197.55071370899987,202.71628141700057,202.75798316700002,203.41560112499974,197.55071370899987,1,1,1.3761424160002207,reldom2_s005,001,2025-01-30_15h13.10.550,Aud-B-Scan_AC,2022.2.5,None,
15,First_Order,3.0,audwhere,stimulus/audwhere_stim/dummy.wav,stimulus/audwhere_stim/dummy.wav,stimulus/audwhere_stim/left_away_290h.wav,stimulus/audwhere_stim/left_toward_280h.wav,stimulus/audwhere_stim/blank_white.png,stimulus/audwhere_stim/direction_box.png,stimulus/audwhere_stim/direction_yes.png,stimulus/audwhere_stim/direction_no.png,None,Direction,None,Side,2,0.0,0,5.125,0,5.125,0,5.125,0,0.0,0.625,0,0,0,0,0,0,0,0,0,0.0,0,0.0,1,0.5,1,2.125,0,,,,,0,19,19,19,,,,,,,,,203.67070620899995,203.67070620899995,203.67070620899995,203.67070620899995,203.67070620899995,203.67070620899995,203.67070620899995,203.67070620899995,203.5899179173331,203.67070620899995,203.67070620899995,203.67070620899995,203.5899179173331,203.67070620899995,203.67070620899995,203.67070620899995,205.74194224999974,209.8001654589998,203.67070620899995,203.67070620899995,208.84309108399975,203.67070620899995,203.67070620899995,203.67070620899995,203.67070620899995,204.1395004169999,205.17699291700046,204.10892720866676,,205.74194224999974,206.7790306249999,205.71120395866663,,203.67070620899995,208.84309108399975,203.67070620899995,208.84309108399975,208.88473454199993,209.54385954200006,203.67070620899995,2,1,1.1058859570002824,reldom2_s005,001,2025-01-30_15h13.10.550,Aud-B-Scan_AC,2022.2.5,None,
16,First_Order,3.0,audwhere,stimulus/audwhere_stim/dummy.wav,stimulus/audwhere_stim/dummy.wav,stimulus/audwhere_stim/left_toward_300h.wav,stimulus/audwhere_stim/left_away_290h.wav,stimulus/audwhere_stim/blank_white.png,stimulus/audwhere_stim/direction_box.png,stimulus/audwhere_stim/direction_yes.png,stimulus/audwhere_stim/direction_no.png,None,Direction,None,Side,2,0.0,0,5.125,0,5.125,0,5.125,0,0.0,0.625,0,0,0,0,0,0,0,0,0,0.0,0,0.0,1,0.5,1,2.125,0,,,,,0,20,20,20,,,,,,,,,209.8001654589998,209.8001654589998,209.8001654589998,209.8001654589998,209.8001654589998,209.8001654589998,209.8001654589998,209.8001654589998,209.71835850033327,209.8001654589998,209.8001654589998,209.8001654589998,209.71835850033327,209.8001654589998,209.8001654589998,209.8001654589998,211.9150443340004,215.95215779200043,209.8001654589998,209.8001654589998,214.97094470899992,209.8001654589998,209.8001654589998,209.8001654589998,209.8001654589998,210.26903016699998,211.30547016699984,210.2388052086665,,211.9150443340004,212.95168325000031,211.88408741666652,,209.8001654589998,214.97094470899992,209.8001654589998,214.97094470899992,215.01176662499984,215.6738179590002,209.8001654589998,2,1,2.5035162079993825,reldom2_s005,001,2025-01-30_15h13.10.550,Aud-B-Scan_AC,2022.2.5,None,
0,0.0,None,fixation,stimulus/audwhat_stim/blank_white.png,stimulus/audwhat_stim/blank_white.png,stimulus/audwhere_stim/blank_white.png,stimulus/audwhere_stim/blank_white.png,stimulus/audwhat_stim/blank_white.png,stimulus/audwhat_stim/blank_white.png,stimulus/audwhat_stim/blank_white.png,stimulus/audwhat_stim/blank_white.png,0.0,0.0,0.0,0.0,0,0.0,0,0.0,0,0.0,0,0.0,0,0.0,0.0,0,0,0,0,0,0,0,0,0,0.0,0,0.0,0,0.0,0,0.0,10,,,,,0,21,21,21,,,,,,,,,215.95215779200043,215.95215779200043,215.95215779200043,215.95215779200043,215.95215779200043,215.95215779200043,215.95215779200043,215.95215779200043,215.8485926253335,215.95215779200043,215.95215779200043,215.95215779200043,215.8485926253335,215.95215779200043,215.95215779200043,215.95215779200043,215.95215779200043,215.95215779200043,215.95215779200043,215.95215779200043,215.95215779200043,215.95215779200043,215.95215779200043,215.95215779200043,215.95215779200043,215.95215779200043,215.95215779200043,215.8985926253335,215.95215779200043,215.95215779200043,215.95215779200043,215.8985926253335,215.95215779200043,215.95215779200043,215.95215779200043,215.95215779200043,215.95215779200043,221.1444068339997,221.1444068339997,226.09821558400017,None,0,,reldom2_s005,001,2025-01-30_15h13.10.550,Aud-B-Scan_AC,2022.2.5,None,
17,Second_Order,3.0,audwhere,stimulus/audwhere_stim/right_toward_290h.wav,stimulus/audwhere_stim/right_away_290h.wav,stimulus/audwhere_stim/right_away_280h.wav,stimulus/audwhere_stim/left_away_300h.wav,stimulus/audwhat_stim/match_blank.png,stimulus/audwhat_stim/match_box.png,stimulus/audwhat_stim/match_yes.png,stimulus/audwhat_stim/match_no.png,2.0,Match,Side,Direction,2,5.125,0,5.125,0,5.125,0,5.125,0,0.75,0.75,0,0,0,0,0,0,0,0,1,0.5,1,2.125,1,0.5,1,2.125,0,,,,,0,22,22,22,,,,,,,,,226.09821558400017,231.22082795900042,226.09821558400017,226.09821558400017,226.09821558400017,226.09821558400017,226.55523504200028,227.54909141700045,226.55866525066656,227.54909141700045,228.18049758400048,229.17819562499972,228.19237345866648,229.18703129200003,231.22082795900042,232.05268541700025,234.15154658400024,,232.05268541700025,232.05268541700025,237.2333747090006,232.05268541700025,232.05268541700025,232.05268541700025,232.05268541700025,232.51860712500002,233.5926419590005,232.48847804166715,,234.15154658400024,235.18133975,234.1213796666664,,232.05268541700025,237.2333747090006,232.05268541700025,237.2333747090006,237.2333747090006,,232.05268541700025,2,1,0.6372194160003346,reldom2_s005,001,2025-01-30_15h13.10.550,Aud-B-Scan_AC,2022.2.5,None,
18,Second_Order,3.0,audwhere,stimulus/audwhere_stim/right_toward_270h.wav,stimulus/audwhere_stim/left_toward_270h.wav,stimulus/audwhere_stim/right_away_300h.wav,stimulus/audwhere_stim/left_away_280h.wav,stimulus/audwhat_stim/match_blank.png,stimulus/audwhat_stim/match_box.png,stimulus/audwhat_stim/match_yes.png,stimulus/audwhat_stim/match_no.png,1.0,Match,Direction,Direction,1,5.125,0,5.125,0,5.125,0,5.125,0,0.625,0.625,0,0,0,0,0,0,0,0,1,0.5,1,2.125,1,0.5,1,2.125,0,,,,,0,23,23,23,,,,,,,,,238.04913045900048,243.16586966700015,238.04913045900048,238.04913045900048,238.04913045900048,238.04913045900048,238.50441124999998,239.50227304200052,238.51622954166695,239.51028074999977,240.12482100000034,241.12264829200012,240.13675008366707,241.130236084,243.16586966700015,243.87798424999983,245.96929604199977,250.01390908400026,243.87798424999983,243.87798424999983,249.04059333399982,243.87798424999983,243.87798424999983,243.87798424999983,243.87798424999983,244.34028737500012,245.412238334,244.31059925066646,,245.96929604199977,247.04032258400002,245.93930941666648,,243.87798424999983,249.04059333399982,243.87798424999983,249.04059333399982,249.0816679589998,249.73406066700045,243.87798424999983,1,1,1.393020333000095,reldom2_s005,001,2025-01-30_15h13.10.550,Aud-B-Scan_AC,2022.2.5,None,
0,0.0,None,fixation,stimulus/audwhat_stim/blank_white.png,stimulus/audwhat_stim/blank_white.png,stimulus/audwhere_stim/blank_white.png,stimulus/audwhere_stim/blank_white.png,stimulus/audwhat_stim/blank_white.png,stimulus/audwhat_stim/blank_white.png,stimulus/audwhat_stim/blank_white.png,stimulus/audwhat_stim/blank_white.png,0.0,0.0,0.0,0.0,0,0.0,0,0.0,0,0.0,0,0.0,0,0.0,0.0,0,0,0,0,0,0,0,0,0,0.0,0,0.0,0,0.0,0,0.0,8,,,,,0,24,24,24,,,,,,,,,250.01390908400026,250.01390908400026,250.01390908400026,250.01390908400026,250.01390908400026,250.01390908400026,250.01390908400026,250.01390908400026,249.90841662533344,250.01390908400026,250.01390908400026,250.01390908400026,249.90841662533344,250.01390908400026,250.01390908400026,250.01390908400026,250.01390908400026,250.01390908400026,250.01390908400026,250.01390908400026,250.01390908400026,250.01390908400026,250.01390908400026,250.01390908400026,250.01390908400026,250.01390908400026,250.01390908400026,249.9750832920001,250.01390908400026,250.01390908400026,250.01390908400026,249.9750832920001,250.01390908400026,250.01390908400026,250.01390908400026,250.01390908400026,250.01390908400026,255.20542941700023,255.20542941700023,258.28701012500005,None,0,,reldom2_s005,001,2025-01-30_15h13.10.550,Aud-B-Scan_AC,2022.2.5,None,
19,First_Order,4.0,audwhere,stimulus/audwhere_stim/dummy.wav,stimulus/audwhere_stim/dummy.wav,stimulus/audwhere_stim/right_toward_280h.wav,stimulus/audwhere_stim/left_toward_280h.wav,stimulus/audwhere_stim/blank_white.png,stimulus/audwhere_stim/side_box.png,stimulus/audwhere_stim/side_yes.png,stimulus/audwhere_stim/side_no.png,None,Side,None,Direction,2,0.0,0,5.125,0,5.125,0,5.125,0,0.0,0.625,0,0,0,0,0,0,0,0,0,0.0,0,0.0,1,0.5,1,2.125,0,,,,,0,25,25,25,,,,,,,,,258.28701012500005,258.28701012500005,258.28701012500005,258.28701012500005,258.28701012500005,258.28701012500005,258.28701012500005,258.28701012500005,258.2129173756672,258.28701012500005,258.28701012500005,258.28701012500005,258.2129173756672,258.28701012500005,258.28701012500005,258.28701012500005,260.3892395840003,,258.28701012500005,258.28701012500005,263.46769462500015,258.28701012500005,258.28701012500005,258.28701012500005,258.28701012500005,258.75588162500026,259.82888079199984,258.7261098336669,,260.3892395840003,261.4648198340001,260.35758112566714,,258.28701012500005,263.46769462500015,258.28701012500005,263.46769462500015,263.5087665840001,264.16444975000013,258.28701012500005,2,1,0.48924987400005193,reldom2_s005,001,2025-01-30_15h13.10.550,Aud-B-Scan_AC,2022.2.5,None,
20,First_Order,4.0,audwhere,stimulus/audwhere_stim/dummy.wav,stimulus/audwhere_stim/dummy.wav,stimulus/audwhere_stim/left_toward_290h.wav,stimulus/audwhere_stim/right_toward_270h.wav,stimulus/audwhere_stim/blank_white.png,stimulus/audwhere_stim/side_box.png,stimulus/audwhere_stim/side_yes.png,stimulus/audwhere_stim/side_no.png,None,Side,None,Direction,2,0.0,0,5.125,0,5.125,0,5.125,0,0.0,0.625,0,0,0,0,0,0,0,0,0,0.0,0,0.0,1,0.5,1,2.125,0,,,,,0,26,26,26,,,,,,,,,264.3791659999997,264.3791659999997,264.3791659999997,264.3791659999997,264.3791659999997,264.3791659999997,264.3791659999997,264.3791659999997,264.29778308333346,264.3791659999997,264.3791659999997,264.3791659999997,264.29778308333346,264.3791659999997,264.3791659999997,264.3791659999997,266.4865435840002,,264.3791659999997,264.3791659999997,269.5730761670002,264.3791659999997,264.3791659999997,264.3791659999997,264.3791659999997,264.8475521669998,265.9235751670003,264.8174123336669,,266.4865435840002,267.5190190000003,266.45634383366655,,264.3791659999997,269.5730761670002,264.3791659999997,269.5730761670002,269.5730761670002,270.2294829170005,264.3791659999997,2,1,0.7242012069991688,reldom2_s005,001,2025-01-30_15h13.10.550,Aud-B-Scan_AC,2022.2.5,None,
21,First_Order,4.0,audwhere,stimulus/audwhere_stim/dummy.wav,stimulus/audwhere_stim/dummy.wav,stimulus/audwhere_stim/left_toward_270h.wav,stimulus/audwhere_stim/left_away_300h.wav,stimulus/audwhere_stim/blank_white.png,stimulus/audwhere_stim/side_box.png,stimulus/audwhere_stim/side_yes.png,stimulus/audwhere_stim/side_no.png,None,Side,None,Side,1,0.0,0,5.125,0,5.125,0,5.125,0,0.0,0.625,0,0,0,0,0,0,0,0,0,0.0,0,0.0,1,0.5,1,2.125,0,,,,,0,27,27,27,,,,,,,,,270.48666137500004,270.48666137500004,270.48666137500004,270.48666137500004,270.48666137500004,270.48666137500004,270.48666137500004,270.48666137500004,270.4040444583335,270.48666137500004,270.48666137500004,270.48666137500004,270.4040444583335,270.48666137500004,270.48666137500004,270.48666137500004,272.5915884169999,,270.48666137500004,270.48666137500004,275.6763403750001,270.48666137500004,270.48666137500004,270.48666137500004,270.48666137500004,270.95355983399986,272.028715167,270.92300650066704,,272.5915884169999,273.6238840420001,272.5611191256669,,270.48666137500004,275.6763403750001,270.48666137500004,275.6763403750001,275.6763403750001,276.333260292,270.48666137500004,1,1,0.7348089990000517,reldom2_s005,001,2025-01-30_15h13.10.550,Aud-B-Scan_AC,2022.2.5,None,
22,First_Order,4.0,audwhere,stimulus/audwhere_stim/dummy.wav,stimulus/audwhere_stim/dummy.wav,stimulus/audwhere_stim/left_away_290h.wav,stimulus/audwhere_stim/left_toward_270h.wav,stimulus/audwhere_stim/blank_white.png,stimulus/audwhere_stim/side_box.png,stimulus/audwhere_stim/side_yes.png,stimulus/audwhere_stim/side_no.png,None,Side,None,Side,1,0.0,0,5.125,0,5.125,0,5.125,0,0.0,0.625,0,0,0,0,0,0,0,0,0,0.0,0,0.0,1,0.5,1,2.125,0,,,,,0,28,28,28,,,,,,,,,276.59014095900056,276.59014095900056,276.59014095900056,276.59014095900056,276.59014095900056,276.59014095900056,276.59014095900056,276.59014095900056,276.50779212533337,276.59014095900056,276.59014095900056,276.59014095900056,276.50779212533337,276.59014095900056,276.59014095900056,276.59014095900056,278.70071895900037,282.73104170900024,276.59014095900056,276.59014095900056,281.7479357500006,276.59014095900056,276.59014095900056,276.59014095900056,276.59014095900056,277.05750820899993,278.0907311250003,277.02670145866637,,278.70071895900037,279.7333603340003,278.6704006666671,,276.59014095900056,281.7479357500006,276.59014095900056,281.7479357500006,281.7893024590003,282.45296441699975,276.59014095900056,1,1,1.3149817489993438,reldom2_s005,001,2025-01-30_15h13.10.550,Aud-B-Scan_AC,2022.2.5,None,
0,0.0,None,fixation,stimulus/audwhat_stim/blank_white.png,stimulus/audwhat_stim/blank_white.png,stimulus/audwhere_stim/blank_white.png,stimulus/audwhere_stim/blank_white.png,stimulus/audwhat_stim/blank_white.png,stimulus/audwhat_stim/blank_white.png,stimulus/audwhat_stim/blank_white.png,stimulus/audwhat_stim/blank_white.png,0.0,0.0,0.0,0.0,0,0.0,0,0.0,0,0.0,0,0.0,0,0.0,0.0,0,0,0,0,0,0,0,0,0,0.0,0,0.0,0,0.0,0,0.0,10,,,,,0,29,29,29,,,,,,,,,282.73104170900024,282.73104170900024,282.73104170900024,282.73104170900024,282.73104170900024,282.73104170900024,282.73104170900024,282.73104170900024,282.6275593753336,282.73104170900024,282.73104170900024,282.73104170900024,282.6275593753336,282.73104170900024,282.73104170900024,282.73104170900024,282.73104170900024,282.73104170900024,282.73104170900024,282.73104170900024,282.73104170900024,282.73104170900024,282.73104170900024,282.73104170900024,282.73104170900024,282.73104170900024,282.73104170900024,282.6775593753336,282.73104170900024,282.73104170900024,282.73104170900024,282.6775593753336,282.73104170900024,282.73104170900024,282.73104170900024,282.73104170900024,282.73104170900024,287.92112145900046,287.92112145900046,292.87346524999975,None,0,,reldom2_s005,001,2025-01-30_15h13.10.550,Aud-B-Scan_AC,2022.2.5,None,
23,Second_Order,4.0,audwhere,stimulus/audwhere_stim/right_toward_300h.wav,stimulus/audwhere_stim/left_toward_270h.wav,stimulus/audwhere_stim/left_away_300h.wav,stimulus/audwhere_stim/right_away_300h.wav,stimulus/audwhat_stim/match_blank.png,stimulus/audwhat_stim/match_box.png,stimulus/audwhat_stim/match_yes.png,stimulus/audwhat_stim/match_no.png,1.0,Match,Direction,Direction,1,5.125,0,5.125,0,5.125,0,5.125,0,0.75,0.75,0,0,0,0,0,0,0,0,1,0.5,1,2.125,1,0.5,1,2.125,0,,,,,0,30,30,30,,,,,,,,,292.87346524999975,297.9912525,292.87346524999975,292.87346524999975,292.87346524999975,292.87346524999975,293.3304655000002,294.3282994170004,293.34288804166704,294.33611345900044,294.9515058340003,295.94865387499976,294.9634312916671,295.95648704199994,297.9912525,298.8223070840004,300.9191314999998,,298.8223070840004,298.8223070840004,304.0042690420005,298.8223070840004,298.8223070840004,298.8223070840004,298.8223070840004,299.2872462920004,300.35837741700016,299.2570795836666,,300.9191314999998,301.9491930840004,300.88858120866666,,298.8223070840004,304.0042690420005,298.8223070840004,304.0042690420005,304.0042690420005,,298.8223070840004,1,1,0.9290174999996452,reldom2_s005,001,2025-01-30_15h13.10.550,Aud-B-Scan_AC,2022.2.5,None,
24,Second_Order,4.0,audwhere,stimulus/audwhere_stim/right_toward_300h.wav,stimulus/audwhere_stim/left_toward_300h.wav,stimulus/audwhere_stim/left_away_290h.wav,stimulus/audwhere_stim/right_away_280h.wav,stimulus/audwhat_stim/match_blank.png,stimulus/audwhat_stim/match_box.png,stimulus/audwhat_stim/match_yes.png,stimulus/audwhat_stim/match_no.png,1.0,Match,Direction,Direction,1,5.125,0,5.125,0,5.125,0,5.125,0,0.625,0.625,0,0,0,0,0,0,0,0,1,0.5,1,2.125,1,0.5,1,2.125,0,,,,,0,31,31,31,,,,,,,,,304.8202118750005,309.9359078340003,304.8202118750005,304.8202118750005,304.8202118750005,304.8202118750005,305.2742038340002,306.26012487499975,305.2867968756666,306.28044895899984,306.8957921250003,307.89332529200055,306.90752837566674,307.9012607499999,309.9359078340003,310.64567020899995,312.73456375000023,316.7777757089998,310.64567020899995,310.64567020899995,315.80489466700055,310.64567020899995,310.64567020899995,310.64567020899995,310.64567020899995,311.1099855000002,312.1750919590004,311.08016120866637,,312.73456375000023,313.80715062499985,312.7044720836668,,310.64567020899995,315.80489466700055,310.64567020899995,315.80489466700055,315.84598262500003,316.50186374999976,310.64567020899995,1,1,0.971833831999902,reldom2_s005,001,2025-01-30_15h13.10.550,Aud-B-Scan_AC,2022.2.5,None,
0,0.0,None,fixation,stimulus/audwhat_stim/blank_white.png,stimulus/audwhat_stim/blank_white.png,stimulus/audwhere_stim/blank_white.png,stimulus/audwhere_stim/blank_white.png,stimulus/audwhat_stim/blank_white.png,stimulus/audwhat_stim/blank_white.png,stimulus/audwhat_stim/blank_white.png,stimulus/audwhat_stim/blank_white.png,0.0,0.0,0.0,0.0,0,0.0,0,0.0,0,0.0,0,0.0,0,0.0,0.0,0,0,0,0,0,0,0,0,0,0.0,0,0.0,0,0.0,0,0.0,9,,,,,0,32,32,32,,,,,,,,,316.7777757089998,316.7777757089998,316.7777757089998,316.7777757089998,316.7777757089998,316.7777757089998,316.7777757089998,316.7777757089998,316.6761832923331,316.7777757089998,316.7777757089998,316.7777757089998,316.6761832923331,316.7777757089998,316.7777757089998,316.7777757089998,316.7777757089998,316.7777757089998,316.7777757089998,316.7777757089998,316.7777757089998,316.7777757089998,316.7777757089998,316.7777757089998,316.7777757089998,316.7777757089998,316.7777757089998,316.72618329233313,316.7777757089998,316.7777757089998,316.7777757089998,316.72618329233313,316.7777757089998,316.7777757089998,316.7777757089998,316.7777757089998,316.7777757089998,321.975520209,321.975520209,326.0269227919998,None,0,,reldom2_s005,001,2025-01-30_15h13.10.550,Aud-B-Scan_AC,2022.2.5,None,
25,First_Order,5.0,audwhat,stimulus/audwhat_stim/dummy.wav,stimulus/audwhat_stim/dummy.wav,stimulus/audwhat_stim/percussion xylophone_high-pitch_Ftri_loud.wav,stimulus/audwhat_stim/percussion mallet_low-pitch_F_loud.wav,stimulus/audwhat_stim/blank_white.png,stimulus/audwhat_stim/pitch_box.png,stimulus/audwhat_stim/pitch_yes.png,stimulus/audwhat_stim/pitch_no.png,None,Pitch,None,Category,2,0.0,0,5.125,0,5.125,0,5.125,0,0.0,0.625,0,0,0,0,0,0,0,0,0,0.0,0,0.0,1,0.5,1,2.125,0,,,,,0,33,33,33,,,,,,,,,326.0269227919998,326.0269227919998,326.0269227919998,326.0269227919998,326.0269227919998,326.0269227919998,326.0269227919998,326.0269227919998,325.9537477086666,326.0269227919998,326.0269227919998,326.0269227919998,325.9537477086666,326.0269227919998,326.0269227919998,326.0269227919998,328.1367745839998,,326.0269227919998,326.0269227919998,331.1764820839999,326.0269227919998,326.0269227919998,326.0269227919998,326.0269227919998,326.496203875,327.5746516670006,326.4662407086664,327.5278907920001,328.1367745839998,329.16817483399973,328.1061346666668,,326.0269227919998,331.1764820839999,326.0269227919998,331.1764820839999,331.21776675,331.8746065000005,326.0269227919998,2,1,1.3514237069994124,reldom2_s005,001,2025-01-30_15h13.10.550,Aud-B-Scan_AC,2022.2.5,None,
26,First_Order,5.0,audwhat,stimulus/audwhat_stim/dummy.wav,stimulus/audwhat_stim/dummy.wav,stimulus/audwhat_stim/percussion mallet_low-pitch_Dtri_loud.wav,stimulus/audwhat_stim/percussion xylophone_high-pitch_Ftri_loud.wav,stimulus/audwhat_stim/blank_white.png,stimulus/audwhat_stim/category_box.png,stimulus/audwhat_stim/category_yes.png,stimulus/audwhat_stim/category_no.png,None,Category,None,Category,1,0.0,0,5.125,0,5.125,0,5.125,0,0.0,0.625,0,0,0,0,0,0,0,0,0,0.0,0,0.0,1,0.5,1,2.125,0,,,,,0,34,34,34,,,,,,,,,332.1318797920003,332.1318797920003,332.1318797920003,332.1318797920003,332.1318797920003,332.1318797920003,332.1318797920003,332.1318797920003,332.0489763333336,332.1318797920003,332.1318797920003,332.1318797920003,332.0489763333336,332.1318797920003,332.1318797920003,332.1318797920003,334.24601237499974,,332.1318797920003,332.1318797920003,337.3095173339998,332.1318797920003,332.1318797920003,332.1318797920003,332.1318797920003,332.6041409170002,333.6365665000003,332.57377433366696,,334.24601237499974,335.2887914590001,334.21505783366706,335.2887914590001,332.1318797920003,337.3095173339998,332.1318797920003,337.3095173339998,337.35104062499977,338.01239650000025,332.1318797920003,2,0,1.4794253319996642,reldom2_s005,001,2025-01-30_15h13.10.550,Aud-B-Scan_AC,2022.2.5,None,
27,First_Order,5.0,audwhat,stimulus/audwhat_stim/dummy.wav,stimulus/audwhat_stim/dummy.wav,stimulus/audwhat_stim/string cello_low-pitch_Dtri_loud.wav,stimulus/audwhat_stim/percussion mallet_low-pitch_Dtri_loud.wav,stimulus/audwhat_stim/blank_white.png,stimulus/audwhat_stim/pitch_box.png,stimulus/audwhat_stim/pitch_yes.png,stimulus/audwhat_stim/pitch_no.png,None,Pitch,None,Pitch,1,0.0,0,5.125,0,5.125,0,5.125,0,0.0,0.625,0,0,0,0,0,0,0,0,0,0.0,0,0.0,1,0.5,1,2.125,0,,,,,0,35,35,35,,,,,,,,,338.2300203340001,338.2300203340001,338.2300203340001,338.2300203340001,338.2300203340001,338.2300203340001,338.2300203340001,338.2300203340001,338.1457298333336,338.2300203340001,338.2300203340001,338.2300203340001,338.1457298333336,338.2300203340001,338.2300203340001,338.2300203340001,340.34141708400057,344.3485933339998,338.2300203340001,338.2300203340001,343.389596125,338.2300203340001,338.2300203340001,338.2300203340001,338.2300203340001,338.7033692920004,339.73412745899986,338.6734210836669,,340.34141708400057,341.37786416700055,340.3113564166672,,338.2300203340001,343.389596125,338.2300203340001,343.389596125,343.4309902499999,344.0906919170002,338.2300203340001,1,1,1.1837644159995762,reldom2_s005,001,2025-01-30_15h13.10.550,Aud-B-Scan_AC,2022.2.5,None,
28,First_Order,5.0,audwhat,stimulus/audwhat_stim/dummy.wav,stimulus/audwhat_stim/dummy.wav,stimulus/audwhat_stim/percussion xylophone_high-pitch_Ftri_loud.wav,stimulus/audwhat_stim/percussion mallet_low-pitch_F_loud.wav,stimulus/audwhat_stim/blank_white.png,stimulus/audwhat_stim/category_box.png,stimulus/audwhat_stim/category_yes.png,stimulus/audwhat_stim/category_no.png,None,Category,None,Category,1,0.0,0,5.125,0,5.125,0,5.125,0,0.0,0.625,0,0,0,0,0,0,0,0,0,0.0,0,0.0,1,0.5,1,2.125,0,,,,,0,36,36,36,,,,,,,,,344.3485933339998,344.3485933339998,344.3485933339998,344.3485933339998,344.3485933339998,344.3485933339998,344.3485933339998,344.3485933339998,344.2649427083335,344.3485933339998,344.3485933339998,344.3485933339998,344.2649427083335,344.3485933339998,344.3485933339998,344.3485933339998,346.42578470900025,,344.3485933339998,344.3485933339998,349.53239337500054,344.3485933339998,344.3485933339998,344.3485933339998,344.3485933339998,344.8215692499998,345.86021958400033,344.79104820866655,345.86021958400033,346.42578470900025,347.4625972499998,346.39397175066665,,344.3485933339998,349.53239337500054,344.3485933339998,349.53239337500054,349.5738774170004,350.2365646670005,344.3485933339998,1,1,1.5376038740005242,reldom2_s005,001,2025-01-30_15h13.10.550,Aud-B-Scan_AC,2022.2.5,None,
0,0.0,None,fixation,stimulus/audwhat_stim/blank_white.png,stimulus/audwhat_stim/blank_white.png,stimulus/audwhere_stim/blank_white.png,stimulus/audwhere_stim/blank_white.png,stimulus/audwhat_stim/blank_white.png,stimulus/audwhat_stim/blank_white.png,stimulus/audwhat_stim/blank_white.png,stimulus/audwhat_stim/blank_white.png,0.0,0.0,0.0,0.0,0,0.0,0,0.0,0,0.0,0,0.0,0,0.0,0.0,0,0,0,0,0,0,0,0,0,0.0,0,0.0,0,0.0,0,0.0,8,,,,,0,37,37,37,,,,,,,,,350.47815337500015,350.47815337500015,350.47815337500015,350.47815337500015,350.47815337500015,350.47815337500015,350.47815337500015,350.47815337500015,350.3698980003338,350.47815337500015,350.47815337500015,350.47815337500015,350.3698980003338,350.47815337500015,350.47815337500015,350.47815337500015,350.47815337500015,350.47815337500015,350.47815337500015,350.47815337500015,350.47815337500015,350.47815337500015,350.47815337500015,350.47815337500015,350.47815337500015,350.47815337500015,350.47815337500015,350.4365646670005,350.47815337500015,350.47815337500015,350.47815337500015,350.4365646670005,350.47815337500015,350.47815337500015,350.47815337500015,350.47815337500015,350.47815337500015,355.6803637089997,355.6803637089997,358.6455655,None,0,,reldom2_s005,001,2025-01-30_15h13.10.550,Aud-B-Scan_AC,2022.2.5,None,
29,Second_Order,5.0,audwhat,stimulus/audwhat_stim/string viola_low-pitch_Dtri_loud.wav,stimulus/audwhat_stim/percussion mallet_low-pitch_Dtri_loud.wav,stimulus/audwhat_stim/string viola_low-pitch_Dtri_loud.wav,stimulus/audwhat_stim/string cello_high-pitch_Ftri_loud.wav,stimulus/audwhat_stim/match_blank.png,stimulus/audwhat_stim/match_box.png,stimulus/audwhat_stim/match_yes.png,stimulus/audwhat_stim/match_no.png,2.0,Match,Pitch,Category,2,5.125,0,5.125,0,5.125,0,5.125,0,0.75,0.75,0,0,0,0,0,0,0,0,1,0.5,1,2.125,1,0.5,1,2.125,0,,,,,0,38,38,38,,,,,,,,,358.6455655,363.7598247920005,358.6455655,358.6455655,358.6455655,358.6455655,359.0988000839998,360.09687875000054,359.111242541667,,360.71938295900054,361.7172694589999,360.7316285416666,361.72686175000035,363.7598247920005,364.5901861250004,366.6950444590002,370.60136745900036,364.5901861250004,364.5901861250004,369.77994837500046,364.5901861250004,364.5901861250004,364.5901861250004,364.5901861250004,365.0577171670002,366.1313558749998,365.0275412086669,,366.6950444590002,367.7255386249999,366.66473612566665,,364.5901861250004,369.77994837500046,364.5901861250004,369.77994837500046,369.77994837500046,,364.5901861250004,1,0,2.1380858739994437,reldom2_s005,001,2025-01-30_15h13.10.550,Aud-B-Scan_AC,2022.2.5,None,
30,Second_Order,5.0,audwhat,stimulus/audwhat_stim/string viola_high-pitch_Ftri_loud.wav,stimulus/audwhat_stim/percussion xylophone_high-pitch_Ftri_loud.wav,stimulus/audwhat_stim/string viola_low-pitch_D_loud.wav,stimulus/audwhat_stim/percussion mallet_low-pitch_D_loud.wav,stimulus/audwhat_stim/match_blank.png,stimulus/audwhat_stim/match_box.png,stimulus/audwhat_stim/match_yes.png,stimulus/audwhat_stim/match_no.png,1.0,Match,Pitch,Pitch,1,5.125,0,5.125,0,5.125,0,5.125,0,0.625,0.625,0,0,0,0,0,0,0,0,1,0.5,1,2.125,1,0.5,1,2.125,0,,,,,0,39,39,39,,,,,,,,,370.60136745900036,375.72049487500044,370.60136745900036,370.60136745900036,370.60136745900036,370.60136745900036,371.05990566699984,372.0576156249999,371.0722140416667,,372.6807069590004,373.67813695899986,372.692766041667,373.68725079199976,375.72049487500044,376.4343992089998,378.5265212920003,,376.4343992089998,376.4343992089998,381.60295283400046,376.4343992089998,376.4343992089998,376.4343992089998,376.4343992089998,376.8966369999998,377.96644545900017,376.8666730006664,,378.5265212920003,379.59854445900055,378.4964077086672,,376.4343992089998,381.60295283400046,376.4343992089998,381.60295283400046,381.644200834,382.2980564589998,376.4343992089998,1,1,1.077135540999734,reldom2_s005,001,2025-01-30_15h13.10.550,Aud-B-Scan_AC,2022.2.5,None,
0,0.0,None,fixation,stimulus/audwhat_stim/blank_white.png,stimulus/audwhat_stim/blank_white.png,stimulus/audwhere_stim/blank_white.png,stimulus/audwhere_stim/blank_white.png,stimulus/audwhat_stim/blank_white.png,stimulus/audwhat_stim/blank_white.png,stimulus/audwhat_stim/blank_white.png,stimulus/audwhat_stim/blank_white.png,0.0,0.0,0.0,0.0,0,0.0,0,0.0,0,0.0,0,0.0,0,0.0,0.0,0,0,0,0,0,0,0,0,0,0.0,0,0.0,0,0.0,0,0.0,9,,,,,0,40,40,40,,,,,,,,,382.53587337499994,382.53587337499994,382.53587337499994,382.53587337499994,382.53587337499994,382.53587337499994,382.53587337499994,382.53587337499994,382.4313897923331,382.53587337499994,382.53587337499994,382.53587337499994,382.4313897923331,382.53587337499994,382.53587337499994,382.53587337499994,382.53587337499994,382.53587337499994,382.53587337499994,382.53587337499994,382.53587337499994,382.53587337499994,382.53587337499994,382.53587337499994,382.53587337499994,382.53587337499994,382.53587337499994,382.4813897923331,382.53587337499994,382.53587337499994,382.53587337499994,382.4813897923331,382.53587337499994,382.53587337499994,382.53587337499994,382.53587337499994,382.53587337499994,387.7372807920001,387.7372807920001,391.7962311250003,None,0,,reldom2_s005,001,2025-01-30_15h13.10.550,Aud-B-Scan_AC,2022.2.5,None,
31,First_Order,6.0,audwhat,stimulus/audwhat_stim/dummy.wav,stimulus/audwhat_stim/dummy.wav,stimulus/audwhat_stim/string viola_low-pitch_D_loud.wav,stimulus/audwhat_stim/percussion mallet_low-pitch_D_loud.wav,stimulus/audwhat_stim/blank_white.png,stimulus/audwhat_stim/category_box.png,stimulus/audwhat_stim/category_yes.png,stimulus/audwhat_stim/category_no.png,None,Category,None,Pitch,2,0.0,0,5.125,0,5.125,0,5.125,0,0.0,0.625,0,0,0,0,0,0,0,0,0,0.0,0,0.0,1,0.5,1,2.125,0,,,,,0,41,41,41,,,,,,,,,391.7962311250003,391.7962311250003,391.7962311250003,391.7962311250003,391.7962311250003,391.7962311250003,391.7962311250003,391.7962311250003,391.7191937916665,391.7962311250003,391.7962311250003,391.7962311250003,391.7191937916665,391.7962311250003,391.7962311250003,391.7962311250003,393.91275866700016,,391.7962311250003,391.7962311250003,396.9713548340005,391.7962311250003,391.7962311250003,391.7962311250003,391.7962311250003,392.2663596250004,393.30214312499993,392.2360986256665,,393.91275866700016,394.9521947920002,393.8824919166666,,391.7962311250003,396.9713548340005,391.7962311250003,396.9713548340005,397.012990792,397.67479616699984,391.7962311250003,2,1,0.8160621659999379,reldom2_s005,001,2025-01-30_15h13.10.550,Aud-B-Scan_AC,2022.2.5,None,
32,First_Order,6.0,audwhat,stimulus/audwhat_stim/dummy.wav,stimulus/audwhat_stim/dummy.wav,stimulus/audwhat_stim/percussion mallet_high-pitch_Dtri_loud.wav,stimulus/audwhat_stim/string viola_high-pitch_Dtri_loud.wav,stimulus/audwhat_stim/blank_white.png,stimulus/audwhat_stim/pitch_box.png,stimulus/audwhat_stim/pitch_yes.png,stimulus/audwhat_stim/pitch_no.png,None,Pitch,None,Pitch,1,0.0,0,5.125,0,5.125,0,5.125,0,0.0,0.625,0,0,0,0,0,0,0,0,0,0.0,0,0.0,1,0.5,1,2.125,0,,,,,0,42,42,42,,,,,,,,,397.8917156670004,397.8917156670004,397.8917156670004,397.8917156670004,397.8917156670004,397.8917156670004,397.8917156670004,397.8917156670004,397.80812950033317,397.8917156670004,397.8917156670004,397.8917156670004,397.80812950033317,397.8917156670004,397.8917156670004,397.8917156670004,400.00195033399996,404.0088025840005,397.8917156670004,397.8917156670004,403.04918479200023,397.8917156670004,397.8917156670004,397.8917156670004,397.8917156670004,398.3594499589999,399.3928083339997,398.3291524166664,,400.00195033399996,401.03670254200006,399.97139429166714,,397.8917156670004,403.04918479200023,397.8917156670004,403.04918479200023,403.0902635419998,403.75074820900045,397.8917156670004,1,1,1.1870041659994968,reldom2_s005,001,2025-01-30_15h13.10.550,Aud-B-Scan_AC,2022.2.5,None,
33,First_Order,6.0,audwhat,stimulus/audwhat_stim/dummy.wav,stimulus/audwhat_stim/dummy.wav,stimulus/audwhat_stim/string cello_high-pitch_D_loud.wav,stimulus/audwhat_stim/string viola_low-pitch_F_loud.wav,stimulus/audwhat_stim/blank_white.png,stimulus/audwhat_stim/pitch_box.png,stimulus/audwhat_stim/pitch_yes.png,stimulus/audwhat_stim/pitch_no.png,None,Pitch,None,Category,2,0.0,0,5.125,0,5.125,0,5.125,0,0.0,0.625,0,0,0,0,0,0,0,0,0,0.0,0,0.0,1,0.5,1,2.125,0,,,,,0,43,43,43,,,,,,,,,404.0088025840005,404.0088025840005,404.0088025840005,404.0088025840005,404.0088025840005,404.0088025840005,404.0088025840005,404.0088025840005,403.92520137533313,404.0088025840005,404.0088025840005,404.0088025840005,403.92520137533313,404.0088025840005,404.0088025840005,404.0088025840005,406.11559862500053,410.126055834,404.0088025840005,404.0088025840005,409.16670941699977,404.0088025840005,404.0088025840005,404.0088025840005,404.0088025840005,404.4789729590002,405.5089711669998,404.44822058366685,,406.11559862500053,407.15229620900027,406.08510041666636,,404.0088025840005,409.16670941699977,404.0088025840005,409.16670941699977,409.20794141700026,409.8683857920005,404.0088025840005,2,1,1.087168207999639,reldom2_s005,001,2025-01-30_15h13.10.550,Aud-B-Scan_AC,2022.2.5,None,
34,First_Order,6.0,audwhat,stimulus/audwhat_stim/dummy.wav,stimulus/audwhat_stim/dummy.wav,stimulus/audwhat_stim/percussion mallet_low-pitch_F_loud.wav,stimulus/audwhat_stim/string viola_low-pitch_F_loud.wav,stimulus/audwhat_stim/blank_white.png,stimulus/audwhat_stim/category_box.png,stimulus/audwhat_stim/category_yes.png,stimulus/audwhat_stim/category_no.png,None,Category,None,Pitch,2,0.0,0,5.125,0,5.125,0,5.125,0,0.0,0.625,0,0,0,0,0,0,0,0,0,0.0,0,0.0,1,0.5,1,2.125,0,,,,,0,44,44,44,,,,,,,,,410.126055834,410.126055834,410.126055834,410.126055834,410.126055834,410.126055834,410.126055834,410.126055834,410.04286333333323,410.126055834,410.126055834,410.126055834,410.04286333333323,410.126055834,410.126055834,410.126055834,412.2015819170001,,410.126055834,410.126055834,415.3138273750001,410.126055834,410.126055834,410.126055834,410.126055834,410.6000007499997,411.6362909999998,410.5690847086664,,412.2015819170001,413.2403505000002,412.1708552086668,,410.126055834,415.3138273750001,410.126055834,415.3138273750001,415.35571545899984,416.01717562500016,410.126055834,1,0,1.6086686239996197,reldom2_s005,001,2025-01-30_15h13.10.550,Aud-B-Scan_AC,2022.2.5,None,
0,0.0,None,fixation,stimulus/audwhat_stim/blank_white.png,stimulus/audwhat_stim/blank_white.png,stimulus/audwhere_stim/blank_white.png,stimulus/audwhere_stim/blank_white.png,stimulus/audwhat_stim/blank_white.png,stimulus/audwhat_stim/blank_white.png,stimulus/audwhat_stim/blank_white.png,stimulus/audwhat_stim/blank_white.png,0.0,0.0,0.0,0.0,0,0.0,0,0.0,0,0.0,0,0.0,0,0.0,0.0,0,0,0,0,0,0,0,0,0,0.0,0,0.0,0,0.0,0,0.0,9,,,,,0,45,45,45,,,,,,,,,416.25399350000043,416.25399350000043,416.25399350000043,416.25399350000043,416.25399350000043,416.25399350000043,416.25399350000043,416.25399350000043,416.1505089583335,416.25399350000043,416.25399350000043,416.25399350000043,416.1505089583335,416.25399350000043,416.25399350000043,416.25399350000043,416.25399350000043,416.25399350000043,416.25399350000043,416.25399350000043,416.25399350000043,416.25399350000043,416.25399350000043,416.25399350000043,416.25399350000043,416.25399350000043,416.25399350000043,416.2005089583335,416.25399350000043,416.25399350000043,416.25399350000043,416.2005089583335,416.25399350000043,416.25399350000043,416.25399350000043,416.25399350000043,416.25399350000043,421.4604300000001,421.4604300000001,425.39564775000053,None,0,,reldom2_s005,001,2025-01-30_15h13.10.550,Aud-B-Scan_AC,2022.2.5,None,
35,Second_Order,6.0,audwhat,stimulus/audwhat_stim/string cello_low-pitch_D_loud.wav,stimulus/audwhat_stim/percussion mallet_low-pitch_D_loud.wav,stimulus/audwhat_stim/percussion mallet_low-pitch_D_loud.wav,stimulus/audwhat_stim/percussion xylophone_high-pitch_Ftri_loud.wav,stimulus/audwhat_stim/match_blank.png,stimulus/audwhat_stim/match_box.png,stimulus/audwhat_stim/match_yes.png,stimulus/audwhat_stim/match_no.png,2.0,Match,Pitch,Category,2,5.125,0,5.125,0,5.125,0,5.125,0,0.75,0.75,0,0,0,0,0,0,0,0,1,0.5,1,2.125,1,0.5,1,2.125,0,,,,,0,46,46,46,,,,,,,,,425.39564775000053,430.51378937499976,425.39564775000053,425.39564775000053,425.39564775000053,425.39564775000053,425.8527254589999,426.8510617920001,425.8651626666672,,427.47369845899993,428.4713577090006,427.4856683336668,428.4794520000005,430.51378937499976,431.3443245839999,433.40521520899983,437.3600220420003,431.3443245839999,431.3443245839999,436.500257875,431.3443245839999,431.3443245839999,431.3443245839999,431.3443245839999,431.81155595900054,432.8430469590003,431.780788291667,,433.40521520899983,434.44530250000025,433.374538291667,434.44530250000025,431.3443245839999,436.500257875,431.3443245839999,436.500257875,436.54181520900056,,431.3443245839999,2,1,0.777669416000208,reldom2_s005,001,2025-01-30_15h13.10.550,Aud-B-Scan_AC,2022.2.5,None,
36,Second_Order,6.0,audwhat,stimulus/audwhat_stim/string cello_low-pitch_Dtri_loud.wav,stimulus/audwhat_stim/percussion mallet_low-pitch_Dtri_loud.wav,stimulus/audwhat_stim/string viola_high-pitch_F_loud.wav,stimulus/audwhat_stim/percussion xylophone_high-pitch_F_loud.wav,stimulus/audwhat_stim/match_blank.png,stimulus/audwhat_stim/match_box.png,stimulus/audwhat_stim/match_yes.png,stimulus/audwhat_stim/match_no.png,1.0,Match,Pitch,Pitch,1,5.125,0,5.125,0,5.125,0,5.125,0,0.625,0.625,0,0,0,0,0,0,0,0,1,0.5,1,2.125,1,0.5,1,2.125,0,,,,,0,47,47,47,,,,,,,,,437.3600220420003,442.47439674999987,437.3600220420003,437.3600220420003,437.3600220420003,437.3600220420003,437.813659292,438.8115548750002,437.8260422916667,,439.43453212500026,440.43182258399975,439.44661908366675,440.43941483399976,442.47439674999987,443.19092,445.2858228750001,,443.19092,443.19092,448.3625029169998,443.19092,443.19092,443.19092,443.19092,443.65324058399983,444.7260149170006,443.62408200066716,,445.2858228750001,446.36249425000005,445.2554019586671,446.31600654199974,443.19092,448.3625029169998,443.19092,448.3625029169998,448.40552941700025,449.0620442500003,443.19092,1,1,1.0809641249998094,reldom2_s005,001,2025-01-30_15h13.10.550,Aud-B-Scan_AC,2022.2.5,None,
0,0.0,None,fixation,stimulus/audwhat_stim/blank_white.png,stimulus/audwhat_stim/blank_white.png,stimulus/audwhere_stim/blank_white.png,stimulus/audwhere_stim/blank_white.png,stimulus/audwhat_stim/blank_white.png,stimulus/audwhat_stim/blank_white.png,stimulus/audwhat_stim/blank_white.png,stimulus/audwhat_stim/blank_white.png,0.0,0.0,0.0,0.0,0,0.0,0,0.0,0,0.0,0,0.0,0,0.0,0.0,0,0,0,0,0,0,0,0,0,0.0,0,0.0,0,0.0,0,0.0,10,,,,,0,48,48,48,,,,,,,,,449.29875679199995,449.29875679199995,449.29875679199995,449.29875679199995,449.29875679199995,449.29875679199995,449.29875679199995,449.29875679199995,449.19537758333365,449.29875679199995,449.29875679199995,449.29875679199995,449.19537758333365,449.29875679199995,449.29875679199995,449.29875679199995,449.29875679199995,449.29875679199995,449.29875679199995,449.29875679199995,449.29875679199995,449.29875679199995,449.29875679199995,449.29875679199995,449.29875679199995,449.29875679199995,449.29875679199995,449.24537758333366,449.29875679199995,449.29875679199995,449.29875679199995,449.24537758333366,449.29875679199995,449.29875679199995,449.29875679199995,449.29875679199995,449.29875679199995,454.5078737499998,454.5078737499998,459.5449766669999,None,0,,reldom2_s005,001,2025-01-30_15h13.10.550,Aud-B-Scan_AC,2022.2.5,None,
37,First_Order,7.0,audwhere,stimulus/audwhere_stim/dummy.wav,stimulus/audwhere_stim/dummy.wav,stimulus/audwhere_stim/right_toward_300h.wav,stimulus/audwhere_stim/left_toward_290h.wav,stimulus/audwhere_stim/blank_white.png,stimulus/audwhere_stim/direction_box.png,stimulus/audwhere_stim/direction_yes.png,stimulus/audwhere_stim/direction_no.png,None,Direction,None,Direction,1,0.0,0,5.125,0,5.125,0,5.125,0,0.0,0.625,0,0,0,0,0,0,0,0,0,0.0,0,0.0,1,0.5,1,2.125,0,,,,,0,49,49,49,,,,,,,,,459.5449766669999,459.5449766669999,459.5449766669999,459.5449766669999,459.5449766669999,459.5449766669999,459.5449766669999,459.5449766669999,459.46999812566685,459.5449766669999,459.5449766669999,459.5449766669999,459.46999812566685,459.5449766669999,459.5449766669999,459.5449766669999,461.61905775000014,,459.5449766669999,459.5449766669999,464.7326801250001,459.5449766669999,459.5449766669999,459.5449766669999,459.5449766669999,460.01541645900033,461.05432145899977,459.98502870866673,,461.61905775000014,462.66183091699986,461.588229416667,,459.5449766669999,464.7326801250001,459.5449766669999,464.7326801250001,464.773910334,465.43463175000034,459.5449766669999,1,1,1.5670206659997348,reldom2_s005,001,2025-01-30_15h13.10.550,Aud-B-Scan_AC,2022.2.5,None,
38,First_Order,7.0,audwhere,stimulus/audwhere_stim/dummy.wav,stimulus/audwhere_stim/dummy.wav,stimulus/audwhere_stim/right_toward_290h.wav,stimulus/audwhere_stim/right_away_270h.wav,stimulus/audwhere_stim/blank_white.png,stimulus/audwhere_stim/side_box.png,stimulus/audwhere_stim/side_yes.png,stimulus/audwhere_stim/side_no.png,None,Side,None,Side,1,0.0,0,5.125,0,5.125,0,5.125,0,0.0,0.625,0,0,0,0,0,0,0,0,0,0.0,0,0.0,1,0.5,1,2.125,0,,,,,0,50,50,50,,,,,,,,,465.6493466669999,465.6493466669999,465.6493466669999,465.6493466669999,465.6493466669999,465.6493466669999,465.6493466669999,465.6493466669999,465.56796508333366,465.6493466669999,465.6493466669999,465.6493466669999,465.56796508333366,465.6493466669999,465.6493466669999,465.6493466669999,467.76332749999983,471.7646756670001,465.6493466669999,465.6493466669999,470.8088982500003,465.6493466669999,465.6493466669999,465.6493466669999,465.6493466669999,466.12053483399995,467.1534078750001,466.08935070866687,,467.76332749999983,468.79527362499994,467.73303745866656,,465.6493466669999,470.8088982500003,465.6493466669999,470.8088982500003,470.8503022920004,471.5083042920005,465.6493466669999,1,1,1.1582221239996215,reldom2_s005,001,2025-01-30_15h13.10.550,Aud-B-Scan_AC,2022.2.5,None,
39,First_Order,7.0,audwhere,stimulus/audwhere_stim/dummy.wav,stimulus/audwhere_stim/dummy.wav,stimulus/audwhere_stim/left_away_290h.wav,stimulus/audwhere_stim/left_toward_290h.wav,stimulus/audwhere_stim/blank_white.png,stimulus/audwhere_stim/direction_box.png,stimulus/audwhere_stim/direction_yes.png,stimulus/audwhere_stim/direction_no.png,None,Direction,None,Side,2,0.0,0,5.125,0,5.125,0,5.125,0,0.0,0.625,0,0,0,0,0,0,0,0,0,0.0,0,0.0,1,0.5,1,2.125,0,,,,,0,51,51,51,,,,,,,,,471.7646756670001,471.7646756670001,471.7646756670001,471.7646756670001,471.7646756670001,471.7646756670001,471.7646756670001,471.7646756670001,471.68306541733375,471.7646756670001,471.7646756670001,471.7646756670001,471.68306541733375,471.7646756670001,471.7646756670001,471.7646756670001,473.8424874170005,477.88273800000024,471.7646756670001,471.7646756670001,476.95815716700054,471.7646756670001,471.7646756670001,471.7646756670001,471.7646756670001,472.23553900000024,473.27587250000033,472.2045406256668,,473.8424874170005,474.88474354200025,473.8116612916667,,471.7646756670001,476.95815716700054,471.7646756670001,476.95815716700054,476.95815716700054,477.6261929170005,471.7646756670001,2,1,0.9273248319996128,reldom2_s005,001,2025-01-30_15h13.10.550,Aud-B-Scan_AC,2022.2.5,None,
40,First_Order,7.0,audwhere,stimulus/audwhere_stim/dummy.wav,stimulus/audwhere_stim/dummy.wav,stimulus/audwhere_stim/right_away_280h.wav,stimulus/audwhere_stim/right_toward_290h.wav,stimulus/audwhere_stim/blank_white.png,stimulus/audwhere_stim/direction_box.png,stimulus/audwhere_stim/direction_yes.png,stimulus/audwhere_stim/direction_no.png,None,Direction,None,Side,2,0.0,0,5.125,0,5.125,0,5.125,0,0.0,0.625,0,0,0,0,0,0,0,0,0,0.0,0,0.0,1,0.5,1,2.125,0,,,,,0,52,52,52,,,,,,,,,477.88273800000024,477.88273800000024,477.88273800000024,477.88273800000024,477.88273800000024,477.88273800000024,477.88273800000024,477.88273800000024,477.80095029233337,477.88273800000024,477.88273800000024,477.88273800000024,477.80095029233337,477.88273800000024,477.88273800000024,477.88273800000024,479.96234895900034,,477.88273800000024,477.88273800000024,483.0318497919998,477.88273800000024,477.88273800000024,477.88273800000024,477.88273800000024,478.3549155420005,479.3957526670001,478.3244842086672,,479.96234895900034,481.0042494999998,479.9316128756666,,477.88273800000024,483.0318497919998,477.88273800000024,483.0318497919998,483.0737509999999,483.7373331250001,477.88273800000024,2,1,1.778597873999388,reldom2_s005,001,2025-01-30_15h13.10.550,Aud-B-Scan_AC,2022.2.5,None,
0,0.0,None,fixation,stimulus/audwhat_stim/blank_white.png,stimulus/audwhat_stim/blank_white.png,stimulus/audwhere_stim/blank_white.png,stimulus/audwhere_stim/blank_white.png,stimulus/audwhat_stim/blank_white.png,stimulus/audwhat_stim/blank_white.png,stimulus/audwhat_stim/blank_white.png,stimulus/audwhat_stim/blank_white.png,0.0,0.0,0.0,0.0,0,0.0,0,0.0,0,0.0,0,0.0,0,0.0,0.0,0,0,0,0,0,0,0,0,0,0.0,0,0.0,0,0.0,0,0.0,8,,,,,0,53,53,53,,,,,,,,,484.01807525000004,484.01807525000004,484.01807525000004,484.01807525000004,484.01807525000004,484.01807525000004,484.01807525000004,484.01807525000004,483.9123262083332,484.01807525000004,484.01807525000004,484.01807525000004,483.9123262083332,484.01807525000004,484.01807525000004,484.01807525000004,484.01807525000004,484.01807525000004,484.01807525000004,484.01807525000004,484.01807525000004,484.01807525000004,484.01807525000004,484.01807525000004,484.01807525000004,484.01807525000004,484.01807525000004,483.9623262083332,484.01807525000004,484.01807525000004,484.01807525000004,483.9623262083332,484.01807525000004,484.01807525000004,484.01807525000004,484.01807525000004,484.01807525000004,489.2352035419999,489.2352035419999,492.197802875,None,0,,reldom2_s005,001,2025-01-30_15h13.10.550,Aud-B-Scan_AC,2022.2.5,None,
41,Second_Order,7.0,audwhere,stimulus/audwhere_stim/left_toward_300h.wav,stimulus/audwhere_stim/right_toward_280h.wav,stimulus/audwhere_stim/right_toward_270h.wav,stimulus/audwhere_stim/right_away_290h.wav,stimulus/audwhat_stim/match_blank.png,stimulus/audwhat_stim/match_box.png,stimulus/audwhat_stim/match_yes.png,stimulus/audwhat_stim/match_no.png,2.0,Match,Direction,Side,2,5.125,0,5.125,0,5.125,0,5.125,0,0.75,0.75,0,0,0,0,0,0,0,0,1,0.5,1,2.125,1,0.5,1,2.125,0,,,,,0,54,54,54,,,,,,,,,492.197802875,497.3191993340006,492.197802875,492.197802875,492.197802875,492.197802875,492.6556654590004,493.6417435000003,492.6688629586672,493.66323970899975,494.2781151250001,495.27591937499983,494.2899480006665,495.2855126250006,497.3191993340006,498.1507445420002,500.2116491249999,504.16913900000054,498.1507445420002,498.1507445420002,503.30888029200014,498.1507445420002,498.1507445420002,498.1507445420002,498.1507445420002,498.61964575,499.6510715840004,498.58922179166643,,500.2116491249999,501.2468152090005,500.1815081256666,,498.1507445420002,503.30888029200014,498.1507445420002,503.30888029200014,503.34984304200043,,498.1507445420002,2,1,1.3396741659998952,reldom2_s005,001,2025-01-30_15h13.10.550,Aud-B-Scan_AC,2022.2.5,None,
42,Second_Order,7.0,audwhere,stimulus/audwhere_stim/right_toward_290h.wav,stimulus/audwhere_stim/left_toward_270h.wav,stimulus/audwhere_stim/left_toward_290h.wav,stimulus/audwhere_stim/left_away_280h.wav,stimulus/audwhat_stim/match_blank.png,stimulus/audwhat_stim/match_box.png,stimulus/audwhat_stim/match_yes.png,stimulus/audwhat_stim/match_no.png,2.0,Match,Direction,Side,2,5.125,0,5.125,0,5.125,0,5.125,0,0.625,0.625,0,0,0,0,0,0,0,0,1,0.5,1,2.125,1,0.5,1,2.125,0,,,,,0,55,55,55,,,,,,,,,504.16913900000054,509.2908734170005,504.16913900000054,504.16913900000054,504.16913900000054,504.16913900000054,504.61760391700045,505.615586375,504.63020050066666,505.6237146250005,506.25093712499984,507.2398463340005,506.25503020866677,507.2526334590002,509.2908734170005,510.0037522499997,512.1007275840002,,510.0037522499997,510.0037522499997,515.1819917920002,510.0037522499997,510.0037522499997,510.0037522499997,510.0037522499997,510.4689847090003,511.5420666250002,510.4390264586666,,512.1007275840002,513.1738215840005,512.071332458667,,510.0037522499997,515.1819917920002,510.0037522499997,515.1819917920002,515.223191,515.8807148750002,510.0037522499997,2,1,1.100047915999312,reldom2_s005,001,2025-01-30_15h13.10.550,Aud-B-Scan_AC,2022.2.5,None,
0,0.0,None,fixation,stimulus/audwhat_stim/blank_white.png,stimulus/audwhat_stim/blank_white.png,stimulus/audwhere_stim/blank_white.png,stimulus/audwhere_stim/blank_white.png,stimulus/audwhat_stim/blank_white.png,stimulus/audwhat_stim/blank_white.png,stimulus/audwhat_stim/blank_white.png,stimulus/audwhat_stim/blank_white.png,0.0,0.0,0.0,0.0,0,0.0,0,0.0,0,0.0,0,0.0,0,0.0,0.0,0,0,0,0,0,0,0,0,0,0.0,0,0.0,0,0.0,0,0.0,10,,,,,0,56,56,56,,,,,,,,,516.1167635000002,516.1167635000002,516.1167635000002,516.1167635000002,516.1167635000002,516.1167635000002,516.1167635000002,516.1167635000002,516.0140482083335,516.1167635000002,516.1167635000002,516.1167635000002,516.0140482083335,516.1167635000002,516.1167635000002,516.1167635000002,516.1167635000002,516.1167635000002,516.1167635000002,516.1167635000002,516.1167635000002,516.1167635000002,516.1167635000002,516.1167635000002,516.1167635000002,516.1167635000002,516.1167635000002,516.0640482083335,516.1167635000002,516.1167635000002,516.1167635000002,516.0640482083335,516.1167635000002,516.1167635000002,516.1167635000002,516.1167635000002,516.1167635000002,521.3418898750006,521.3418898750006,526.3779584590002,None,0,,reldom2_s005,001,2025-01-30_15h13.10.550,Aud-B-Scan_AC,2022.2.5,None,
43,First_Order,8.0,audwhere,stimulus/audwhere_stim/dummy.wav,stimulus/audwhere_stim/dummy.wav,stimulus/audwhere_stim/right_toward_270h.wav,stimulus/audwhere_stim/left_toward_300h.wav,stimulus/audwhere_stim/blank_white.png,stimulus/audwhere_stim/side_box.png,stimulus/audwhere_stim/side_yes.png,stimulus/audwhere_stim/side_no.png,None,Side,None,Direction,2,0.0,0,5.125,0,5.125,0,5.125,0,0.0,0.625,0,0,0,0,0,0,0,0,0,0.0,0,0.0,1,0.5,1,2.125,0,,,,,0,57,57,57,,,,,,,,,526.3779584590002,526.3779584590002,526.3779584590002,526.3779584590002,526.3779584590002,526.3779584590002,526.3779584590002,526.3779584590002,526.3032797086668,526.3779584590002,526.3779584590002,526.3779584590002,526.3032797086668,526.3779584590002,526.3779584590002,526.3779584590002,528.4870466250004,,526.3779584590002,526.3779584590002,531.5334167090004,526.3779584590002,526.3779584590002,526.3779584590002,526.3779584590002,526.8486927499998,527.9233608750001,526.8181685836664,,528.4870466250004,529.5225194590003,528.4563746666665,,526.3779584590002,531.5334167090004,526.3779584590002,531.5334167090004,531.5743615840001,532.2323022500004,526.3779584590002,2,1,0.4961603739993734,reldom2_s005,001,2025-01-30_15h13.10.550,Aud-B-Scan_AC,2022.2.5,None,
44,First_Order,8.0,audwhere,stimulus/audwhere_stim/dummy.wav,stimulus/audwhere_stim/dummy.wav,stimulus/audwhere_stim/right_toward_270h.wav,stimulus/audwhere_stim/left_toward_280h.wav,stimulus/audwhere_stim/blank_white.png,stimulus/audwhere_stim/side_box.png,stimulus/audwhere_stim/side_yes.png,stimulus/audwhere_stim/side_no.png,None,Side,None,Direction,2,0.0,0,5.125,0,5.125,0,5.125,0,0.0,0.625,0,0,0,0,0,0,0,0,0,0.0,0,0.0,1,0.5,1,2.125,0,,,,,0,58,58,58,,,,,,,,,532.4903915000004,532.4903915000004,532.4903915000004,532.4903915000004,532.4903915000004,532.4903915000004,532.4903915000004,532.4903915000004,532.4067682083333,532.4903915000004,532.4903915000004,532.4903915000004,532.4067682083333,532.4903915000004,532.4903915000004,532.4903915000004,534.5999418749998,538.6155624170005,532.4903915000004,532.4903915000004,537.6533843750003,532.4903915000004,532.4903915000004,532.4903915000004,532.4903915000004,532.9590515,533.9910923340003,532.9284800416665,,534.5999418749998,535.6361195420004,534.5695516256667,,532.4903915000004,537.6533843750003,532.4903915000004,537.6533843750003,537.6950299170003,538.3567739170003,532.4903915000004,2,1,0.6976981660000092,reldom2_s005,001,2025-01-30_15h13.10.550,Aud-B-Scan_AC,2022.2.5,None,
45,First_Order,8.0,audwhere,stimulus/audwhere_stim/dummy.wav,stimulus/audwhere_stim/dummy.wav,stimulus/audwhere_stim/right_toward_270h.wav,stimulus/audwhere_stim/left_toward_290h.wav,stimulus/audwhere_stim/blank_white.png,stimulus/audwhere_stim/direction_box.png,stimulus/audwhere_stim/direction_yes.png,stimulus/audwhere_stim/direction_no.png,None,Direction,None,Direction,1,0.0,0,5.125,0,5.125,0,5.125,0,0.0,0.625,0,0,0,0,0,0,0,0,0,0.0,0,0.0,1,0.5,1,2.125,0,,,,,0,59,59,59,,,,,,,,,538.6155624170005,538.6155624170005,538.6155624170005,538.6155624170005,538.6155624170005,538.6155624170005,538.6155624170005,538.6155624170005,538.5324957083332,538.6155624170005,538.6155624170005,538.6155624170005,538.5324957083332,538.6155624170005,538.6155624170005,538.6155624170005,540.6973049590006,544.7343967090001,538.6155624170005,538.6155624170005,543.7697592089999,538.6155624170005,538.6155624170005,538.6155624170005,538.6155624170005,539.089169459,540.1279150420005,539.058614083667,,540.6973049590006,541.7377231250002,540.6663885006667,,538.6155624170005,543.7697592089999,538.6155624170005,543.7697592089999,543.811307334,544.4761161670003,538.6155624170005,1,1,1.3963162079999165,reldom2_s005,001,2025-01-30_15h13.10.550,Aud-B-Scan_AC,2022.2.5,None,
46,First_Order,8.0,audwhere,stimulus/audwhere_stim/dummy.wav,stimulus/audwhere_stim/dummy.wav,stimulus/audwhere_stim/left_away_300h.wav,stimulus/audwhere_stim/left_toward_300h.wav,stimulus/audwhere_stim/blank_white.png,stimulus/audwhere_stim/side_box.png,stimulus/audwhere_stim/side_yes.png,stimulus/audwhere_stim/side_no.png,None,Side,None,Side,1,0.0,0,5.125,0,5.125,0,5.125,0,0.0,0.625,0,0,0,0,0,0,0,0,0,0.0,0,0.0,1,0.5,1,2.125,0,,,,,0,60,60,60,,,,,,,,,544.7343967090001,544.7343967090001,544.7343967090001,544.7343967090001,544.7343967090001,544.7343967090001,544.7343967090001,544.7343967090001,544.6512387923332,544.7343967090001,544.7343967090001,544.7343967090001,544.6512387923332,544.7343967090001,544.7343967090001,544.7343967090001,546.849459,550.8867003340001,544.7343967090001,544.7343967090001,549.9036722090004,544.7343967090001,544.7343967090001,544.7343967090001,544.7343967090001,545.2057618750005,546.2383735000003,545.1751697506672,,546.849459,547.8871584999997,546.8191853756664,,544.7343967090001,549.9036722090004,544.7343967090001,549.9036722090004,549.9453967090003,550.607481,544.7343967090001,1,1,0.5308621659996788,reldom2_s005,001,2025-01-30_15h13.10.550,Aud-B-Scan_AC,2022.2.5,None,
0,0.0,None,fixation,stimulus/audwhat_stim/blank_white.png,stimulus/audwhat_stim/blank_white.png,stimulus/audwhere_stim/blank_white.png,stimulus/audwhere_stim/blank_white.png,stimulus/audwhat_stim/blank_white.png,stimulus/audwhat_stim/blank_white.png,stimulus/audwhat_stim/blank_white.png,stimulus/audwhat_stim/blank_white.png,0.0,0.0,0.0,0.0,0,0.0,0,0.0,0,0.0,0,0.0,0,0.0,0.0,0,0,0,0,0,0,0,0,0,0.0,0,0.0,0,0.0,0,0.0,9,,,,,0,61,61,61,,,,,,,,,550.8867003340001,550.8867003340001,550.8867003340001,550.8867003340001,550.8867003340001,550.8867003340001,550.8867003340001,550.8867003340001,550.7821270833339,550.8867003340001,550.8867003340001,550.8867003340001,550.7821270833339,550.8867003340001,550.8867003340001,550.8867003340001,550.8867003340001,550.8867003340001,550.8867003340001,550.8867003340001,550.8867003340001,550.8867003340001,550.8867003340001,550.8867003340001,550.8867003340001,550.8867003340001,550.8867003340001,550.8321270833338,550.8867003340001,550.8867003340001,550.8867003340001,550.8321270833338,550.8867003340001,550.8867003340001,550.8867003340001,550.8867003340001,550.8867003340001,556.0887516250004,556.0887516250004,560.0265737500004,None,0,,reldom2_s005,001,2025-01-30_15h13.10.550,Aud-B-Scan_AC,2022.2.5,None,
47,Second_Order,8.0,audwhere,stimulus/audwhere_stim/right_away_300h.wav,stimulus/audwhere_stim/right_toward_270h.wav,stimulus/audwhere_stim/left_away_280h.wav,stimulus/audwhere_stim/left_toward_270h.wav,stimulus/audwhat_stim/match_blank.png,stimulus/audwhat_stim/match_box.png,stimulus/audwhat_stim/match_yes.png,stimulus/audwhat_stim/match_no.png,1.0,Match,Side,Side,1,5.125,0,5.125,0,5.125,0,5.125,0,0.75,0.75,0,0,0,0,0,0,0,0,1,0.5,1,2.125,1,0.5,1,2.125,0,,,,,0,62,62,62,,,,,,,,,560.0265737500004,565.1409430000003,560.0265737500004,560.0265737500004,560.0265737500004,560.0265737500004,560.4799437920001,561.4783020840005,560.4924846256665,561.4861859590001,562.1015317920001,563.0983518339999,562.1129422506667,563.1067330420001,565.1409430000003,565.9721938339999,568.0346478749998,571.9911257920003,565.9721938339999,565.9721938339999,571.1285295839998,565.9721938339999,565.9721938339999,565.9721938339999,565.9721938339999,566.4416720420004,567.4744705840003,566.4112042086665,,568.0346478749998,569.0690330420002,568.0042677086669,,565.9721938339999,571.1285295839998,565.9721938339999,571.1285295839998,571.1702419170006,,565.9721938339999,1,1,1.015006374999757,reldom2_s005,001,2025-01-30_15h13.10.550,Aud-B-Scan_AC,2022.2.5,None,
48,Second_Order,8.0,audwhere,stimulus/audwhere_stim/right_toward_270h.wav,stimulus/audwhere_stim/right_away_270h.wav,stimulus/audwhere_stim/left_away_280h.wav,stimulus/audwhere_stim/left_toward_290h.wav,stimulus/audwhat_stim/match_blank.png,stimulus/audwhat_stim/match_box.png,stimulus/audwhat_stim/match_yes.png,stimulus/audwhat_stim/match_no.png,1.0,Match,Side,Side,1,5.125,0,5.125,0,5.125,0,5.125,0,0.625,0.625,0,0,0,0,0,0,0,0,1,0.5,1,2.125,1,0.5,1,2.125,0,,,,,0,63,63,63,,,,,,,,,571.9911257920003,577.1142336250005,571.9911257920003,571.9911257920003,571.9911257920003,571.9911257920003,572.4402047499998,573.4386959170006,572.4533154166668,573.4472569999998,574.0737235420002,575.0625467919999,574.076951375667,575.0759158749997,577.1142336250005,577.8283764170001,579.9303059169997,,577.8283764170001,577.8283764170001,583.0168510419999,577.8283764170001,577.8283764170001,577.8283764170001,577.8283764170001,578.294311875,579.3249215420001,578.2639339586669,,579.9303059169997,580.9630108749998,579.9001920836665,,577.8283764170001,583.0168510419999,577.8283764170001,583.0168510419999,583.0168510419999,583.6718140840003,577.8283764170001,1,1,0.5899887909999961,reldom2_s005,001,2025-01-30_15h13.10.550,Aud-B-Scan_AC,2022.2.5,None,
0,0.0,None,fixation,stimulus/audwhat_stim/blank_white.png,stimulus/audwhat_stim/blank_white.png,stimulus/audwhere_stim/blank_white.png,stimulus/audwhere_stim/blank_white.png,stimulus/audwhat_stim/blank_white.png,stimulus/audwhat_stim/blank_white.png,stimulus/audwhat_stim/blank_white.png,stimulus/audwhat_stim/blank_white.png,0.0,0.0,0.0,0.0,0,0.0,0,0.0,0,0.0,0,0.0,0,0.0,0.0,0,0,0,0,0,0,0,0,0,0.0,0,0.0,0,0.0,0,0.0,16,,,,,0,64,64,64,,,,,,,,,583.95334,583.95334,583.95334,583.95334,583.95334,583.95334,583.95334,583.95334,583.8466150423338,583.95334,583.95334,583.95334,583.8466150423338,583.95334,583.95334,583.95334,583.95334,583.95334,583.95334,583.95334,583.95334,583.95334,583.95334,583.95334,583.95334,583.95334,583.95334,583.9132817090004,583.95334,583.95334,583.95334,583.9132817090004,583.95334,583.95334,583.95334,583.95334,583.95334,589.174607209,589.174607209,600.1017713749998,None,0,,reldom2_s005,001,2025-01-30_15h13.10.550,Aud-B-Scan_AC,2022.2.5,None,
