Trial,Order,Block,Type,Stimuli_File1,Stimuli_File2,Stimuli_File3,Stimuli_File4,Cue_File1,Cue_File2,Response_File_Yes,Response_File_No,Match,Cue_Dimension,Pair1_Dimension,Pair2_Dimension,Key,Cue1_Duration,Cue1_Onset,Cue2_Duration,Cue2_Onset,ResponseYes_Duration,ResponseYes_Onset,ResponseNo_Duration,ResponseNo_Onset,ITI_Within,ITI_Between,Image1_Duration,Image1_Onset,Image2_Duration,Image2_Onset,Image3_Duration,Image3_Onset,Image4_Duration,Image4_Onset,Sound1_Duration,Sound1_Onset,Sound2_Duration,Sound2_Onset,Sound3_Duration,Sound3_Onset,Sound4_Duration,Sound4_Onset,Fixation_Duration,trials_2.thisRepN,trials_2.thisTrialN,trials_2.thisN,trials_2.thisIndex,trials.thisRepN,trials.thisTrialN,trials.thisN,trials.thisIndex,text_start.started,key_resp_start.started,key_resp_start.keys,key_resp_start.rt,cue_file1.started,cue_file1.stopped,image_1.started,image_1.stopped,image_2.started,image_2.stopped,sound_icon1.started,sound_icon1.stopped,sound_1.started,sound_1.stopped,sound_icon2.started,sound_icon2.stopped,sound_2.started,sound_2.stopped,image_blank_1.started,image_blank_1.stopped,key_press.started,key_press.stopped,fixation_text.started,cue_file2.started,cue_file2.stopped,image_3.started,image_3.stopped,image_4.started,image_4.stopped,sound_icon3.started,sound_icon3.stopped,sound_3.started,sound_3.stopped,sound_icon4.started,sound_icon4.stopped,sound_4.started,sound_4.stopped,response_yes.started,response_yes.stopped,response_no.started,response_no.stopped,iti_blank.started,iti_blank.stopped,fixation_text.stopped,key_press.keys,key_press.corr,key_press.rt,text_score.started,participant,session,date,expName,psychopyVersion,frameRate,
,,,,,,,,,,,,,,,,,,,,,,,,,,,,,,,,,,,,,,,,,,,,,,,,,,,,11.842414875049144,11.842414875049144,2,7.940828001010232,,,,,,,,,,,,,,,,,,,,,,,,,,,,,,,,,,,,,,,,,,,,,reldom2_s005,001,2025-01-30_14h33.08.096,practice_test2_AC,2022.2.5,None,
,,,,,,,,,,,,,,,,,,,,,,,,,,,,,,,,,,,,,,,,,,,,0,0,0,0,,,,,,,,,,,,,,,,,,,,,,,,,,,,,,,,,,,,,,,,,,,,,,,,,,,,,reldom2_s005,001,2025-01-30_14h33.08.096,practice_test2_AC,2022.2.5,None,
,,,,,,,,,,,,,,,,,,,,,,,,,,,,,,,,,,,,,,,,,,,,1,0,1,0,,,,,,,,,,,,,,,,,,,,,,,,,,,,,,,,,,,,,,,,,,,,,,,,,,,,,reldom2_s005,001,2025-01-30_14h33.08.096,practice_test2_AC,2022.2.5,None,
,,,,,,,,,,,,,,,,,,,,,,,,,,,,,,,,,,,,,,,,,,,,2,0,2,0,,,,,,,,,,,,,,,,,,,,,,,,,,,,,,,,,,,,,,,,,,,,,,,,,,,,,reldom2_s005,001,2025-01-30_14h33.08.096,practice_test2_AC,2022.2.5,None,
,,,,,,,,,,,,,,,,,,,,,,,,,,,,,,,,,,,,,,,,,,,,3,0,3,0,,,,,,,,,,,,,,,,,,,,,,,,,,,,,,,,,,,,,,,,,,,,,,,,,,,,,reldom2_s005,001,2025-01-30_14h33.08.096,practice_test2_AC,2022.2.5,None,
0,0.0,None,fixation,stimulus/viswhat_stim/blank_white.png,stimulus/viswhat_stim/blank_white.png,stimulus/audwhat_stim/blank_white.png,stimulus/audwhat_stim/blank_white.png,stimulus/viswhat_stim/blank_white.png,stimulus/viswhat_stim/blank_white.png,stimulus/viswhat_stim/blank_white.png,stimulus/viswhat_stim/blank_white.png,0.0,0.0,0.0,0.0,0,0.0,0,0.0,0,0.0,0,0.0,0,0.0,0.0,0,0.0,0,0.0,0,0.0,0,0.0,0,0.0,0,0.0,0,0.0,0,0.0,6,,,,,0,0,0,0,,,,,20.04223995807115,20.04223995807115,20.04223995807115,20.04223995807115,20.04223995807115,20.04223995807115,20.04223995807115,20.04223995807115,19.921735624348123,20.04223995807115,20.04223995807115,20.04223995807115,19.921735624348123,20.04223995807115,20.04223995807115,20.04223995807115,20.04223995807115,20.04223995807115,20.04223995807115,20.04223995807115,20.04223995807115,20.04223995807115,20.04223995807115,20.04223995807115,20.04223995807115,20.04223995807115,20.04223995807115,19.98840229101479,20.04223995807115,20.04223995807115,20.04223995807115,19.98840229101479,20.04223995807115,20.04223995807115,20.04223995807115,20.04223995807115,20.04223995807115,25.238158916006796,25.238158916006796,26.30179300007876,None,0,,,reldom2_s005,001,2025-01-30_14h33.08.096,practice_test2_AC,2022.2.5,None,
1,First_Order,1.0,viswhat,stimulus/viswhat_stim/blank_white.png,stimulus/viswhat_stim/blank_white.png,stimulus/viswhat_stim/land_vehicle-vespa.png,stimulus/viswhat_stim/water_vehicle-yacht.png,stimulus/viswhat_stim/blank_white.png,stimulus/viswhat_stim/type_box.png,stimulus/viswhat_stim/type_yes.png,stimulus/viswhat_stim/type_no.png,None,Type,None,Type,1,0.0,0,5.25,0,5.25,0,5.25,0,0.0,0.75,0,0.0,0,0.0,1,0.5,1,2.125,0,0.0,0,0.0,0,0.0,0,0.0,0,,,,,0,1,1,1,,,,,26.30179300007876,26.30179300007876,26.30179300007876,26.30179300007876,26.30179300007876,26.30179300007876,26.30179300007876,26.30179300007876,26.222649208013898,26.30179300007876,26.30179300007876,26.30179300007876,26.222649208013898,26.30179300007876,26.30179300007876,26.30179300007876,28.394610207993537,32.27859975001775,26.30179300007876,26.30179300007876,31.576679125078954,26.756047041038983,27.804035041015595,28.394610207993537,29.442801625002176,26.30179300007876,26.30179300007876,26.2726492080139,26.30179300007876,26.30179300007876,26.30179300007876,26.2726492080139,26.30179300007876,26.30179300007876,31.576679125078954,26.30179300007876,31.576679125078954,31.53749429108575,32.482117625069804,26.30179300007876,1,1,1.5622181249782443,,reldom2_s005,001,2025-01-30_14h33.08.096,practice_test2_AC,2022.2.5,None,
2,First_Order,1.0,viswhat,stimulus/viswhat_stim/blank_white.png,stimulus/viswhat_stim/blank_white.png,stimulus/viswhat_stim/water_vehicle-cargoboat.png,stimulus/viswhat_stim/land_vehicle-oldcar.png,stimulus/viswhat_stim/blank_white.png,stimulus/viswhat_stim/location_box.png,stimulus/viswhat_stim/location_yes.png,stimulus/viswhat_stim/location_no.png,None,Location,None,Type,2,0.0,0,5.25,0,5.25,0,5.25,0,0.0,0.75,0,0.0,0,0.0,1,0.5,1,2.125,0,0.0,0,0.0,0,0.0,0,0.0,0,,,,,0,2,2,2,,,,,32.482117625069804,32.482117625069804,32.482117625069804,32.482117625069804,32.482117625069804,32.482117625069804,32.482117625069804,32.482117625069804,32.41193308335108,32.482117625069804,32.482117625069804,32.482117625069804,32.41193308335108,32.482117625069804,32.482117625069804,32.482117625069804,34.578198875067756,38.45028404099867,32.482117625069804,32.482117625069804,37.78196187503636,32.9640193330124,34.02949179103598,34.578198875067756,35.634948207996786,32.482117625069804,32.482117625069804,32.44526641668441,32.482117625069804,32.482117625069804,32.482117625069804,32.44526641668441,32.482117625069804,32.482117625069804,37.78196187503636,32.482117625069804,37.78196187503636,37.69687391608022,38.69623762508854,32.482117625069804,2,1,1.1697188339894637,,reldom2_s005,001,2025-01-30_14h33.08.096,practice_test2_AC,2022.2.5,None,
3,First_Order,1.0,viswhat,stimulus/viswhat_stim/blank_white.png,stimulus/viswhat_stim/blank_white.png,stimulus/viswhat_stim/land_vehicle-vespa.png,stimulus/viswhat_stim/water_vehicle-sailboat.png,stimulus/viswhat_stim/blank_white.png,stimulus/viswhat_stim/type_box.png,stimulus/viswhat_stim/type_yes.png,stimulus/viswhat_stim/type_no.png,None,Type,None,Type,1,0.0,0,5.25,0,5.25,0,5.25,0,0.0,0.75,0,0.0,0,0.0,1,0.5,1,2.125,0,0.0,0,0.0,0,0.0,0,0.0,0,,,,,0,3,3,3,,,,,38.69623762508854,38.69623762508854,38.69623762508854,38.69623762508854,38.69623762508854,38.69623762508854,38.69623762508854,38.69623762508854,38.583617374332,38.69623762508854,38.69623762508854,38.69623762508854,38.583617374332,38.69623762508854,38.69623762508854,38.69623762508854,40.76384933304507,44.64878320810385,38.69623762508854,38.69623762508854,44.01711408304982,39.1635493329959,40.25546595803462,40.76384933304507,41.852462500100955,38.69623762508854,38.69623762508854,38.633617374332,38.69623762508854,38.69623762508854,38.69623762508854,38.633617374332,38.69623762508854,38.69623762508854,44.01711408304982,38.69623762508854,44.01711408304982,43.896012625074945,45.19228425004985,38.69623762508854,1,1,1.2780597499804571,,reldom2_s005,001,2025-01-30_14h33.08.096,practice_test2_AC,2022.2.5,None,
4,First_Order,1.0,viswhat,stimulus/viswhat_stim/blank_white.png,stimulus/viswhat_stim/blank_white.png,stimulus/viswhat_stim/land_animal-elephant.png,stimulus/viswhat_stim/water_animal-lobster.png,stimulus/viswhat_stim/blank_white.png,stimulus/viswhat_stim/location_box.png,stimulus/viswhat_stim/location_yes.png,stimulus/viswhat_stim/location_no.png,None,Location,None,Type,2,0.0,0,5.25,0,5.25,0,5.25,0,0.0,0.75,0,0.0,0,0.0,1,0.5,1,2.125,0,0.0,0,0.0,0,0.0,0,0.0,0,,,,,0,4,4,4,,,,,45.19228425004985,45.19228425004985,45.19228425004985,45.19228425004985,45.19228425004985,45.19228425004985,45.19228425004985,45.19228425004985,44.815449874770515,45.19228425004985,45.19228425004985,45.19228425004985,44.815449874770515,45.19228425004985,45.19228425004985,45.19228425004985,47.24501600000076,51.142418416100554,45.19228425004985,45.19228425004985,50.7824425410945,45.56558116606902,46.871546833077446,47.24501600000076,48.55365250003524,45.19228425004985,45.19228425004985,44.99878320810385,45.19228425004985,45.19228425004985,45.19228425004985,44.99878320810385,45.19228425004985,45.19228425004985,50.7824425410945,45.19228425004985,50.7824425410945,50.23089320806321,51.657843416091055,45.19228425004985,2,1,1.0260755839990452,,reldom2_s005,001,2025-01-30_14h33.08.096,practice_test2_AC,2022.2.5,None,
0,0.0,None,fixation,stimulus/viswhat_stim/blank_white.png,stimulus/viswhat_stim/blank_white.png,stimulus/audwhat_stim/blank_white.png,stimulus/audwhat_stim/blank_white.png,stimulus/viswhat_stim/blank_white.png,stimulus/viswhat_stim/blank_white.png,stimulus/viswhat_stim/blank_white.png,stimulus/viswhat_stim/blank_white.png,0.0,0.0,0.0,0.0,0,0.0,0,0.0,0,0.0,0,0.0,0,0.0,0.0,0,0.0,0,0.0,0,0.0,0,0.0,0,0.0,0,0.0,0,0.0,0,0.0,6,,,,,0,5,5,5,,,,,51.657843416091055,51.657843416091055,51.657843416091055,51.657843416091055,51.657843416091055,51.657843416091055,51.657843416091055,51.657843416091055,51.55908508276722,51.657843416091055,51.657843416091055,51.657843416091055,51.55908508276722,51.657843416091055,51.657843416091055,51.657843416091055,51.657843416091055,51.657843416091055,51.657843416091055,51.657843416091055,51.657843416091055,51.657843416091055,51.657843416091055,51.657843416091055,51.657843416091055,51.657843416091055,51.657843416091055,51.60908508276722,51.657843416091055,51.657843416091055,51.657843416091055,51.60908508276722,51.657843416091055,51.657843416091055,51.657843416091055,51.657843416091055,51.657843416091055,56.839309583068825,56.839309583068825,57.836226665996946,None,0,,,reldom2_s005,001,2025-01-30_14h33.08.096,practice_test2_AC,2022.2.5,None,
5,Second_Order,1.0,viswhat,stimulus/viswhat_stim/land_animal-giraffe.png,stimulus/viswhat_stim/water_animal-stingray.png,stimulus/viswhat_stim/land_vehicle-trolley.png,stimulus/viswhat_stim/land_animal-elephant.png,stimulus/viswhat_stim/match_blank.png,stimulus/viswhat_stim/match_box.png,stimulus/viswhat_stim/match_yes.png,stimulus/viswhat_stim/match_no.png,2.0,Match,Type,Location,2,5.25,0,5.25,0,5.25,0,5.25,0,0.75,0.75,1,0.5,1,2.125,1,0.5,1,2.125,0,0.0,0,0.0,0,0.0,0,0.0,0,,,,,0,6,6,6,,,,,57.836226665996946,63.07938916608691,58.279255041037686,59.278336583054624,59.91245691606309,60.92142316605896,57.836226665996946,57.836226665996946,57.833944458025506,57.836226665996946,57.836226665996946,57.836226665996946,57.833944458025506,57.836226665996946,63.07938916608691,63.97695270809345,65.99360120808706,69.8990878330078,63.97695270809345,63.97695270809345,69.27607854106463,64.41786633303855,65.49110237509012,65.99360120808706,67.07182733307127,63.97695270809345,63.97695270809345,63.921714458055796,63.97695270809345,63.97695270809345,63.97695270809345,63.921714458055796,63.97695270809345,63.97695270809345,69.27607854106463,63.97695270809345,69.27607854106463,69.15538133308291,70.05708420800511,63.97695270809345,2,1,1.2203788759652525,,reldom2_s005,001,2025-01-30_14h33.08.096,practice_test2_AC,2022.2.5,None,
6,Second_Order,1.0,viswhat,stimulus/viswhat_stim/land_vehicle-scooter.png,stimulus/viswhat_stim/land_animal-moose.png,stimulus/viswhat_stim/water_vehicle-powercruiser.png,stimulus/viswhat_stim/land_vehicle-truck.png,stimulus/viswhat_stim/match_blank.png,stimulus/viswhat_stim/match_box.png,stimulus/viswhat_stim/match_yes.png,stimulus/viswhat_stim/match_no.png,2.0,Match,Location,Type,2,5.25,0,5.25,0,5.25,0,5.25,0,0.75,0.75,1,0.5,1,2.125,1,0.5,1,2.125,0,0.0,0,0.0,0,0.0,0,0.0,0,,,,,0,7,7,7,,,,,70.05708420800511,75.30481479107402,70.49510350008495,71.4878326660255,72.1199667910114,73.11134008306544,70.05708420800511,70.05708420800511,70.06575449967447,70.05708420800511,70.05708420800511,70.05708420800511,70.06575449967447,70.05708420800511,75.30481479107402,76.11375179106835,78.18416683305986,82.05296404100955,76.11375179106835,76.11375179106835,81.38248366606422,76.56471304106526,77.58377958310302,78.18416683305986,79.21384608303197,76.11375179106835,76.11375179106835,76.08799354110378,76.11375179106835,76.11375179106835,76.11375179106835,76.08799354110378,76.11375179106835,76.11375179106835,81.38248366606422,76.11375179106835,81.38248366606422,81.31092404108495,82.24978441605344,76.11375179106835,2,1,1.698724374989979,,reldom2_s005,001,2025-01-30_14h33.08.096,practice_test2_AC,2022.2.5,None,
0,0.0,None,fixation,stimulus/viswhat_stim/blank_white.png,stimulus/viswhat_stim/blank_white.png,stimulus/audwhat_stim/blank_white.png,stimulus/audwhat_stim/blank_white.png,stimulus/viswhat_stim/blank_white.png,stimulus/viswhat_stim/blank_white.png,stimulus/viswhat_stim/blank_white.png,stimulus/viswhat_stim/blank_white.png,0.0,0.0,0.0,0.0,0,0.0,0,0.0,0,0.0,0,0.0,0,0.0,0.0,0,0.0,0,0.0,0,0.0,0,0.0,0,0.0,0,0.0,0,0.0,0,0.0,7,,,,,0,8,8,8,,,,,82.24978441605344,82.24978441605344,82.24978441605344,82.24978441605344,82.24978441605344,82.24978441605344,82.24978441605344,82.24978441605344,82.15296404100954,82.24978441605344,82.24978441605344,82.24978441605344,82.15296404100954,82.24978441605344,82.24978441605344,82.24978441605344,82.24978441605344,82.24978441605344,82.24978441605344,82.24978441605344,82.24978441605344,82.24978441605344,82.24978441605344,82.24978441605344,82.24978441605344,82.24978441605344,82.24978441605344,82.20296404100955,82.24978441605344,82.24978441605344,82.24978441605344,82.20296404100955,82.24978441605344,82.24978441605344,82.24978441605344,82.24978441605344,82.24978441605344,87.44534850004129,87.44534850004129,89.49250870803371,None,0,,,reldom2_s005,001,2025-01-30_14h33.08.096,practice_test2_AC,2022.2.5,None,
7,First_Order,2.0,audwhat,stimulus/audwhat_stim/dummy.wav,stimulus/audwhat_stim/dummy.wav,stimulus/audwhat_stim/percussion xylophone_high-pitch_Ftri_loud.wav,stimulus/audwhat_stim/percussion mallet_low-pitch_F_loud.wav,stimulus/audwhat_stim/blank_white.png,stimulus/audwhat_stim/category_box.png,stimulus/audwhat_stim/category_yes.png,stimulus/audwhat_stim/category_no.png,None,Category,None,Category,1,0.0,0,5.25,0,5.25,0,5.25,0,0.0,0.75,0,0.0,0,0.0,0,0.0,0,0.0,0,0.0,0,0.0,1,0.5,1,2.125,0,,,,,0,9,9,9,,,,,89.49250870803371,89.49250870803371,89.49250870803371,89.49250870803371,89.49250870803371,89.49250870803371,89.49250870803371,89.49250870803371,89.41195729169219,89.49250870803371,89.49250870803371,89.49250870803371,89.41195729169219,89.49250870803371,89.49250870803371,89.49250870803371,91.60616241605021,95.43984195799567,89.49250870803371,89.49250870803371,94.77646854100749,89.49250870803371,89.49250870803371,89.49250870803371,89.49250870803371,89.9447557911044,91.00201429100707,89.91127033270119,90.95181070803665,91.60616241605021,92.66458220803179,91.57265929173833,,89.49250870803371,94.77646854100749,89.49250870803371,94.77646854100749,94.73203833308071,95.7052085410105,89.49250870803371,1,1,1.9645973748993129,,reldom2_s005,001,2025-01-30_14h33.08.096,practice_test2_AC,2022.2.5,None,
8,First_Order,2.0,audwhat,stimulus/audwhat_stim/dummy.wav,stimulus/audwhat_stim/dummy.wav,stimulus/audwhat_stim/percussion xylophone_high-pitch_F_loud.wav,stimulus/audwhat_stim/percussion mallet_low-pitch_D_loud.wav,stimulus/audwhat_stim/blank_white.png,stimulus/audwhat_stim/pitch_box.png,stimulus/audwhat_stim/pitch_yes.png,stimulus/audwhat_stim/pitch_no.png,None,Pitch,None,Category,2,0.0,0,5.25,0,5.25,0,5.25,0,0.0,0.75,0,0.0,0,0.0,0,0.0,0,0.0,0,0.0,0,0.0,1,0.5,1,2.125,0,,,,,0,10,10,10,,,,,95.7052085410105,95.7052085410105,95.7052085410105,95.7052085410105,95.7052085410105,95.7052085410105,95.7052085410105,95.7052085410105,95.616997458421,95.7052085410105,95.7052085410105,95.7052085410105,95.616997458421,95.7052085410105,95.7052085410105,95.7052085410105,97.81173879106063,101.68094525008928,95.7052085410105,95.7052085410105,101.02093508304097,95.7052085410105,95.7052085410105,95.7052085410105,95.7052085410105,96.15815266605932,97.21135354100261,96.12303308275683,97.16063475003466,97.81173879106063,98.86701975006144,97.77792591666027,,95.7052085410105,101.02093508304097,95.7052085410105,101.02093508304097,100.92535095801577,101.89954091608524,95.7052085410105,2,1,1.0414144999813288,,reldom2_s005,001,2025-01-30_14h33.08.096,practice_test2_AC,2022.2.5,None,
9,First_Order,2.0,audwhat,stimulus/audwhat_stim/dummy.wav,stimulus/audwhat_stim/dummy.wav,stimulus/audwhat_stim/percussion mallet_low-pitch_Dtri_loud.wav,stimulus/audwhat_stim/string viola_low-pitch_Dtri_loud.wav,stimulus/audwhat_stim/blank_white.png,stimulus/audwhat_stim/category_box.png,stimulus/audwhat_stim/category_yes.png,stimulus/audwhat_stim/category_no.png,None,Category,None,Pitch,2,0.0,0,5.25,0,5.25,0,5.25,0,0.0,0.75,0,0.0,0,0.0,0,0.0,0,0.0,0,0.0,0,0.0,1,0.5,1,2.125,0,,,,,0,11,11,11,,,,,101.89954091608524,101.89954091608524,101.89954091608524,101.89954091608524,101.89954091608524,101.89954091608524,101.89954091608524,101.89954091608524,101.8142785834226,101.89954091608524,101.89954091608524,101.89954091608524,101.8142785834226,101.89954091608524,101.89954091608524,101.89954091608524,104.0162358750822,107.85359004104976,101.89954091608524,101.89954091608524,107.18967750004958,101.89954091608524,101.89954091608524,101.89954091608524,101.89954091608524,102.3548566660611,103.41503200004809,102.32045129168934,,104.0162358750822,105.07520683307666,103.98272770765858,,101.89954091608524,107.18967750004958,101.89954091608524,107.18967750004958,107.09559341601562,108.07332995801698,101.89954091608524,2,1,1.3873496669111773,,reldom2_s005,001,2025-01-30_14h33.08.096,practice_test2_AC,2022.2.5,None,
10,First_Order,2.0,audwhat,stimulus/audwhat_stim/dummy.wav,stimulus/audwhat_stim/dummy.wav,stimulus/audwhat_stim/percussion mallet_low-pitch_F_loud.wav,stimulus/audwhat_stim/percussion mallet_high-pitch_Ftri_loud.wav,stimulus/audwhat_stim/blank_white.png,stimulus/audwhat_stim/category_box.png,stimulus/audwhat_stim/category_yes.png,stimulus/audwhat_stim/category_no.png,None,Category,None,Category,1,0.0,0,5.25,0,5.25,0,5.25,0,0.0,0.75,0,0.0,0,0.0,0,0.0,0,0.0,0,0.0,0,0.0,1,0.5,1,2.125,0,,,,,0,12,12,12,,,,,108.07332995801698,108.07332995801698,108.07332995801698,108.07332995801698,108.07332995801698,108.07332995801698,108.07332995801698,108.07332995801698,107.98692337438308,108.07332995801698,108.07332995801698,108.07332995801698,107.98692337438308,108.07332995801698,108.07332995801698,108.07332995801698,110.18755670799874,114.03525866603013,108.07332995801698,108.07332995801698,113.37355587503407,108.07332995801698,108.07332995801698,108.07332995801698,108.07332995801698,108.52649604110047,109.58161362505052,108.49249899975645,,110.18755670799874,111.24510204105172,110.15250724967724,,108.07332995801698,113.37355587503407,108.07332995801698,113.37355587503407,113.27918195805978,114.27345666603651,108.07332995801698,1,1,1.5834932499565184,,reldom2_s005,001,2025-01-30_14h33.08.096,practice_test2_AC,2022.2.5,None,
0,0.0,None,fixation,stimulus/viswhat_stim/blank_white.png,stimulus/viswhat_stim/blank_white.png,stimulus/audwhat_stim/blank_white.png,stimulus/audwhat_stim/blank_white.png,stimulus/viswhat_stim/blank_white.png,stimulus/viswhat_stim/blank_white.png,stimulus/viswhat_stim/blank_white.png,stimulus/viswhat_stim/blank_white.png,0.0,0.0,0.0,0.0,0,0.0,0,0.0,0,0.0,0,0.0,0,0.0,0.0,0,0.0,0,0.0,0,0.0,0,0.0,0,0.0,0,0.0,0,0.0,0,0.0,6,,,,,0,13,13,13,,,,,114.27345666603651,114.27345666603651,114.27345666603651,114.27345666603651,114.27345666603651,114.27345666603651,114.27345666603651,114.27345666603651,114.16859199936346,114.27345666603651,114.27345666603651,114.27345666603651,114.16859199936346,114.27345666603651,114.27345666603651,114.27345666603651,114.27345666603651,114.27345666603651,114.27345666603651,114.27345666603651,114.27345666603651,114.27345666603651,114.27345666603651,114.27345666603651,114.27345666603651,114.27345666603651,114.27345666603651,114.21859199936347,114.27345666603651,114.27345666603651,114.27345666603651,114.21859199936347,114.27345666603651,114.27345666603651,114.27345666603651,114.27345666603651,114.27345666603651,119.47751058300491,119.47751058300491,120.41697995807044,None,0,,,reldom2_s005,001,2025-01-30_14h33.08.096,practice_test2_AC,2022.2.5,None,
11,Second_Order,2.0,audwhat,stimulus/audwhat_stim/string cello_low-pitch_D_loud.wav,stimulus/audwhat_stim/string viola_high-pitch_Dtri_loud.wav,stimulus/audwhat_stim/percussion mallet_high-pitch_F_loud.wav,stimulus/audwhat_stim/percussion mallet_low-pitch_Dtri_loud.wav,stimulus/viswhat_stim/match_blank.png,stimulus/viswhat_stim/match_box.png,stimulus/viswhat_stim/match_yes.png,stimulus/viswhat_stim/match_no.png,1.0,Match,Category,Category,1,5.25,0,5.25,0,5.25,0,5.25,0,0.75,0.75,0,0.0,0,0.0,0,0.0,0,0.0,1,0.5,1,2.125,1,0.5,1,2.125,0,,,,,0,14,14,14,,,,,120.41697995807044,125.66319595801178,120.41697995807044,120.41697995807044,120.41697995807044,120.41697995807044,120.86674016609322,121.86203012499027,120.87212824967379,,122.495989750023,123.49419054109603,122.50452545768736,,125.66319595801178,126.53517783305142,128.6010607080534,132.43408541602548,126.53517783305142,126.53517783305142,131.86114866600838,126.53517783305142,126.53517783305142,126.53517783305142,126.53517783305142,126.94416200008709,127.99962637503631,126.90985437477163,,128.6010607080534,129.65920537500642,128.5672812917658,,126.53517783305142,131.86114866600838,126.53517783305142,131.86114866600838,131.71649750007782,132.60263808304444,126.53517783305142,1,1,1.0632956250337884,,reldom2_s005,001,2025-01-30_14h33.08.096,practice_test2_AC,2022.2.5,None,
12,Second_Order,2.0,audwhat,stimulus/audwhat_stim/string viola_high-pitch_Dtri_loud.wav,stimulus/audwhat_stim/percussion xylophone_high-pitch_Dtri_loud.wav,stimulus/audwhat_stim/string viola_low-pitch_Ftri_loud.wav,stimulus/audwhat_stim/percussion mallet_low-pitch_Ftri_loud.wav,stimulus/viswhat_stim/match_blank.png,stimulus/viswhat_stim/match_box.png,stimulus/viswhat_stim/match_yes.png,stimulus/viswhat_stim/match_no.png,1.0,Match,Pitch,Pitch,1,5.25,0,5.25,0,5.25,0,5.25,0,0.75,0.75,0,0.0,0,0.0,0,0.0,0,0.0,1,0.5,1,2.125,1,0.5,1,2.125,0,,,,,0,15,15,15,,,,,132.60263808304444,137.84486587508582,132.60263808304444,132.60263808304444,132.60263808304444,132.60263808304444,133.05372954101767,134.0438969579991,133.06150304171413,,134.67907679104246,135.67105695803184,134.6874382077406,135.67801679100376,137.84486587508582,138.71471654099878,140.7754089999944,144.65158358309418,138.71471654099878,138.71471654099878,144.02486266603228,138.71471654099878,138.71471654099878,138.71471654099878,138.71471654099878,139.12159695802256,140.1742104580626,139.0875414997029,,140.7754089999944,141.83071091608144,140.74191949976765,,138.71471654099878,144.02486266603228,138.71471654099878,144.02486266603228,143.89623662503436,144.89285875007045,138.71471654099878,1,1,2.2972815840039402,,reldom2_s005,001,2025-01-30_14h33.08.096,practice_test2_AC,2022.2.5,None,
0,0.0,None,fixation,stimulus/viswhat_stim/blank_white.png,stimulus/viswhat_stim/blank_white.png,stimulus/audwhat_stim/blank_white.png,stimulus/audwhat_stim/blank_white.png,stimulus/viswhat_stim/blank_white.png,stimulus/viswhat_stim/blank_white.png,stimulus/viswhat_stim/blank_white.png,stimulus/viswhat_stim/blank_white.png,0.0,0.0,0.0,0.0,0,0.0,0,0.0,0,0.0,0,0.0,0,0.0,0.0,0,0.0,0,0.0,0,0.0,0,0.0,0,0.0,0,0.0,0,0.0,0,0.0,6,,,,,0,16,16,16,,,,,144.89285875007045,144.89285875007045,144.89285875007045,144.89285875007045,144.89285875007045,144.89285875007045,144.89285875007045,144.89285875007045,144.78491691642753,144.89285875007045,144.89285875007045,144.89285875007045,144.78491691642753,144.89285875007045,144.89285875007045,144.89285875007045,144.89285875007045,144.89285875007045,144.89285875007045,144.89285875007045,144.89285875007045,144.89285875007045,144.89285875007045,144.89285875007045,144.89285875007045,144.89285875007045,144.89285875007045,144.8515835830942,144.89285875007045,144.89285875007045,144.89285875007045,144.8515835830942,144.89285875007045,144.89285875007045,144.89285875007045,144.89285875007045,144.89285875007045,150.0849546249956,150.0849546249956,151.17828445800114,None,0,,,reldom2_s005,001,2025-01-30_14h33.08.096,practice_test2_AC,2022.2.5,None,
13,First_Order,3.0,audwhere,stimulus/audwhere_stim/dummy.wav,stimulus/audwhere_stim/dummy.wav,stimulus/audwhere_stim/left_toward_270h.wav,stimulus/audwhere_stim/right_toward_270h.wav,stimulus/audwhere_stim/blank_white.png,stimulus/audwhere_stim/direction_box.png,stimulus/audwhere_stim/direction_yes.png,stimulus/audwhere_stim/direction_no.png,None,Direction,None,Direction,1,0.0,0,5.25,0,5.25,0,5.25,0,0.0,0.75,0,0.0,0,0.0,0,0.0,0,0.0,0,0.0,0,0.0,1,0.5,1,2.125,0,,,,,0,17,17,17,,,,,151.17828445800114,151.17828445800114,151.17828445800114,151.17828445800114,151.17828445800114,151.17828445800114,151.17828445800114,151.17828445800114,151.0959372916647,151.17828445800114,151.17828445800114,151.17828445800114,151.0959372916647,151.17828445800114,151.17828445800114,151.17828445800114,153.24502933304757,157.13440683309454,151.17828445800114,151.17828445800114,156.47099387506023,151.17828445800114,151.17828445800114,151.17828445800114,151.17828445800114,151.63241595809814,152.69230091606732,151.59840358276077,,153.24502933304757,154.3067214160692,153.21120949968852,,151.17828445800114,156.47099387506023,151.17828445800114,156.47099387506023,156.37577379099093,157.3556973329978,151.17828445800114,1,1,2.227715457906015,,reldom2_s005,001,2025-01-30_14h33.08.096,practice_test2_AC,2022.2.5,None,
14,First_Order,3.0,audwhere,stimulus/audwhere_stim/dummy.wav,stimulus/audwhere_stim/dummy.wav,stimulus/audwhere_stim/right_away_280h.wav,stimulus/audwhere_stim/right_toward_290h.wav,stimulus/audwhere_stim/blank_white.png,stimulus/audwhere_stim/side_box.png,stimulus/audwhere_stim/side_yes.png,stimulus/audwhere_stim/side_no.png,None,Side,None,Side,1,0.0,0,5.25,0,5.25,0,5.25,0,0.0,0.75,0,0.0,0,0.0,0,0.0,0,0.0,0,0.0,0,0.0,1,0.5,1,2.125,0,,,,,0,18,18,18,,,,,157.3556973329978,157.3556973329978,157.3556973329978,157.3556973329978,157.3556973329978,157.3556973329978,157.3556973329978,157.3556973329978,157.2677401664279,157.3556973329978,157.3556973329978,157.3556973329978,157.2677401664279,157.3556973329978,157.3556973329978,157.3556973329978,159.45776533300523,163.32121979107615,157.3556973329978,157.3556973329978,162.66120808303822,157.3556973329978,157.3556973329978,157.3556973329978,157.3556973329978,157.80717920803,158.8579336660914,157.77367858268943,,159.45776533300523,160.51136345800478,159.4243450826655,,157.3556973329978,162.66120808303822,157.3556973329978,162.66120808303822,162.56660250003915,163.54052895808127,157.3556973329978,1,1,1.7523834169842303,,reldom2_s005,001,2025-01-30_14h33.08.096,practice_test2_AC,2022.2.5,None,
15,First_Order,3.0,audwhere,stimulus/audwhere_stim/dummy.wav,stimulus/audwhere_stim/dummy.wav,stimulus/audwhere_stim/right_away_270h.wav,stimulus/audwhere_stim/right_toward_300h.wav,stimulus/audwhere_stim/blank_white.png,stimulus/audwhere_stim/side_box.png,stimulus/audwhere_stim/side_yes.png,stimulus/audwhere_stim/side_no.png,None,Side,None,Side,1,0.0,0,5.25,0,5.25,0,5.25,0,0.0,0.75,0,0.0,0,0.0,0,0.0,0,0.0,0,0.0,0,0.0,1,0.5,1,2.125,0,,,,,0,19,19,19,,,,,163.54052895808127,163.54052895808127,163.54052895808127,163.54052895808127,163.54052895808127,163.54052895808127,163.54052895808127,163.54052895808127,163.4545531244095,163.54052895808127,163.54052895808127,163.54052895808127,163.4545531244095,163.54052895808127,163.54052895808127,163.54052895808127,165.64214079105295,169.50735529104713,163.54052895808127,163.54052895808127,168.84845329099335,163.54052895808127,163.54052895808127,163.54052895808127,163.54052895808127,163.99157812504563,165.04165383300278,163.9579783747361,164.9917973750271,165.64214079105295,166.69566841609776,165.6087192077578,,163.54052895808127,168.84845329099335,163.54052895808127,168.84845329099335,168.75444833305664,169.72586133307777,163.54052895808127,1,1,1.4735127498861402,,reldom2_s005,001,2025-01-30_14h33.08.096,practice_test2_AC,2022.2.5,None,
16,First_Order,3.0,audwhere,stimulus/audwhere_stim/dummy.wav,stimulus/audwhere_stim/dummy.wav,stimulus/audwhere_stim/right_toward_300h.wav,stimulus/audwhere_stim/right_away_290h.wav,stimulus/audwhere_stim/blank_white.png,stimulus/audwhere_stim/direction_box.png,stimulus/audwhere_stim/direction_yes.png,stimulus/audwhere_stim/direction_no.png,None,Direction,None,Side,2,0.0,0,5.25,0,5.25,0,5.25,0,0.0,0.75,0,0.0,0,0.0,0,0.0,0,0.0,0,0.0,0,0.0,1,0.5,1,2.125,0,,,,,0,20,20,20,,,,,169.72586133307777,169.72586133307777,169.72586133307777,169.72586133307777,169.72586133307777,169.72586133307777,169.72586133307777,169.72586133307777,169.6406886243805,169.72586133307777,169.72586133307777,169.72586133307777,169.6406886243805,169.72586133307777,169.72586133307777,169.72586133307777,171.84213075006846,175.6743163750507,169.72586133307777,169.72586133307777,175.01121075008996,169.72586133307777,169.72586133307777,169.72586133307777,169.72586133307777,170.17939820804168,171.23795029101893,170.14548866666544,,171.84213075006846,172.90049445803743,171.80809795769554,,169.72586133307777,175.01121075008996,169.72586133307777,175.01121075008996,174.96678370807786,175.95714183303062,169.72586133307777,2,1,1.7783106248825788,,reldom2_s005,001,2025-01-30_14h33.08.096,practice_test2_AC,2022.2.5,None,
0,0.0,None,fixation,stimulus/viswhere_stim/blank_white.png,stimulus/viswhere_stim/blank_white.png,stimulus/audwhere_stim/blank_white.png,stimulus/audwhere_stim/blank_white.png,stimulus/viswhere_stim/blank_white.png,stimulus/viswhere_stim/blank_white.png,stimulus/viswhat_stim/blank_white.png,stimulus/viswhat_stim/blank_white.png,0.0,0.0,0.0,0.0,0,0.0,0,0.0,0,0.0,0,0.0,0,0.0,0.0,0,0.0,0,0.0,0,0.0,0,0.0,0,0.0,0,0.0,0,0.0,0,0.0,5,,,,,0,21,21,21,,,,,175.95714183303062,175.95714183303062,175.95714183303062,175.95714183303062,175.95714183303062,175.95714183303062,175.95714183303062,175.95714183303062,175.85175662432644,175.95714183303062,175.95714183303062,175.95714183303062,175.85175662432644,175.95714183303062,175.95714183303062,175.95714183303062,175.95714183303062,175.95714183303062,175.95714183303062,175.95714183303062,175.95714183303062,175.95714183303062,175.95714183303062,175.95714183303062,175.95714183303062,175.95714183303062,175.95714183303062,175.90175662432642,175.95714183303062,175.95714183303062,175.95714183303062,175.90175662432642,175.95714183303062,175.95714183303062,175.95714183303062,175.95714183303062,175.95714183303062,181.26451179105788,181.26451179105788,180.9998507500859,None,0,,,reldom2_s005,001,2025-01-30_14h33.08.096,practice_test2_AC,2022.2.5,None,
17,Second_Order,3.0,audwhere,stimulus/audwhere_stim/right_toward_270h.wav,stimulus/audwhere_stim/left_toward_290h.wav,stimulus/audwhere_stim/left_away_270h.wav,stimulus/audwhere_stim/left_toward_290h.wav,stimulus/viswhat_stim/match_blank.png,stimulus/viswhat_stim/match_box.png,stimulus/viswhat_stim/match_yes.png,stimulus/viswhat_stim/match_no.png,2.0,Match,Direction,Side,2,5.25,0,5.25,0,5.25,0,5.25,0,0.75,0.75,0,0.0,0,0.0,0,0.0,0,0.0,1,0.5,1,2.125,1,0.5,1,2.125,0,,,,,0,22,22,22,,,,,181.26451179105788,186.5120007500518,181.26451179105788,181.26451179105788,181.26451179105788,181.26451179105788,181.71184666606132,182.7039286250947,181.72082091676228,182.71191854099743,183.33670670806896,184.32757687510457,183.3450180827097,184.33741341601126,186.5120007500518,187.38037512509618,189.43909491610248,193.31779995805118,187.38037512509618,187.38037512509618,192.65688454103656,187.38037512509618,187.38037512509618,187.38037512509618,187.38037512509618,187.83407350000925,188.88851108308882,187.80060416675795,,189.43909491610248,190.49946512503084,189.40530562476877,,187.38037512509618,192.65688454103656,187.38037512509618,192.65688454103656,192.56274270801805,193.44256479106843,187.38037512509618,2,1,1.8018905419157818,,reldom2_s005,001,2025-01-30_14h33.08.096,practice_test2_AC,2022.2.5,None,
18,Second_Order,3.0,audwhere,stimulus/audwhere_stim/left_toward_270h.wav,stimulus/audwhere_stim/right_toward_300h.wav,stimulus/audwhere_stim/right_toward_300h.wav,stimulus/audwhere_stim/right_away_270h.wav,stimulus/viswhat_stim/match_blank.png,stimulus/viswhat_stim/match_box.png,stimulus/viswhat_stim/match_yes.png,stimulus/viswhat_stim/match_no.png,2.0,Match,Direction,Side,2,5.25,0,5.25,0,5.25,0,5.25,0,0.75,0.75,0,0.0,0,0.0,0,0.0,0,0.0,1,0.5,1,2.125,1,0.5,1,2.125,0,,,,,0,23,23,23,,,,,193.44256479106843,198.68658891599625,193.44256479106843,193.44256479106843,193.44256479106843,193.44256479106843,193.89535829110537,194.8866936250124,193.9039707497616,,195.51197808305733,196.50407912500668,195.52091041667543,196.5108967910055,198.68658891599625,199.54447516601067,201.59648854099214,205.47925337508786,199.54447516601067,199.54447516601067,204.86362633307,199.54447516601067,199.54447516601067,199.54447516601067,199.54447516601067,199.99427595804445,201.0462142500328,199.9605114997287,,201.59648854099214,202.65786595805548,201.5628524167153,,199.54447516601067,204.86362633307,199.54447516601067,204.86362633307,204.71835216600448,205.72093516599853,199.54447516601067,2,1,1.7940629579825327,,reldom2_s005,001,2025-01-30_14h33.08.096,practice_test2_AC,2022.2.5,None,
0,0.0,None,fixation,stimulus/viswhere_stim/blank_white.png,stimulus/viswhere_stim/blank_white.png,stimulus/audwhere_stim/blank_white.png,stimulus/audwhere_stim/blank_white.png,stimulus/viswhere_stim/blank_white.png,stimulus/viswhere_stim/blank_white.png,stimulus/viswhat_stim/blank_white.png,stimulus/viswhat_stim/blank_white.png,0.0,0.0,0.0,0.0,0,0.0,0,0.0,0,0.0,0,0.0,0,0.0,0.0,0,0.0,0,0.0,0,0.0,0,0.0,0,0.0,0,0.0,0,0.0,0,0.0,5,,,,,0,24,24,24,,,,,205.72093516599853,205.72093516599853,205.72093516599853,205.72093516599853,205.72093516599853,205.72093516599853,205.72093516599853,205.72093516599853,205.61258670842122,205.72093516599853,205.72093516599853,205.72093516599853,205.61258670842122,205.72093516599853,205.72093516599853,205.72093516599853,205.72093516599853,205.72093516599853,205.72093516599853,205.72093516599853,205.72093516599853,205.72093516599853,205.72093516599853,205.72093516599853,205.72093516599853,205.72093516599853,205.72093516599853,205.67925337508788,205.72093516599853,205.72093516599853,205.72093516599853,205.67925337508788,205.72093516599853,205.72093516599853,205.72093516599853,205.72093516599853,205.72093516599853,211.0935055410955,211.0935055410955,210.78791795799043,None,0,,,reldom2_s005,001,2025-01-30_14h33.08.096,practice_test2_AC,2022.2.5,None,
19,First_Order,4.0,viswhere,stimulus/viswhere_stim/blank_white.png,stimulus/viswhere_stim/blank_white.png,stimulus/viswhere_stim/90-deg_dot-right_peru.png,stimulus/viswhere_stim/120-deg_dot-right_slateblue.png,stimulus/viswhere_stim/blank_white.png,stimulus/viswhere_stim/dot_box.png,stimulus/viswhere_stim/dot_yes.png,stimulus/viswhere_stim/dot_no.png,None,Dot,None,Dot,1,0.0,0,5.25,0,5.25,0,5.25,0,0.0,0.75,0,0.0,0,0.0,1,0.5,1,2.125,0,0.0,0,0.0,0,0.0,0,0.0,0,,,,,0,25,25,25,,,,,211.0935055410955,211.0935055410955,211.0935055410955,211.0935055410955,211.0935055410955,211.0935055410955,211.0935055410955,211.0935055410955,211.06688954172813,211.0935055410955,211.0935055410955,211.0935055410955,211.06688954172813,211.0935055410955,211.0935055410955,211.0935055410955,213.20895266602747,217.05570150003769,211.0935055410955,211.0935055410955,216.35582829103805,211.57172233308665,212.59800729108974,213.20895266602747,214.21896804100834,211.0935055410955,211.0935055410955,211.08355620839478,211.0935055410955,211.0935055410955,211.0935055410955,211.08355620839478,211.0935055410955,211.0935055410955,216.35582829103805,211.0935055410955,216.35582829103805,216.31601675006095,217.16593579109758,211.0935055410955,1,1,1.2563118749530986,,reldom2_s005,001,2025-01-30_14h33.08.096,practice_test2_AC,2022.2.5,None,
20,First_Order,4.0,viswhere,stimulus/viswhere_stim/blank_white.png,stimulus/viswhere_stim/blank_white.png,stimulus/viswhere_stim/30-deg_dot-right_turquoise.png,stimulus/viswhere_stim/60-deg_dot-right_seagreen.png,stimulus/viswhere_stim/blank_white.png,stimulus/viswhere_stim/line_box.png,stimulus/viswhere_stim/line_yes.png,stimulus/viswhere_stim/line_no.png,None,Line,None,Dot,2,0.0,0,5.25,0,5.25,0,5.25,0,0.0,0.75,0,0.0,0,0.0,1,0.5,1,2.125,0,0.0,0,0.0,0,0.0,0,0.0,0,,,,,0,26,26,26,,,,,217.16593579109758,217.16593579109758,217.16593579109758,217.16593579109758,217.16593579109758,217.16593579109758,217.16593579109758,217.16593579109758,217.13903483337103,217.16593579109758,217.16593579109758,217.16593579109758,217.13903483337103,217.16593579109758,217.16593579109758,217.16593579109758,219.26208762510214,223.23328612500336,217.16593579109758,217.16593579109758,222.4269411250716,217.64418404106982,218.64963837503456,219.26208762510214,220.2764472910203,217.16593579109758,217.16593579109758,217.1557015000377,217.16593579109758,217.16593579109758,217.16593579109758,217.1557015000377,217.16593579109758,217.16593579109758,222.4269411250716,217.16593579109758,222.4269411250716,222.3875959160505,223.23328612500336,217.16593579109758,2,1,1.5778576249722391,,reldom2_s005,001,2025-01-30_14h33.08.096,practice_test2_AC,2022.2.5,None,
21,First_Order,4.0,viswhere,stimulus/viswhere_stim/blank_white.png,stimulus/viswhere_stim/blank_white.png,stimulus/viswhere_stim/120-deg_dot-left_goldenrod.png,stimulus/viswhere_stim/90-deg_dot-left_seagreen.png,stimulus/viswhere_stim/blank_white.png,stimulus/viswhere_stim/line_box.png,stimulus/viswhere_stim/line_yes.png,stimulus/viswhere_stim/line_no.png,None,Line,None,Dot,2,0.0,0,5.25,0,5.25,0,5.25,0,0.0,0.75,0,0.0,0,0.0,1,0.5,1,2.125,0,0.0,0,0.0,0,0.0,0,0.0,0,,,,,0,27,27,27,,,,,223.23328612500336,223.23328612500336,223.23328612500336,223.23328612500336,223.23328612500336,223.23328612500336,223.23328612500336,223.23328612500336,223.2076335834184,223.23328612500336,223.23328612500336,223.23328612500336,223.2076335834184,223.23328612500336,223.23328612500336,223.23328612500336,225.33471858303528,229.20780525007285,223.23328612500336,223.23328612500336,228.4943232910009,223.7129547080258,224.72156825009733,225.33471858303528,226.34970883303322,223.23328612500336,223.23328612500336,223.2243002500851,223.23328612500336,223.23328612500336,223.23328612500336,223.2243002500851,223.23328612500336,223.23328612500336,228.4943232910009,223.23328612500336,228.4943232910009,228.47738754109014,229.33359591604676,223.23328612500336,2,1,0.754940666956827,,reldom2_s005,001,2025-01-30_14h33.08.096,practice_test2_AC,2022.2.5,None,
22,First_Order,4.0,viswhere,stimulus/viswhere_stim/blank_white.png,stimulus/viswhere_stim/blank_white.png,stimulus/viswhere_stim/150-deg_dot-right_royalblue.png,stimulus/viswhere_stim/150-deg_dot-left_slateblue.png,stimulus/viswhere_stim/blank_white.png,stimulus/viswhere_stim/dot_box.png,stimulus/viswhere_stim/dot_yes.png,stimulus/viswhere_stim/dot_no.png,None,Dot,None,Line,2,0.0,0,5.25,0,5.25,0,5.25,0,0.0,0.75,0,0.0,0,0.0,1,0.5,1,2.125,0,0.0,0,0.0,0,0.0,0,0.0,0,,,,,0,28,28,28,,,,,229.33359591604676,229.33359591604676,229.33359591604676,229.33359591604676,229.33359591604676,229.33359591604676,229.33359591604676,229.33359591604676,229.3075624163806,229.33359591604676,229.33359591604676,229.33359591604676,229.3075624163806,229.33359591604676,229.33359591604676,229.33359591604676,231.43205525004305,235.3062273330288,229.33359591604676,229.33359591604676,234.59012779104523,229.8149097081041,230.83588687505107,231.43205525004305,232.45294320804533,229.33359591604676,229.33359591604676,229.32422908304727,229.33359591604676,229.33359591604676,229.33359591604676,229.32422908304727,229.33359591604676,229.33359591604676,234.59012779104523,229.33359591604676,234.59012779104523,234.57331966608763,235.49461333302315,229.33359591604676,2,1,1.2914054999127984,,reldom2_s005,001,2025-01-30_14h33.08.096,practice_test2_AC,2022.2.5,None,
0,0.0,None,fixation,stimulus/viswhere_stim/blank_white.png,stimulus/viswhere_stim/blank_white.png,stimulus/audwhere_stim/blank_white.png,stimulus/audwhere_stim/blank_white.png,stimulus/viswhere_stim/blank_white.png,stimulus/viswhere_stim/blank_white.png,stimulus/viswhat_stim/blank_white.png,stimulus/viswhat_stim/blank_white.png,0.0,0.0,0.0,0.0,0,0.0,0,0.0,0,0.0,0,0.0,0,0.0,0.0,0,0.0,0,0.0,0,0.0,0,0.0,0,0.0,0,0.0,0,0.0,0,0.0,5,,,,,0,29,29,29,,,,,235.49461333302315,235.49461333302315,235.49461333302315,235.49461333302315,235.49461333302315,235.49461333302315,235.49461333302315,235.49461333302315,235.38956066636214,235.49461333302315,235.49461333302315,235.49461333302315,235.38956066636214,235.49461333302315,235.49461333302315,235.49461333302315,235.49461333302315,235.49461333302315,235.49461333302315,235.49461333302315,235.49461333302315,235.49461333302315,235.49461333302315,235.49461333302315,235.49461333302315,235.49461333302315,235.49461333302315,235.43956066636215,235.49461333302315,235.49461333302315,235.49461333302315,235.43956066636215,235.49461333302315,235.49461333302315,235.49461333302315,235.49461333302315,235.49461333302315,240.75218066608068,240.75218066608068,240.57215250004083,None,0,,,reldom2_s005,001,2025-01-30_14h33.08.096,practice_test2_AC,2022.2.5,None,
23,Second_Order,4.0,viswhere,stimulus/viswhere_stim/150-deg_dot-right_slateblue.png,stimulus/viswhere_stim/150-deg_dot-left_turquoise.png,stimulus/viswhere_stim/90-deg_dot-left_mediumslateblue.png,stimulus/viswhere_stim/90-deg_dot-right_peru.png,stimulus/viswhat_stim/match_blank.png,stimulus/viswhat_stim/match_box.png,stimulus/viswhat_stim/match_yes.png,stimulus/viswhat_stim/match_no.png,1.0,Match,Line,Line,1,5.25,0,5.25,0,5.25,0,5.25,0,0.75,0.75,1,0.5,1,2.125,1,0.5,1,2.125,0,0.0,0,0.0,0,0.0,0,0.0,0,,,,,0,30,30,30,,,,,240.75218066608068,245.9952199580148,241.22818008309696,242.22079200006556,242.85398066602647,243.8445200410206,240.75218066608068,240.75218066608068,240.76170704132724,240.75218066608068,240.75218066608068,240.75218066608068,240.76170704132724,240.75218066608068,245.9952199580148,246.80566612503026,248.87454891600646,252.73879141604993,246.80566612503026,246.80566612503026,252.06824900000356,247.24910387501586,248.25842975010164,248.87454891600646,249.89455341605935,246.80566612503026,246.80566612503026,246.78725941602607,246.80566612503026,246.80566612503026,246.80566612503026,246.78725941602607,246.80566612503026,246.80566612503026,252.06824900000356,246.80566612503026,252.06824900000356,252.0056317501003,252.77904808300082,246.80566612503026,1,1,0.8140157918678597,,reldom2_s005,001,2025-01-30_14h33.08.096,practice_test2_AC,2022.2.5,None,
24,Second_Order,4.0,viswhere,stimulus/viswhere_stim/150-deg_dot-right_mediumslateblue.png,stimulus/viswhere_stim/30-deg_dot-right_salmon.png,stimulus/viswhere_stim/120-deg_dot-right_royalblue.png,stimulus/viswhere_stim/120-deg_dot-left_salmon.png,stimulus/viswhat_stim/match_blank.png,stimulus/viswhat_stim/match_box.png,stimulus/viswhat_stim/match_yes.png,stimulus/viswhat_stim/match_no.png,2.0,Match,Dot,Line,2,5.25,0,5.25,0,5.25,0,5.25,0,0.75,0.75,1,0.5,1,2.125,1,0.5,1,2.125,0,0.0,0,0.0,0,0.0,0,0.0,0,,,,,0,31,31,31,,,,,252.77904808300082,258.02717195800506,253.2602307080524,254.25407437502872,254.88617862504907,255.87655541603453,252.77904808300082,252.77904808300082,252.78879141604995,252.77904808300082,252.77904808300082,252.77904808300082,252.78879141604995,252.77904808300082,258.02717195800506,258.82163962500636,260.90569937508553,264.78616366605274,258.82163962500636,258.82163962500636,264.0871873330325,259.28598979103845,260.2925109580392,260.90569937508553,261.9168850830756,258.82163962500636,258.82163962500636,258.7929802084186,258.82163962500636,258.82163962500636,258.82163962500636,258.7929802084186,258.82163962500636,258.82163962500636,264.0871873330325,258.82163962500636,264.0871873330325,264.0244434160413,264.9728398330044,258.82163962500636,1,0,1.5842267079278827,,reldom2_s005,001,2025-01-30_14h33.08.096,practice_test2_AC,2022.2.5,None,
0,0.0,None,fixation,stimulus/viswhere_stim/blank_white.png,stimulus/viswhere_stim/blank_white.png,stimulus/audwhere_stim/blank_white.png,stimulus/audwhere_stim/blank_white.png,stimulus/viswhere_stim/blank_white.png,stimulus/viswhere_stim/blank_white.png,stimulus/viswhat_stim/blank_white.png,stimulus/viswhat_stim/blank_white.png,0.0,0.0,0.0,0.0,0,0.0,0,0.0,0,0.0,0,0.0,0,0.0,0.0,0,0.0,0,0.0,0,0.0,0,0.0,0,0.0,0,0.0,0,0.0,0,0.0,7,,,,,0,32,32,32,,,,,264.9728398330044,264.9728398330044,264.9728398330044,264.9728398330044,264.9728398330044,264.9728398330044,264.9728398330044,264.9728398330044,264.86949699938606,264.9728398330044,264.9728398330044,264.9728398330044,264.86949699938606,264.9728398330044,264.9728398330044,264.9728398330044,264.9728398330044,264.9728398330044,264.9728398330044,264.9728398330044,264.9728398330044,264.9728398330044,264.9728398330044,264.9728398330044,264.9728398330044,264.9728398330044,264.9728398330044,264.91949699938607,264.9728398330044,264.9728398330044,264.9728398330044,264.91949699938607,264.9728398330044,264.9728398330044,264.9728398330044,264.9728398330044,264.9728398330044,270.1683641250711,270.1683641250711,272.1508213750785,None,0,,,reldom2_s005,001,2025-01-30_14h33.08.096,practice_test2_AC,2022.2.5,None,
,,,,,,,,,,,,,,,,,,,,,,,,,,,,,,,,,,,,,,,,,,,,,,,,,,,,,,,,,,,,,,,,,,,,,,,,,,,,,,,,,,,,,,,,,,,,,,,,,,,272.1508213750785,,,,,,,
