Trial,Order,Block,Type,Stimuli_File1,Stimuli_File2,Stimuli_File3,Stimuli_File4,Cue_File1,Cue_File2,Response_File_Yes,Response_File_No,Match,Cue_Dimension,Pair1_Dimension,Pair2_Dimension,Key,Cue1_Duration,Cue1_Onset,Cue2_Duration,Cue2_Onset,ResponseYes_Duration,ResponseYes_Onset,ResponseNo_Duration,ResponseNo_Onset,ITI_Within,ITI_Between,Image1_Duration,Image1_Onset,Image2_Duration,Image2_Onset,Image3_Duration,Image3_Onset,Image4_Duration,Image4_Onset,Sound1_Duration,Sound1_Onset,Sound2_Duration,Sound2_Onset,Sound3_Duration,Sound3_Onset,Sound4_Duration,Sound4_Onset,Fixation_Duration,trials_2.thisRepN,trials_2.thisTrialN,trials_2.thisN,trials_2.thisIndex,trials.thisRepN,trials.thisTrialN,trials.thisN,trials.thisIndex,text_start.started,key_resp_start.started,key_resp_start.keys,key_resp_start.rt,text2.started,key_resp_2.started,key_resp_2.keys,key_resp_2.rt,cue_file1.started,cue_file1.stopped,image_1.started,image_1.stopped,image_2.started,image_2.stopped,sound_icon1.started,sound_icon1.stopped,sound_1.started,sound_1.stopped,sound_icon2.started,sound_icon2.stopped,sound_2.started,sound_2.stopped,image_blank_1.started,image_blank_1.stopped,key_press.started,key_press.stopped,fixation_text.started,cue_file2.started,cue_file2.stopped,image_3.started,image_3.stopped,image_4.started,image_4.stopped,sound_icon3.started,sound_icon3.stopped,sound_3.started,sound_3.stopped,sound_icon4.started,sound_icon4.stopped,sound_4.started,sound_4.stopped,response_yes.started,response_yes.stopped,response_no.started,response_no.stopped,iti_blank.started,iti_blank.stopped,fixation_text.stopped,key_press.keys,key_press.corr,key_press.rt,participant,session,date,expName,psychopyVersion,frameRate,
,,,,,,,,,,,,,,,,,,,,,,,,,,,,,,,,,,,,,,,,,,,,,,,,,,,,8.783669875000669,8.783669875000669,2,17.39784870800031,,,,,,,,,,,,,,,,,,,,,,,,,,,,,,,,,,,,,,,,,,,,,,,,reldom2_s005,001,2025-01-30_15h24.31.788,Vis-B-Scan_AC,2022.2.5,None,
,,,,,,,,,,,,,,,,,,,,,,,,,,,,,,,,,,,,,,,,,,,,0,0,0,0,,,,,,,,,26.212894958000106,26.212894958000106,5,19.146112207999977,,,,,,,,,,,,,,,,,,,,,,,,,,,,,,,,,,,,,,,,,,,,reldom2_s005,001,2025-01-30_15h24.31.788,Vis-B-Scan_AC,2022.2.5,None,
,,,,,,,,,,,,,,,,,,,,,,,,,,,,,,,,,,,,,,,,,,,,1,0,1,0,,,,,,,,,45.37345587500022,45.37345587500022,5,1.9857148749997577,,,,,,,,,,,,,,,,,,,,,,,,,,,,,,,,,,,,,,,,,,,,reldom2_s005,001,2025-01-30_15h24.31.788,Vis-B-Scan_AC,2022.2.5,None,
,,,,,,,,,,,,,,,,,,,,,,,,,,,,,,,,,,,,,,,,,,,,2,0,2,0,,,,,,,,,47.3679828330005,47.3679828330005,5,1.9904946669994388,,,,,,,,,,,,,,,,,,,,,,,,,,,,,,,,,,,,,,,,,,,,reldom2_s005,001,2025-01-30_15h24.31.788,Vis-B-Scan_AC,2022.2.5,None,
,,,,,,,,,,,,,,,,,,,,,,,,,,,,,,,,,,,,,,,,,,,,3,0,3,0,,,,,,,,,49.374378833000264,49.374378833000264,5,1.983123249999153,,,,,,,,,,,,,,,,,,,,,,,,,,,,,,,,,,,,,,,,,,,,reldom2_s005,001,2025-01-30_15h24.31.788,Vis-B-Scan_AC,2022.2.5,None,
0,0.0,None,fixation,stimulus/viswhere_stim/blank_white.png,stimulus/viswhere_stim/blank_white.png,stimulus/viswhat_stim/blank_white.png,stimulus/viswhat_stim/blank_white.png,stimulus/viswhere_stim/blank_white.png,stimulus/viswhere_stim/blank_white.png,stimulus/viswhere_stim/blank_white.png,stimulus/viswhere_stim/blank_white.png,0.0,0.0,0.0,0.0,0,0.0,0,0.0,0,0.0,0,0.0,0,0.0,0.0,0,0.0,0,0.0,0,0.0,0,0.0,0,0,0,0,0,0,0,0,16,,,,,0,0,0,0,,,,,,,,,51.56402804100071,51.56402804100071,51.56402804100071,51.56402804100071,51.56402804100071,51.56402804100071,51.56402804100071,51.56402804100071,51.45376516633345,51.56402804100071,51.56402804100071,51.56402804100071,51.45376516633345,51.56402804100071,51.56402804100071,51.56402804100071,51.56402804100071,51.56402804100071,51.56402804100071,51.56402804100071,51.56402804100071,51.56402804100071,51.56402804100071,51.56402804100071,51.56402804100071,51.56402804100071,51.56402804100071,51.52043183300011,51.56402804100071,51.56402804100071,51.56402804100071,51.52043183300011,51.56402804100071,51.56402804100071,51.56402804100071,51.56402804100071,51.56402804100071,56.73921895800049,56.73921895800049,67.74873258300067,None,0,,reldom2_s005,001,2025-01-30_15h24.31.788,Vis-B-Scan_AC,2022.2.5,None,
1,First_Order,1.0,viswhere,stimulus/viswhere_stim/blank_white.png,stimulus/viswhere_stim/blank_white.png,stimulus/viswhere_stim/150-deg_dot-left_royalblue.png,stimulus/viswhere_stim/150-deg_dot-right_peru.png,stimulus/viswhere_stim/blank_white.png,stimulus/viswhere_stim/dot_box.png,stimulus/viswhere_stim/dot_yes.png,stimulus/viswhere_stim/dot_no.png,None,Dot,None,Line,2,0.0,0,5.125,0,5.125,0,5.125,0,0.0,0.625,0,0.0,0,0.0,1,0.5,1,2.125,0,0,0,0,0,0,0,0,0,,,,,0,1,1,1,,,,,,,,,67.74873258300067,67.74873258300067,67.74873258300067,67.74873258300067,67.74873258300067,67.74873258300067,67.74873258300067,67.74873258300067,67.72708779099995,67.74873258300067,67.74873258300067,67.74873258300067,67.72708779099995,67.74873258300067,67.74873258300067,67.74873258300067,69.84674562500004,73.81136008300018,67.74873258300067,67.74873258300067,72.87159512500057,68.22561287500048,69.23691866600075,69.84674562500004,70.86329125000066,67.74873258300067,67.74873258300067,67.74375445766661,67.74873258300067,67.74873258300067,67.74873258300067,67.74375445766661,67.74873258300067,67.74873258300067,72.87159512500057,67.74873258300067,72.87159512500057,72.96916483299992,73.59458183300012,67.74873258300067,2,1,0.7597125829997822,reldom2_s005,001,2025-01-30_15h24.31.788,Vis-B-Scan_AC,2022.2.5,None,
2,First_Order,1.0,viswhere,stimulus/viswhere_stim/blank_white.png,stimulus/viswhere_stim/blank_white.png,stimulus/viswhere_stim/30-deg_dot-left_salmon.png,stimulus/viswhere_stim/30-deg_dot-right_seagreen.png,stimulus/viswhere_stim/blank_white.png,stimulus/viswhere_stim/dot_box.png,stimulus/viswhere_stim/dot_yes.png,stimulus/viswhere_stim/dot_no.png,None,Dot,None,Line,2,0.0,0,5.125,0,5.125,0,5.125,0,0.0,0.625,0,0.0,0,0.0,1,0.5,1,2.125,0,0,0,0,0,0,0,0,0,,,,,0,2,2,2,,,,,,,,,73.81136008300018,73.81136008300018,73.81136008300018,73.81136008300018,73.81136008300018,73.81136008300018,73.81136008300018,73.81136008300018,73.79022795833346,73.81136008300018,73.81136008300018,73.81136008300018,73.79022795833346,73.81136008300018,73.81136008300018,73.81136008300018,75.91762208300042,79.87896137500047,73.81136008300018,73.81136008300018,78.94289037500039,74.28518870800053,75.29016191600022,75.91762208300042,76.92831183300041,73.81136008300018,73.81136008300018,73.80689462500013,73.81136008300018,73.81136008300018,73.81136008300018,73.80689462500013,73.81136008300018,73.81136008300018,78.94289037500039,73.81136008300018,78.94289037500039,79.03048562500044,79.66807574999984,73.81136008300018,2,1,0.6550022080000417,reldom2_s005,001,2025-01-30_15h24.31.788,Vis-B-Scan_AC,2022.2.5,None,
3,First_Order,1.0,viswhere,stimulus/viswhere_stim/blank_white.png,stimulus/viswhere_stim/blank_white.png,stimulus/viswhere_stim/120-deg_dot-left_goldenrod.png,stimulus/viswhere_stim/30-deg_dot-left_slateblue.png,stimulus/viswhere_stim/blank_white.png,stimulus/viswhere_stim/dot_box.png,stimulus/viswhere_stim/dot_yes.png,stimulus/viswhere_stim/dot_no.png,None,Dot,None,Dot,1,0.0,0,5.125,0,5.125,0,5.125,0,0.0,0.625,0,0.0,0,0.0,1,0.5,1,2.125,0,0,0,0,0,0,0,0,0,,,,,0,3,3,3,,,,,,,,,79.87896137500047,79.87896137500047,79.87896137500047,79.87896137500047,79.87896137500047,79.87896137500047,79.87896137500047,79.87896137500047,79.85831379133317,79.87896137500047,79.87896137500047,79.87896137500047,79.85831379133317,79.87896137500047,79.87896137500047,79.87896137500047,81.99203625000064,85.93604758299989,79.87896137500047,79.87896137500047,85.01403420800034,80.35363287500059,81.36443879099988,81.99203625000064,83.0064274160004,79.87896137500047,79.87896137500047,79.87498045799984,79.87896137500047,79.87896137500047,79.87896137500047,79.87498045799984,79.87896137500047,79.87896137500047,85.01403420800034,79.87896137500047,85.01403420800034,85.11399925000023,85.74906545800059,79.87896137500047,1,1,1.1201474589997815,reldom2_s005,001,2025-01-30_15h24.31.788,Vis-B-Scan_AC,2022.2.5,None,
4,First_Order,1.0,viswhere,stimulus/viswhere_stim/blank_white.png,stimulus/viswhere_stim/blank_white.png,stimulus/viswhere_stim/150-deg_dot-right_royalblue.png,stimulus/viswhere_stim/30-deg_dot-right_salmon.png,stimulus/viswhere_stim/blank_white.png,stimulus/viswhere_stim/line_box.png,stimulus/viswhere_stim/line_yes.png,stimulus/viswhere_stim/line_no.png,None,Line,None,Dot,2,0.0,0,5.125,0,5.125,0,5.125,0,0.0,0.625,0,0.0,0,0.0,1,0.5,1,2.125,0,0,0,0,0,0,0,0,0,,,,,0,4,4,4,,,,,,,,,85.93604758299989,85.93604758299989,85.93604758299989,85.93604758299989,85.93604758299989,85.93604758299989,85.93604758299989,85.93604758299989,85.91568933333322,85.93604758299989,85.93604758299989,85.93604758299989,85.91568933333322,85.93604758299989,85.93604758299989,85.93604758299989,88.03977775000021,92.08387754100022,85.93604758299989,85.93604758299989,91.06089783300013,86.41842087500027,87.42370041600043,88.03977775000021,89.04822562500067,85.93604758299989,85.93604758299989,85.93235599999988,85.93604758299989,85.93604758299989,85.93604758299989,85.93235599999988,85.93604758299989,85.93604758299989,91.06089783300013,85.93604758299989,91.06089783300013,91.1584723750002,91.78966191600011,85.93604758299989,2,1,1.443543540999599,reldom2_s005,001,2025-01-30_15h24.31.788,Vis-B-Scan_AC,2022.2.5,None,
0,0.0,None,fixation,stimulus/viswhere_stim/blank_white.png,stimulus/viswhere_stim/blank_white.png,stimulus/viswhat_stim/blank_white.png,stimulus/viswhat_stim/blank_white.png,stimulus/viswhere_stim/blank_white.png,stimulus/viswhere_stim/blank_white.png,stimulus/viswhere_stim/blank_white.png,stimulus/viswhere_stim/blank_white.png,0.0,0.0,0.0,0.0,0,0.0,0,0.0,0,0.0,0,0.0,0,0.0,0.0,0,0.0,0,0.0,0,0.0,0,0.0,0,0,0,0,0,0,0,0,9,,,,,0,5,5,5,,,,,,,,,92.08387754100022,92.08387754100022,92.08387754100022,92.08387754100022,92.08387754100022,92.08387754100022,92.08387754100022,92.08387754100022,91.98381599933357,92.08387754100022,92.08387754100022,92.08387754100022,91.98381599933357,92.08387754100022,92.08387754100022,92.08387754100022,92.08387754100022,92.08387754100022,92.08387754100022,92.08387754100022,92.08387754100022,92.08387754100022,92.08387754100022,92.08387754100022,92.08387754100022,92.08387754100022,92.08387754100022,92.03381599933357,92.08387754100022,92.08387754100022,92.08387754100022,92.03381599933357,92.08387754100022,92.08387754100022,92.08387754100022,92.08387754100022,92.08387754100022,97.27931208300015,97.27931208300015,101.22908845800066,None,0,,reldom2_s005,001,2025-01-30_15h24.31.788,Vis-B-Scan_AC,2022.2.5,None,
5,Second_Order,1.0,viswhere,stimulus/viswhere_stim/90-deg_dot-left_mediumslateblue.png,stimulus/viswhere_stim/30-deg_dot-left_slateblue.png,stimulus/viswhere_stim/90-deg_dot-left_royalblue.png,stimulus/viswhere_stim/90-deg_dot-right_goldenrod.png,stimulus/viswhere_stim/match_blank.png,stimulus/viswhere_stim/match_box.png,stimulus/viswhere_stim/match_yes.png,stimulus/viswhere_stim/match_no.png,2.0,Match,Dot,Line,2,5.125,0,5.125,0,5.125,0,5.125,0,0.75,0.75,1,0.5,1,2.125,1,0.5,1,2.125,0,0,0,0,0,0,0,0,0,,,,,0,6,6,6,,,,,,,,,101.22908845800066,106.35206025000025,101.7069097500007,102.70536583300054,103.32761075000053,104.32590579099997,101.22908845800066,101.22908845800066,101.22733558266724,101.22908845800066,101.22908845800066,101.22908845800066,101.22733558266724,101.22908845800066,106.35206025000025,107.13336216600055,109.219084458,113.11292924999998,107.13336216600055,107.13336216600055,112.26757220800027,107.59798795799998,108.60250150000047,109.219084458,110.23338341599992,107.13336216600055,107.13336216600055,107.1198298333334,107.13336216600055,107.13336216600055,107.13336216600055,107.1198298333334,107.13336216600055,107.13336216600055,112.26757220800027,107.13336216600055,112.26757220800027,112.33749745800014,113.11292924999998,107.13336216600055,2,1,0.6404554589998952,reldom2_s005,001,2025-01-30_15h24.31.788,Vis-B-Scan_AC,2022.2.5,None,
6,Second_Order,1.0,viswhere,stimulus/viswhere_stim/30-deg_dot-right_turquoise.png,stimulus/viswhere_stim/30-deg_dot-left_goldenrod.png,stimulus/viswhere_stim/60-deg_dot-left_salmon.png,stimulus/viswhere_stim/60-deg_dot-right_slateblue.png,stimulus/viswhere_stim/match_blank.png,stimulus/viswhere_stim/match_box.png,stimulus/viswhere_stim/match_yes.png,stimulus/viswhere_stim/match_no.png,1.0,Match,Line,Line,1,5.125,0,5.125,0,5.125,0,5.125,0,0.625,0.625,1,0.5,1,2.125,1,0.5,1,2.125,0,0,0,0,0,0,0,0,0,,,,,0,7,7,7,,,,,,,,,113.11292924999998,118.23019837500033,113.59711362500002,114.58684870800062,115.22184737499992,116.21949762500026,113.11292924999998,113.11292924999998,113.12544004100054,113.11292924999998,113.11292924999998,113.11292924999998,113.12544004100054,113.11292924999998,118.23019837500033,118.88804945800075,120.98157487500066,125.02236220800023,118.88804945800075,118.88804945800075,124.01577783300036,119.34863112499988,120.3681165830003,120.98157487500066,121.99022825000065,118.88804945800075,118.88804945800075,118.87621170833384,118.88804945800075,118.88804945800075,118.88804945800075,118.87621170833384,118.88804945800075,118.88804945800075,124.01577783300036,118.88804945800075,124.01577783300036,124.09806008300075,124.72452687500027,118.88804945800075,2,0,0.6531650420001824,reldom2_s005,001,2025-01-30_15h24.31.788,Vis-B-Scan_AC,2022.2.5,None,
0,0.0,None,fixation,stimulus/viswhere_stim/blank_white.png,stimulus/viswhere_stim/blank_white.png,stimulus/viswhat_stim/blank_white.png,stimulus/viswhat_stim/blank_white.png,stimulus/viswhere_stim/blank_white.png,stimulus/viswhere_stim/blank_white.png,stimulus/viswhere_stim/blank_white.png,stimulus/viswhere_stim/blank_white.png,0.0,0.0,0.0,0.0,0,0.0,0,0.0,0,0.0,0,0.0,0,0.0,0.0,0,0.0,0,0.0,0,0.0,0,0.0,0,0,0,0,0,0,0,0,9,,,,,0,8,8,8,,,,,,,,,125.02236220800023,125.02236220800023,125.02236220800023,125.02236220800023,125.02236220800023,125.02236220800023,125.02236220800023,125.02236220800023,124.92232512433323,125.02236220800023,125.02236220800023,125.02236220800023,124.92232512433323,125.02236220800023,125.02236220800023,125.02236220800023,125.02236220800023,125.02236220800023,125.02236220800023,125.02236220800023,125.02236220800023,125.02236220800023,125.02236220800023,125.02236220800023,125.02236220800023,125.02236220800023,125.02236220800023,124.97232512433322,125.02236220800023,125.02236220800023,125.02236220800023,124.97232512433322,125.02236220800023,125.02236220800023,125.02236220800023,125.02236220800023,125.02236220800023,130.23321920800026,130.23321920800026,134.21398608300024,None,0,,reldom2_s005,001,2025-01-30_15h24.31.788,Vis-B-Scan_AC,2022.2.5,None,
7,First_Order,2.0,viswhere,stimulus/viswhere_stim/blank_white.png,stimulus/viswhere_stim/blank_white.png,stimulus/viswhere_stim/60-deg_dot-right_peru.png,stimulus/viswhere_stim/120-deg_dot-right_goldenrod.png,stimulus/viswhere_stim/blank_white.png,stimulus/viswhere_stim/line_box.png,stimulus/viswhere_stim/line_yes.png,stimulus/viswhere_stim/line_no.png,None,Line,None,Dot,2,0.0,0,5.125,0,5.125,0,5.125,0,0.0,0.625,0,0.0,0,0.0,1,0.5,1,2.125,0,0,0,0,0,0,0,0,0,,,,,0,9,9,9,,,,,,,,,134.21398608300024,134.21398608300024,134.21398608300024,134.21398608300024,134.21398608300024,134.21398608300024,134.21398608300024,134.21398608300024,134.19142662466737,134.21398608300024,134.21398608300024,134.21398608300024,134.19142662466737,134.21398608300024,134.21398608300024,134.21398608300024,136.31695854100053,140.2829248750004,134.21398608300024,134.21398608300024,139.3557956250006,134.69655029100068,135.70091987500018,136.31695854100053,137.32504454100035,134.21398608300024,134.21398608300024,134.20809329133402,134.21398608300024,134.21398608300024,134.21398608300024,134.20809329133402,134.21398608300024,134.21398608300024,139.3557956250006,134.21398608300024,139.3557956250006,139.43919229099993,140.06460375000006,134.21398608300024,2,1,1.8120467500002633,reldom2_s005,001,2025-01-30_15h24.31.788,Vis-B-Scan_AC,2022.2.5,None,
8,First_Order,2.0,viswhere,stimulus/viswhere_stim/blank_white.png,stimulus/viswhere_stim/blank_white.png,stimulus/viswhere_stim/90-deg_dot-left_turquoise.png,stimulus/viswhere_stim/90-deg_dot-right_peru.png,stimulus/viswhere_stim/blank_white.png,stimulus/viswhere_stim/line_box.png,stimulus/viswhere_stim/line_yes.png,stimulus/viswhere_stim/line_no.png,None,Line,None,Line,1,0.0,0,5.125,0,5.125,0,5.125,0,0.0,0.625,0,0.0,0,0.0,1,0.5,1,2.125,0,0,0,0,0,0,0,0,0,,,,,0,10,10,10,,,,,,,,,140.2829248750004,140.2829248750004,140.2829248750004,140.2829248750004,140.2829248750004,140.2829248750004,140.2829248750004,140.2829248750004,140.25976745833336,140.2829248750004,140.2829248750004,140.2829248750004,140.25976745833336,140.2829248750004,140.2829248750004,140.2829248750004,142.39550037500067,146.35302370800036,140.2829248750004,140.2829248750004,145.40667754100014,140.76702145800027,141.77610416600055,142.39550037500067,143.40909533300055,140.2829248750004,140.2829248750004,140.27643412500004,140.2829248750004,140.2829248750004,140.2829248750004,140.27643412500004,140.2829248750004,140.2829248750004,145.40667754100014,140.2829248750004,145.40667754100014,145.50583474999985,146.1317829160007,140.2829248750004,1,1,0.9380224579999776,reldom2_s005,001,2025-01-30_15h24.31.788,Vis-B-Scan_AC,2022.2.5,None,
9,First_Order,2.0,viswhere,stimulus/viswhere_stim/blank_white.png,stimulus/viswhere_stim/blank_white.png,stimulus/viswhere_stim/60-deg_dot-right_seagreen.png,stimulus/viswhere_stim/120-deg_dot-right_salmon.png,stimulus/viswhere_stim/blank_white.png,stimulus/viswhere_stim/dot_box.png,stimulus/viswhere_stim/dot_yes.png,stimulus/viswhere_stim/dot_no.png,None,Dot,None,Dot,1,0.0,0,5.125,0,5.125,0,5.125,0,0.0,0.625,0,0.0,0,0.0,1,0.5,1,2.125,0,0,0,0,0,0,0,0,0,,,,,0,11,11,11,,,,,,,,,146.35302370800036,146.35302370800036,146.35302370800036,146.35302370800036,146.35302370800036,146.35302370800036,146.35302370800036,146.35302370800036,146.32609187433386,146.35302370800036,146.35302370800036,146.35302370800036,146.32609187433386,146.35302370800036,146.35302370800036,146.35302370800036,148.4529687080003,152.41251762499996,146.35302370800036,146.35302370800036,151.48619345800034,146.83470279100038,147.8388881660003,148.4529687080003,149.46169254100005,146.35302370800036,146.35302370800036,146.34275854100053,146.35302370800036,146.35302370800036,146.35302370800036,146.34275854100053,146.35302370800036,146.35302370800036,151.48619345800034,146.35302370800036,151.48619345800034,151.569545458,152.1955473750004,146.35302370800036,1,1,0.9171825829998852,reldom2_s005,001,2025-01-30_15h24.31.788,Vis-B-Scan_AC,2022.2.5,None,
10,First_Order,2.0,viswhere,stimulus/viswhere_stim/blank_white.png,stimulus/viswhere_stim/blank_white.png,stimulus/viswhere_stim/120-deg_dot-right_cyan.png,stimulus/viswhere_stim/120-deg_dot-left_turquoise.png,stimulus/viswhere_stim/blank_white.png,stimulus/viswhere_stim/line_box.png,stimulus/viswhere_stim/line_yes.png,stimulus/viswhere_stim/line_no.png,None,Line,None,Line,1,0.0,0,5.125,0,5.125,0,5.125,0,0.0,0.625,0,0.0,0,0.0,1,0.5,1,2.125,0,0,0,0,0,0,0,0,0,,,,,0,12,12,12,,,,,,,,,152.41251762499996,152.41251762499996,152.41251762499996,152.41251762499996,152.41251762499996,152.41251762499996,152.41251762499996,152.41251762499996,152.38959899933374,152.41251762499996,152.41251762499996,152.41251762499996,152.38959899933374,152.41251762499996,152.41251762499996,152.41251762499996,154.51879199999985,158.55061066600047,152.41251762499996,152.41251762499996,157.54414762500073,152.8953106250001,153.90171254100005,154.51879199999985,155.5343154580005,152.41251762499996,152.41251762499996,152.40626566600042,152.41251762499996,152.41251762499996,152.41251762499996,152.40626566600042,152.41251762499996,152.41251762499996,157.54414762500073,152.41251762499996,157.54414762500073,157.64242679100062,158.2687282500001,152.41251762499996,1,1,0.9436265000003914,reldom2_s005,001,2025-01-30_15h24.31.788,Vis-B-Scan_AC,2022.2.5,None,
0,0.0,None,fixation,stimulus/viswhere_stim/blank_white.png,stimulus/viswhere_stim/blank_white.png,stimulus/viswhat_stim/blank_white.png,stimulus/viswhat_stim/blank_white.png,stimulus/viswhere_stim/blank_white.png,stimulus/viswhere_stim/blank_white.png,stimulus/viswhere_stim/blank_white.png,stimulus/viswhere_stim/blank_white.png,0.0,0.0,0.0,0.0,0,0.0,0,0.0,0,0.0,0,0.0,0,0.0,0.0,0,0.0,0,0.0,0,0.0,0,0.0,0,0,0,0,0,0,0,0,8,,,,,0,13,13,13,,,,,,,,,158.55061066600047,158.55061066600047,158.55061066600047,158.55061066600047,158.55061066600047,158.55061066600047,158.55061066600047,158.55061066600047,158.44945245833364,158.55061066600047,158.55061066600047,158.55061066600047,158.44945245833364,158.55061066600047,158.55061066600047,158.55061066600047,158.55061066600047,158.55061066600047,158.55061066600047,158.55061066600047,158.55061066600047,158.55061066600047,158.55061066600047,158.55061066600047,158.55061066600047,158.55061066600047,158.55061066600047,158.49945245833365,158.55061066600047,158.55061066600047,158.55061066600047,158.49945245833365,158.55061066600047,158.55061066600047,158.55061066600047,158.55061066600047,158.55061066600047,163.74795437500052,163.74795437500052,166.6781395830003,None,0,,reldom2_s005,001,2025-01-30_15h24.31.788,Vis-B-Scan_AC,2022.2.5,None,
11,Second_Order,2.0,viswhere,stimulus/viswhere_stim/120-deg_dot-left_slateblue.png,stimulus/viswhere_stim/60-deg_dot-left_seagreen.png,stimulus/viswhere_stim/90-deg_dot-right_seagreen.png,stimulus/viswhere_stim/30-deg_dot-right_mediumslateblue.png,stimulus/viswhere_stim/match_blank.png,stimulus/viswhere_stim/match_box.png,stimulus/viswhere_stim/match_yes.png,stimulus/viswhere_stim/match_no.png,1.0,Match,Dot,Dot,1,5.125,0,5.125,0,5.125,0,5.125,0,0.75,0.75,1,0.5,1,2.125,1,0.5,1,2.125,0,0,0,0,0,0,0,0,0,,,,,0,14,14,14,,,,,,,,,166.6781395830003,171.79815712500022,167.15813350000008,168.15610141600064,168.7804623330003,169.7766434160003,166.6781395830003,166.6781395830003,166.68875937433327,166.6781395830003,166.6781395830003,166.6781395830003,166.68875937433327,166.6781395830003,171.79815712500022,172.58188516600057,174.66235612499986,178.56635070799985,172.58188516600057,172.58188516600057,177.72127799999998,173.04873225000028,174.06091241600006,174.66235612499986,175.67855750000035,172.58188516600057,172.58188516600057,172.56688308333338,172.58188516600057,172.58188516600057,172.58188516600057,172.56688308333338,172.58188516600057,172.58188516600057,177.72127799999998,172.58188516600057,177.72127799999998,177.7915224160006,178.56635070799985,172.58188516600057,1,1,1.1319293750002544,reldom2_s005,001,2025-01-30_15h24.31.788,Vis-B-Scan_AC,2022.2.5,None,
12,Second_Order,2.0,viswhere,stimulus/viswhere_stim/90-deg_dot-right_cyan.png,stimulus/viswhere_stim/90-deg_dot-left_salmon.png,stimulus/viswhere_stim/30-deg_dot-left_goldenrod.png,stimulus/viswhere_stim/60-deg_dot-left_turquoise.png,stimulus/viswhere_stim/match_blank.png,stimulus/viswhere_stim/match_box.png,stimulus/viswhere_stim/match_yes.png,stimulus/viswhere_stim/match_no.png,2.0,Match,Line,Dot,2,5.125,0,5.125,0,5.125,0,5.125,0,0.625,0.625,1,0.5,1,2.125,1,0.5,1,2.125,0,0,0,0,0,0,0,0,0,,,,,0,15,15,15,,,,,,,,,178.56635070799985,183.67974570800015,179.0521670830003,180.05025162499987,180.67314087500017,181.67099475000032,178.56635070799985,178.56635070799985,178.5792044580001,178.56635070799985,178.56635070799985,178.56635070799985,178.5792044580001,178.56635070799985,183.67974570800015,184.3356410410006,186.42512225000064,190.46787516600034,184.3356410410006,184.3356410410006,189.47401187500054,184.79955991600036,185.80767100000048,186.42512225000064,187.43562158300028,184.3356410410006,184.3356410410006,184.32696474933397,184.3356410410006,184.3356410410006,184.3356410410006,184.32696474933397,184.3356410410006,184.3356410410006,189.47401187500054,184.3356410410006,189.47401187500054,189.54258737500004,190.1697997500005,184.3356410410006,1,0,1.3440805840000394,reldom2_s005,001,2025-01-30_15h24.31.788,Vis-B-Scan_AC,2022.2.5,None,
0,0.0,None,fixation,stimulus/viswhere_stim/blank_white.png,stimulus/viswhere_stim/blank_white.png,stimulus/viswhat_stim/blank_white.png,stimulus/viswhat_stim/blank_white.png,stimulus/viswhere_stim/blank_white.png,stimulus/viswhere_stim/blank_white.png,stimulus/viswhere_stim/blank_white.png,stimulus/viswhere_stim/blank_white.png,0.0,0.0,0.0,0.0,0,0.0,0,0.0,0,0.0,0,0.0,0,0.0,0.0,0,0.0,0,0.0,0,0.0,0,0.0,0,0,0,0,0,0,0,0,10,,,,,0,16,16,16,,,,,,,,,190.46787516600034,190.46787516600034,190.46787516600034,190.46787516600034,190.46787516600034,190.46787516600034,190.46787516600034,190.46787516600034,190.3639202083335,190.46787516600034,190.46787516600034,190.46787516600034,190.3639202083335,190.46787516600034,190.46787516600034,190.46787516600034,190.46787516600034,190.46787516600034,190.46787516600034,190.46787516600034,190.46787516600034,190.46787516600034,190.46787516600034,190.46787516600034,190.46787516600034,190.46787516600034,190.46787516600034,190.4139202083335,190.46787516600034,190.46787516600034,190.46787516600034,190.4139202083335,190.46787516600034,190.46787516600034,190.46787516600034,190.46787516600034,190.46787516600034,195.68786158300009,195.68786158300009,200.7516859160005,None,0,,reldom2_s005,001,2025-01-30_15h24.31.788,Vis-B-Scan_AC,2022.2.5,None,
13,First_Order,3.0,viswhat,stimulus/viswhat_stim/blank_white.png,stimulus/viswhat_stim/blank_white.png,stimulus/viswhat_stim/land_animal-moose.png,stimulus/viswhat_stim/water_animal-whale (1).png,stimulus/viswhat_stim/blank_white.png,stimulus/viswhat_stim/type_box.png,stimulus/viswhat_stim/type_yes.png,stimulus/viswhat_stim/type_no.png,None,Type,None,Type,1,0.0,0,5.125,0,5.125,0,5.125,0,0.0,0.625,0,0.0,0,0.0,1,0.5,1,2.125,0,0,0,0,0,0,0,0,0,,,,,0,17,17,17,,,,,,,,,200.7516859160005,200.7516859160005,200.7516859160005,200.7516859160005,200.7516859160005,200.7516859160005,200.7516859160005,200.7516859160005,200.64322833266732,200.7516859160005,200.7516859160005,200.7516859160005,200.64322833266732,200.7516859160005,200.7516859160005,200.7516859160005,202.82839833300022,,200.7516859160005,200.7516859160005,205.96800454100048,201.22617012499995,202.2959240830005,202.82839833300022,203.89601358300024,200.7516859160005,200.7516859160005,200.6932283326673,200.7516859160005,200.7516859160005,200.7516859160005,200.6932283326673,200.7516859160005,200.7516859160005,205.96800454100048,200.7516859160005,205.96800454100048,205.96800454100048,206.81375241600017,200.7516859160005,1,1,1.6316712090001602,reldom2_s005,001,2025-01-30_15h24.31.788,Vis-B-Scan_AC,2022.2.5,None,
14,First_Order,3.0,viswhat,stimulus/viswhat_stim/blank_white.png,stimulus/viswhat_stim/blank_white.png,stimulus/viswhat_stim/land_vehicle-trolley.png,stimulus/viswhat_stim/water_vehicle-jetski.png,stimulus/viswhat_stim/blank_white.png,stimulus/viswhat_stim/location_box.png,stimulus/viswhat_stim/location_yes.png,stimulus/viswhat_stim/location_no.png,None,Location,None,Type,2,0.0,0,5.125,0,5.125,0,5.125,0,0.0,0.625,0,0.0,0,0.0,1,0.5,1,2.125,0,0,0,0,0,0,0,0,0,,,,,0,18,18,18,,,,,,,,,206.81375241600017,206.81375241600017,206.81375241600017,206.81375241600017,206.81375241600017,206.81375241600017,206.81375241600017,206.81375241600017,206.7778599166674,206.81375241600017,206.81375241600017,206.81375241600017,206.7778599166674,206.81375241600017,206.81375241600017,206.81375241600017,208.90603900000042,212.8824422080006,206.81375241600017,206.81375241600017,211.9469777080003,207.2983795,208.3202124160007,208.90603900000042,209.9324757080003,206.81375241600017,206.81375241600017,206.79452658333406,206.81375241600017,206.81375241600017,206.81375241600017,206.79452658333406,206.81375241600017,206.81375241600017,211.9469777080003,206.81375241600017,211.9469777080003,212.02517516600074,212.65542458300024,206.81375241600017,2,1,1.1004380000003948,reldom2_s005,001,2025-01-30_15h24.31.788,Vis-B-Scan_AC,2022.2.5,None,
15,First_Order,3.0,viswhat,stimulus/viswhat_stim/blank_white.png,stimulus/viswhat_stim/blank_white.png,stimulus/viswhat_stim/land_animal-ostrich.png,stimulus/viswhat_stim/land_vehicle-train.png,stimulus/viswhat_stim/blank_white.png,stimulus/viswhat_stim/location_box.png,stimulus/viswhat_stim/location_yes.png,stimulus/viswhat_stim/location_no.png,None,Location,None,Location,1,0.0,0,5.125,0,5.125,0,5.125,0,0.0,0.625,0,0.0,0,0.0,1,0.5,1,2.125,0,0,0,0,0,0,0,0,0,,,,,0,19,19,19,,,,,,,,,212.8824422080006,212.8824422080006,212.8824422080006,212.8824422080006,212.8824422080006,212.8824422080006,212.8824422080006,212.8824422080006,212.85294558299995,212.8824422080006,212.8824422080006,212.8824422080006,212.85294558299995,212.8824422080006,212.8824422080006,212.8824422080006,214.98773858300046,219.28536450000047,212.8824422080006,212.8824422080006,218.01381225000023,213.35045524999987,214.35804316600024,214.98773858300046,215.99843537500055,212.8824422080006,212.8824422080006,212.8696122496666,212.8824422080006,212.8824422080006,212.8824422080006,212.8696122496666,212.8824422080006,212.8824422080006,218.01381225000023,212.8824422080006,218.01381225000023,218.1015679580005,218.7377242500006,212.8824422080006,1,1,1.223704082999575,reldom2_s005,001,2025-01-30_15h24.31.788,Vis-B-Scan_AC,2022.2.5,None,
16,First_Order,3.0,viswhat,stimulus/viswhat_stim/blank_white.png,stimulus/viswhat_stim/blank_white.png,stimulus/viswhat_stim/water_animal-lobster.png,stimulus/viswhat_stim/land_animal-moose.png,stimulus/viswhat_stim/blank_white.png,stimulus/viswhat_stim/location_box.png,stimulus/viswhat_stim/location_yes.png,stimulus/viswhat_stim/location_no.png,None,Location,None,Type,2,0.0,0,5.125,0,5.125,0,5.125,0,0.0,0.625,0,0.0,0,0.0,1,0.5,1,2.125,0,0,0,0,0,0,0,0,0,,,,,0,20,20,20,,,,,,,,,219.28536450000047,219.28536450000047,219.28536450000047,219.28536450000047,219.28536450000047,219.28536450000047,219.28536450000047,219.28536450000047,218.91079320833373,219.28536450000047,219.28536450000047,219.28536450000047,218.91079320833373,219.28536450000047,219.28536450000047,219.28536450000047,221.28679833300066,,219.28536450000047,219.28536450000047,224.74489883300066,219.65137075000075,220.92280879100053,221.28679833300066,222.56573712499994,219.28536450000047,219.28536450000047,219.11079320833375,219.28536450000047,219.28536450000047,219.28536450000047,219.11079320833375,219.28536450000047,219.28536450000047,224.74489883300066,219.28536450000047,224.74489883300066,224.3860503750002,,219.28536450000047,2,1,1.4442603749994305,reldom2_s005,001,2025-01-30_15h24.31.788,Vis-B-Scan_AC,2022.2.5,None,
0,0.0,None,fixation,stimulus/viswhere_stim/blank_white.png,stimulus/viswhere_stim/blank_white.png,stimulus/viswhat_stim/blank_white.png,stimulus/viswhat_stim/blank_white.png,stimulus/viswhere_stim/blank_white.png,stimulus/viswhere_stim/blank_white.png,stimulus/viswhere_stim/blank_white.png,stimulus/viswhere_stim/blank_white.png,0.0,0.0,0.0,0.0,0,0.0,0,0.0,0,0.0,0,0.0,0,0.0,0.0,0,0.0,0,0.0,0,0.0,0,0.0,0,0,0,0,0,0,0,0,8,,,,,0,21,21,21,,,,,,,,,225.25683691599988,225.25683691599988,225.25683691599988,225.25683691599988,225.25683691599988,225.25683691599988,225.25683691599988,225.25683691599988,225.14489883300067,225.25683691599988,225.25683691599988,225.25683691599988,225.14489883300067,225.25683691599988,225.25683691599988,225.25683691599988,225.25683691599988,225.25683691599988,225.25683691599988,225.25683691599988,225.25683691599988,225.25683691599988,225.25683691599988,225.25683691599988,225.25683691599988,225.25683691599988,225.25683691599988,225.21156549966733,225.25683691599988,225.25683691599988,225.25683691599988,225.21156549966733,225.25683691599988,225.25683691599988,225.25683691599988,225.25683691599988,225.25683691599988,230.47129870800018,230.47129870800018,233.3967655410006,None,0,,reldom2_s005,001,2025-01-30_15h24.31.788,Vis-B-Scan_AC,2022.2.5,None,
17,Second_Order,3.0,viswhat,stimulus/viswhat_stim/land_animal-giraffe.png,stimulus/viswhat_stim/water_animal-stingray.png,stimulus/viswhat_stim/water_animal-squid.png,stimulus/viswhat_stim/water_vehicle-yacht.png,stimulus/viswhere_stim/match_blank.png,stimulus/viswhere_stim/match_box.png,stimulus/viswhere_stim/match_yes.png,stimulus/viswhere_stim/match_no.png,2.0,Match,Type,Location,2,5.125,0,5.125,0,5.125,0,5.125,0,0.75,0.75,1,0.5,1,2.125,1,0.5,1,2.125,0,0,0,0,0,0,0,0,0,,,,,0,22,22,22,,,,,,,,,233.3967655410006,238.5184237500007,233.84539341600066,234.84333183299987,235.46593979099998,236.46374245800052,233.3967655410006,233.3967655410006,233.40896120766655,233.3967655410006,233.3967655410006,233.3967655410006,233.40896120766655,233.3967655410006,238.5184237500007,239.33963425000002,241.411813791,,239.33963425000002,239.33963425000002,244.482498458,239.8015854160003,240.83538008300002,241.411813791,242.45370770800037,239.33963425000002,239.33963425000002,239.30368120800068,239.33963425000002,239.33963425000002,239.33963425000002,239.30368120800068,239.33963425000002,239.33963425000002,244.482498458,239.33963425000002,244.482498458,244.54836787500062,,239.33963425000002,2,1,0.6834792910003671,reldom2_s005,001,2025-01-30_15h24.31.788,Vis-B-Scan_AC,2022.2.5,None,
18,Second_Order,3.0,viswhat,stimulus/viswhat_stim/water_animal-whale (1).png,stimulus/viswhat_stim/land_animal-tiger.png,stimulus/viswhat_stim/water_animal-orka.png,stimulus/viswhat_stim/water_vehicle-cargoboat.png,stimulus/viswhere_stim/match_blank.png,stimulus/viswhere_stim/match_box.png,stimulus/viswhere_stim/match_yes.png,stimulus/viswhere_stim/match_no.png,2.0,Match,Type,Location,2,5.125,0,5.125,0,5.125,0,5.125,0,0.625,0.625,1,0.5,1,2.125,1,0.5,1,2.125,0,0,0,0,0,0,0,0,0,,,,,0,23,23,23,,,,,,,,,245.33110337500057,250.45087183300075,245.7892967910002,246.78763295800036,247.41079129100035,248.40809479100062,245.33110337500057,245.33110337500057,245.33353333300022,245.33110337500057,245.33110337500057,245.33110337500057,245.33353333300022,245.33110337500057,250.45087183300075,251.2070442080003,253.27290304100006,,251.2070442080003,251.2070442080003,256.4119511250001,251.6742752910004,252.74091470800067,253.27290304100006,254.3501737080005,251.2070442080003,251.2070442080003,251.14754541633405,251.2070442080003,251.2070442080003,251.2070442080003,251.14754541633405,251.2070442080003,251.2070442080003,256.4119511250001,251.2070442080003,256.4119511250001,256.4119511250001,257.30841362499996,251.2070442080003,2,1,0.7967261249996227,reldom2_s005,001,2025-01-30_15h24.31.788,Vis-B-Scan_AC,2022.2.5,None,
0,0.0,None,fixation,stimulus/viswhere_stim/blank_white.png,stimulus/viswhere_stim/blank_white.png,stimulus/viswhat_stim/blank_white.png,stimulus/viswhat_stim/blank_white.png,stimulus/viswhere_stim/blank_white.png,stimulus/viswhere_stim/blank_white.png,stimulus/viswhere_stim/blank_white.png,stimulus/viswhere_stim/blank_white.png,0.0,0.0,0.0,0.0,0,0.0,0,0.0,0,0.0,0,0.0,0,0.0,0.0,0,0.0,0,0.0,0,0.0,0,0.0,0,0,0,0,0,0,0,0,9,,,,,0,24,24,24,,,,,,,,,257.30841362499996,257.30841362499996,257.30841362499996,257.30841362499996,257.30841362499996,257.30841362499996,257.30841362499996,257.30841362499996,257.20264849933386,257.30841362499996,257.30841362499996,257.30841362499996,257.20264849933386,257.30841362499996,257.30841362499996,257.30841362499996,257.30841362499996,257.30841362499996,257.30841362499996,257.30841362499996,257.30841362499996,257.30841362499996,257.30841362499996,257.30841362499996,257.30841362499996,257.30841362499996,257.30841362499996,257.2526484993338,257.30841362499996,257.30841362499996,257.30841362499996,257.2526484993338,257.30841362499996,257.30841362499996,257.30841362499996,257.30841362499996,257.30841362499996,262.48400325000057,262.48400325000057,266.52931162500045,None,0,,reldom2_s005,001,2025-01-30_15h24.31.788,Vis-B-Scan_AC,2022.2.5,None,
19,First_Order,4.0,viswhat,stimulus/viswhat_stim/blank_white.png,stimulus/viswhat_stim/blank_white.png,stimulus/viswhat_stim/water_animal-dolphin.png,stimulus/viswhat_stim/water_vehicle-canoe.png,stimulus/viswhat_stim/blank_white.png,stimulus/viswhat_stim/type_box.png,stimulus/viswhat_stim/type_yes.png,stimulus/viswhat_stim/type_no.png,None,Type,None,Location,2,0.0,0,5.125,0,5.125,0,5.125,0,0.0,0.625,0,0.0,0,0.0,1,0.5,1,2.125,0,0,0,0,0,0,0,0,0,,,,,0,25,25,25,,,,,,,,,266.52931162500045,266.52931162500045,266.52931162500045,266.52931162500045,266.52931162500045,266.52931162500045,266.52931162500045,266.52931162500045,266.4844203326671,266.52931162500045,266.52931162500045,266.52931162500045,266.4844203326671,266.52931162500045,266.52931162500045,266.52931162500045,268.61813712500043,272.67596808300004,266.52931162500045,266.52931162500045,271.6809905,266.9991822910006,268.029718625,268.61813712500043,269.6512390000007,266.52931162500045,266.52931162500045,266.50108699933384,266.52931162500045,266.52931162500045,266.52931162500045,266.50108699933384,266.52931162500045,266.52931162500045,271.6809905,266.52931162500045,271.6809905,271.7522803330003,272.39194795799995,266.52931162500045,2,1,1.495165457999974,reldom2_s005,001,2025-01-30_15h24.31.788,Vis-B-Scan_AC,2022.2.5,None,
20,First_Order,4.0,viswhat,stimulus/viswhat_stim/blank_white.png,stimulus/viswhat_stim/blank_white.png,stimulus/viswhat_stim/land_animal-elephant.png,stimulus/viswhat_stim/land_vehicle-pickuptruck.png,stimulus/viswhat_stim/blank_white.png,stimulus/viswhat_stim/type_box.png,stimulus/viswhat_stim/type_yes.png,stimulus/viswhat_stim/type_no.png,None,Type,None,Location,2,0.0,0,5.125,0,5.125,0,5.125,0,0.0,0.625,0,0.0,0,0.0,1,0.5,1,2.125,0,0,0,0,0,0,0,0,0,,,,,0,26,26,26,,,,,,,,,272.67596808300004,272.67596808300004,272.67596808300004,272.67596808300004,272.67596808300004,272.67596808300004,272.67596808300004,272.67596808300004,272.56285799999984,272.67596808300004,272.67596808300004,272.67596808300004,272.56285799999984,272.67596808300004,272.67596808300004,272.67596808300004,274.7278838330003,,272.67596808300004,272.67596808300004,277.86562341600074,273.1591924580007,274.24552641599985,274.7278838330003,275.81479862500055,272.67596808300004,272.67596808300004,272.6295246666665,272.67596808300004,272.67596808300004,272.67596808300004,272.6295246666665,272.67596808300004,272.67596808300004,277.86562341600074,272.67596808300004,277.86562341600074,277.86562341600074,278.92378775,272.67596808300004,2,1,1.7924897920001968,reldom2_s005,001,2025-01-30_15h24.31.788,Vis-B-Scan_AC,2022.2.5,None,
21,First_Order,4.0,viswhat,stimulus/viswhat_stim/blank_white.png,stimulus/viswhat_stim/blank_white.png,stimulus/viswhat_stim/water_vehicle-cruiseship.png,stimulus/viswhat_stim/land_vehicle-oldcar.png,stimulus/viswhat_stim/blank_white.png,stimulus/viswhat_stim/type_box.png,stimulus/viswhat_stim/type_yes.png,stimulus/viswhat_stim/type_no.png,None,Type,None,Type,1,0.0,0,5.125,0,5.125,0,5.125,0,0.0,0.625,0,0.0,0,0.0,1,0.5,1,2.125,0,0,0,0,0,0,0,0,0,,,,,0,27,27,27,,,,,,,,,278.92378775,278.92378775,278.92378775,278.92378775,278.92378775,278.92378775,278.92378775,278.92378775,278.688117291667,278.92378775,278.92378775,278.92378775,278.688117291667,278.92378775,278.92378775,278.92378775,280.9262184580002,285.07407095800045,278.92378775,278.92378775,284.21983358299985,279.3949534580006,280.5746984160005,280.9262184580002,282.1074402080003,278.92378775,278.92378775,278.8047839583337,278.92378775,278.92378775,278.92378775,278.8047839583337,278.92378775,278.92378775,284.21983358299985,278.92378775,284.21983358299985,284.1083015000004,,278.92378775,1,1,1.0666974169998866,reldom2_s005,001,2025-01-30_15h24.31.788,Vis-B-Scan_AC,2022.2.5,None,
22,First_Order,4.0,viswhat,stimulus/viswhat_stim/blank_white.png,stimulus/viswhat_stim/blank_white.png,stimulus/viswhat_stim/water_vehicle-pirateship.png,stimulus/viswhat_stim/water_animal-orka.png,stimulus/viswhat_stim/blank_white.png,stimulus/viswhat_stim/location_box.png,stimulus/viswhat_stim/location_yes.png,stimulus/viswhat_stim/location_no.png,None,Location,None,Location,1,0.0,0,5.125,0,5.125,0,5.125,0,0.0,0.625,0,0.0,0,0.0,1,0.5,1,2.125,0,0,0,0,0,0,0,0,0,,,,,0,28,28,28,,,,,,,,,285.07407095800045,285.07407095800045,285.07407095800045,285.07407095800045,285.07407095800045,285.07407095800045,285.07407095800045,285.07407095800045,284.9522156663338,285.07407095800045,285.07407095800045,285.07407095800045,284.9522156663338,285.07407095800045,285.07407095800045,285.07407095800045,287.18452166600036,291.2149354580006,285.07407095800045,285.07407095800045,290.24963829100034,285.54976879100013,286.63735670799997,287.18452166600036,288.27814645800026,285.07407095800045,285.07407095800045,285.0188823330005,285.07407095800045,285.07407095800045,285.07407095800045,285.0188823330005,285.07407095800045,285.07407095800045,290.24963829100034,285.07407095800045,290.24963829100034,290.24963829100034,290.93277000000035,285.07407095800045,1,1,0.49773479099985707,reldom2_s005,001,2025-01-30_15h24.31.788,Vis-B-Scan_AC,2022.2.5,None,
0,0.0,None,fixation,stimulus/viswhere_stim/blank_white.png,stimulus/viswhere_stim/blank_white.png,stimulus/viswhat_stim/blank_white.png,stimulus/viswhat_stim/blank_white.png,stimulus/viswhere_stim/blank_white.png,stimulus/viswhere_stim/blank_white.png,stimulus/viswhere_stim/blank_white.png,stimulus/viswhere_stim/blank_white.png,0.0,0.0,0.0,0.0,0,0.0,0,0.0,0,0.0,0,0.0,0,0.0,0.0,0,0.0,0,0.0,0,0.0,0,0.0,0,0,0,0,0,0,0,0,10,,,,,0,29,29,29,,,,,,,,,291.2149354580006,291.2149354580006,291.2149354580006,291.2149354580006,291.2149354580006,291.2149354580006,291.2149354580006,291.2149354580006,291.1161033333337,291.2149354580006,291.2149354580006,291.2149354580006,291.1161033333337,291.2149354580006,291.2149354580006,291.2149354580006,291.2149354580006,291.2149354580006,291.2149354580006,291.2149354580006,291.2149354580006,291.2149354580006,291.2149354580006,291.2149354580006,291.2149354580006,291.2149354580006,291.2149354580006,291.16610333333364,291.2149354580006,291.2149354580006,291.2149354580006,291.16610333333364,291.2149354580006,291.2149354580006,291.2149354580006,291.2149354580006,291.2149354580006,296.4396611250004,296.4396611250004,301.3574387080007,None,0,,reldom2_s005,001,2025-01-30_15h24.31.788,Vis-B-Scan_AC,2022.2.5,None,
23,Second_Order,4.0,viswhat,stimulus/viswhat_stim/land_vehicle-pickuptruck.png,stimulus/viswhat_stim/land_animal-lion.png,stimulus/viswhat_stim/water_animal-jellyfish.png,stimulus/viswhat_stim/water_vehicle-cabincruiser.png,stimulus/viswhere_stim/match_blank.png,stimulus/viswhere_stim/match_box.png,stimulus/viswhere_stim/match_yes.png,stimulus/viswhere_stim/match_no.png,1.0,Match,Location,Location,1,5.125,0,5.125,0,5.125,0,5.125,0,0.75,0.75,1,0.5,1,2.125,1,0.5,1,2.125,0,0,0,0,0,0,0,0,0,,,,,0,30,30,30,,,,,,,,,301.3574387080007,306.4800582910002,301.81836620800004,302.8168071250002,303.439446458,304.43728937500055,301.3574387080007,301.3574387080007,301.36989075000054,301.3574387080007,301.3574387080007,301.3574387080007,301.36989075000054,301.3574387080007,306.4800582910002,307.30379604100017,309.37069154100027,,307.30379604100017,307.30379604100017,312.45733745800044,307.7501267910002,308.8030342910006,309.37069154100027,310.4323056660005,307.30379604100017,307.30379604100017,307.26467125000073,307.30379604100017,307.30379604100017,307.30379604100017,307.26467125000073,307.30379604100017,307.30379604100017,312.45733745800044,307.30379604100017,312.45733745800044,312.49208050000016,,307.30379604100017,1,1,0.7366011670001171,reldom2_s005,001,2025-01-30_15h24.31.788,Vis-B-Scan_AC,2022.2.5,None,
24,Second_Order,4.0,viswhat,stimulus/viswhat_stim/water_vehicle-pirateship.png,stimulus/viswhat_stim/land_vehicle-oldcar.png,stimulus/viswhat_stim/land_animal-zebra.png,stimulus/viswhat_stim/water_animal-seahorse.png,stimulus/viswhere_stim/match_blank.png,stimulus/viswhere_stim/match_box.png,stimulus/viswhere_stim/match_yes.png,stimulus/viswhere_stim/match_no.png,1.0,Match,Type,Type,1,5.125,0,5.125,0,5.125,0,5.125,0,0.625,0.625,1,0.5,1,2.125,1,0.5,1,2.125,0,0,0,0,0,0,0,0,0,,,,,0,31,31,31,,,,,,,,,313.29259966600057,318.4094044580006,313.7458832910006,314.74422491600035,315.379383083,316.3680959580006,313.29259966600057,313.29259966600057,313.3051285416667,313.29259966600057,313.29259966600057,313.29259966600057,313.3051285416667,313.29259966600057,318.4094044580006,319.0789217500005,321.15722133300005,325.2076488749999,319.0789217500005,319.0789217500005,324.2140451660007,319.55034429100033,320.56529924999995,321.15722133300005,322.18070958299995,319.0789217500005,319.0789217500005,319.0542051243333,319.0789217500005,319.0789217500005,319.0789217500005,319.0542051243333,319.0789217500005,319.0789217500005,324.2140451660007,319.0789217500005,324.2140451660007,324.2899789580006,324.9172503330001,319.0789217500005,1,1,0.4194777909997356,reldom2_s005,001,2025-01-30_15h24.31.788,Vis-B-Scan_AC,2022.2.5,None,
0,0.0,None,fixation,stimulus/viswhere_stim/blank_white.png,stimulus/viswhere_stim/blank_white.png,stimulus/viswhat_stim/blank_white.png,stimulus/viswhat_stim/blank_white.png,stimulus/viswhere_stim/blank_white.png,stimulus/viswhere_stim/blank_white.png,stimulus/viswhere_stim/blank_white.png,stimulus/viswhere_stim/blank_white.png,0.0,0.0,0.0,0.0,0,0.0,0,0.0,0,0.0,0,0.0,0,0.0,0.0,0,0.0,0,0.0,0,0.0,0,0.0,0,0,0,0,0,0,0,0,9,,,,,0,32,32,32,,,,,,,,,325.2076488749999,325.2076488749999,325.2076488749999,325.2076488749999,325.2076488749999,325.2076488749999,325.2076488749999,325.2076488749999,325.11080912500034,325.2076488749999,325.2076488749999,325.2076488749999,325.11080912500034,325.2076488749999,325.2076488749999,325.2076488749999,325.2076488749999,325.2076488749999,325.2076488749999,325.2076488749999,325.2076488749999,325.2076488749999,325.2076488749999,325.2076488749999,325.2076488749999,325.2076488749999,325.2076488749999,325.16080912500036,325.2076488749999,325.2076488749999,325.2076488749999,325.16080912500036,325.2076488749999,325.2076488749999,325.2076488749999,325.2076488749999,325.2076488749999,330.3947519580006,330.3947519580006,334.42202825000004,None,0,,reldom2_s005,001,2025-01-30_15h24.31.788,Vis-B-Scan_AC,2022.2.5,None,
25,First_Order,5.0,viswhere,stimulus/viswhere_stim/blank_white.png,stimulus/viswhere_stim/blank_white.png,stimulus/viswhere_stim/90-deg_dot-right_seagreen.png,stimulus/viswhere_stim/150-deg_dot-right_turquoise.png,stimulus/viswhere_stim/blank_white.png,stimulus/viswhere_stim/line_box.png,stimulus/viswhere_stim/line_yes.png,stimulus/viswhere_stim/line_no.png,None,Line,None,Dot,2,0.0,0,5.125,0,5.125,0,5.125,0,0.0,0.625,0,0.0,0,0.0,1,0.5,1,2.125,0,0,0,0,0,0,0,0,0,,,,,0,33,33,33,,,,,,,,,334.42202825000004,334.42202825000004,334.42202825000004,334.42202825000004,334.42202825000004,334.42202825000004,334.42202825000004,334.42202825000004,334.39953758266677,334.42202825000004,334.42202825000004,334.42202825000004,334.39953758266677,334.42202825000004,334.42202825000004,334.42202825000004,336.53171012500025,340.48737170799996,334.42202825000004,334.42202825000004,339.5465927080004,334.91074862500045,335.92578587500066,336.53171012500025,337.553020458,334.42202825000004,334.42202825000004,334.4162042493335,334.42202825000004,334.42202825000004,334.42202825000004,334.4162042493335,334.42202825000004,334.42202825000004,339.5465927080004,334.42202825000004,339.5465927080004,339.64547720800056,340.26909700000033,334.42202825000004,2,1,1.0810530420003488,reldom2_s005,001,2025-01-30_15h24.31.788,Vis-B-Scan_AC,2022.2.5,None,
26,First_Order,5.0,viswhere,stimulus/viswhere_stim/blank_white.png,stimulus/viswhere_stim/blank_white.png,stimulus/viswhere_stim/150-deg_dot-left_seagreen.png,stimulus/viswhere_stim/150-deg_dot-right_seagreen.png,stimulus/viswhere_stim/blank_white.png,stimulus/viswhere_stim/dot_box.png,stimulus/viswhere_stim/dot_yes.png,stimulus/viswhere_stim/dot_no.png,None,Dot,None,Line,2,0.0,0,5.125,0,5.125,0,5.125,0,0.0,0.625,0,0.0,0,0.0,1,0.5,1,2.125,0,0,0,0,0,0,0,0,0,,,,,0,34,34,34,,,,,,,,,340.48737170799996,340.48737170799996,340.48737170799996,340.48737170799996,340.48737170799996,340.48737170799996,340.48737170799996,340.48737170799996,340.463257208334,340.48737170799996,340.48737170799996,340.48737170799996,340.463257208334,340.48737170799996,340.48737170799996,340.48737170799996,342.6025701660001,346.55727045799995,340.48737170799996,340.48737170799996,345.628082833,340.9776917910003,341.9981270830003,342.6025701660001,343.606699125,340.48737170799996,340.48737170799996,340.4799238750007,340.48737170799996,340.48737170799996,340.48737170799996,340.4799238750007,340.48737170799996,340.48737170799996,345.628082833,340.48737170799996,345.628082833,345.7127046250007,346.33878687500055,340.48737170799996,2,1,1.230759125000077,reldom2_s005,001,2025-01-30_15h24.31.788,Vis-B-Scan_AC,2022.2.5,None,
27,First_Order,5.0,viswhere,stimulus/viswhere_stim/blank_white.png,stimulus/viswhere_stim/blank_white.png,stimulus/viswhere_stim/90-deg_dot-left_turquoise.png,stimulus/viswhere_stim/90-deg_dot-right_seagreen.png,stimulus/viswhere_stim/blank_white.png,stimulus/viswhere_stim/line_box.png,stimulus/viswhere_stim/line_yes.png,stimulus/viswhere_stim/line_no.png,None,Line,None,Line,1,0.0,0,5.125,0,5.125,0,5.125,0,0.0,0.625,0,0.0,0,0.0,1,0.5,1,2.125,0,0,0,0,0,0,0,0,0,,,,,0,35,35,35,,,,,,,,,346.55727045799995,346.55727045799995,346.55727045799995,346.55727045799995,346.55727045799995,346.55727045799995,346.55727045799995,346.55727045799995,346.53331662433385,346.55727045799995,346.55727045799995,346.55727045799995,346.53331662433385,346.55727045799995,346.55727045799995,346.55727045799995,348.6622010830006,352.6316372500005,346.55727045799995,346.55727045799995,351.6860422910004,347.04514612500043,348.06021266600055,348.6622010830006,349.68107387500004,346.55727045799995,346.55727045799995,346.5499832910005,346.55727045799995,346.55727045799995,346.55727045799995,346.5499832910005,346.55727045799995,346.55727045799995,351.6860422910004,346.55727045799995,351.6860422910004,351.78449691600053,352.41068466600063,346.55727045799995,1,1,0.9819526249993942,reldom2_s005,001,2025-01-30_15h24.31.788,Vis-B-Scan_AC,2022.2.5,None,
28,First_Order,5.0,viswhere,stimulus/viswhere_stim/blank_white.png,stimulus/viswhere_stim/blank_white.png,stimulus/viswhere_stim/120-deg_dot-right_mediumslateblue.png,stimulus/viswhere_stim/90-deg_dot-right_lightsseagreen.png,stimulus/viswhere_stim/blank_white.png,stimulus/viswhere_stim/dot_box.png,stimulus/viswhere_stim/dot_yes.png,stimulus/viswhere_stim/dot_no.png,None,Dot,None,Dot,1,0.0,0,5.125,0,5.125,0,5.125,0,0.0,0.625,0,0.0,0,0.0,1,0.5,1,2.125,0,0,0,0,0,0,0,0,0,,,,,0,36,36,36,,,,,,,,,352.6316372500005,352.6316372500005,352.6316372500005,352.6316372500005,352.6316372500005,352.6316372500005,352.6316372500005,352.6316372500005,352.60480154133376,352.6316372500005,352.6316372500005,352.6316372500005,352.60480154133376,352.6316372500005,352.6316372500005,352.6316372500005,354.7262034579999,358.777037541,352.6316372500005,352.6316372500005,357.75607291600045,353.1174944160002,354.12575112500053,354.7262034579999,355.7405055830004,352.6316372500005,352.6316372500005,352.6214682080004,352.6316372500005,352.6316372500005,352.6316372500005,352.6214682080004,352.6316372500005,352.6316372500005,357.75607291600045,352.6316372500005,357.75607291600045,357.85415875000035,358.4800752910005,352.6316372500005,1,1,0.6334618750006484,reldom2_s005,001,2025-01-30_15h24.31.788,Vis-B-Scan_AC,2022.2.5,None,
0,0.0,None,fixation,stimulus/viswhere_stim/blank_white.png,stimulus/viswhere_stim/blank_white.png,stimulus/viswhat_stim/blank_white.png,stimulus/viswhat_stim/blank_white.png,stimulus/viswhere_stim/blank_white.png,stimulus/viswhere_stim/blank_white.png,stimulus/viswhere_stim/blank_white.png,stimulus/viswhere_stim/blank_white.png,0.0,0.0,0.0,0.0,0,0.0,0,0.0,0,0.0,0,0.0,0,0.0,0.0,0,0.0,0,0.0,0,0.0,0,0.0,0,0,0,0,0,0,0,0,10,,,,,0,37,37,37,,,,,,,,,358.777037541,358.777037541,358.777037541,358.777037541,358.777037541,358.777037541,358.777037541,358.777037541,358.6750334583333,358.777037541,358.777037541,358.777037541,358.6750334583333,358.777037541,358.777037541,358.777037541,358.777037541,358.777037541,358.777037541,358.777037541,358.777037541,358.777037541,358.777037541,358.777037541,358.777037541,358.777037541,358.777037541,358.7250334583333,358.777037541,358.777037541,358.777037541,358.7250334583333,358.777037541,358.777037541,358.777037541,358.777037541,358.777037541,363.993736333,363.993736333,368.899184375,None,0,,reldom2_s005,001,2025-01-30_15h24.31.788,Vis-B-Scan_AC,2022.2.5,None,
29,Second_Order,5.0,viswhere,stimulus/viswhere_stim/30-deg_dot-right_peru.png,stimulus/viswhere_stim/120-deg_dot-right_royalblue.png,stimulus/viswhere_stim/120-deg_dot-left_lightsseagreen.png,stimulus/viswhere_stim/90-deg_dot-left_seagreen.png,stimulus/viswhere_stim/match_blank.png,stimulus/viswhere_stim/match_box.png,stimulus/viswhere_stim/match_yes.png,stimulus/viswhere_stim/match_no.png,1.0,Match,Dot,Dot,1,5.125,0,5.125,0,5.125,0,5.125,0,0.75,0.75,1,0.5,1,2.125,1,0.5,1,2.125,0,0,0,0,0,0,0,0,0,,,,,0,38,38,38,,,,,,,,,368.899184375,374.01898470800006,369.37447625000004,370.37284879100025,371.007534458,371.99686641600056,368.899184375,368.899184375,368.9108823333337,368.899184375,368.899184375,368.899184375,368.9108823333337,368.899184375,374.01898470800006,374.7992893750006,376.88400816600006,380.7802954580002,374.7992893750006,374.7992893750006,379.93035945800057,375.2676671250001,376.2818870000001,376.88400816600006,377.904219,374.7992893750006,374.7992893750006,374.7874374583339,374.7992893750006,374.7992893750006,374.7992893750006,374.7874374583339,374.7992893750006,374.7992893750006,379.93035945800057,374.7992893750006,379.93035945800057,380.00520941600007,380.7802954580002,374.7992893750006,1,1,0.5836071249996166,reldom2_s005,001,2025-01-30_15h24.31.788,Vis-B-Scan_AC,2022.2.5,None,
30,Second_Order,5.0,viswhere,stimulus/viswhere_stim/60-deg_dot-right_seagreen.png,stimulus/viswhere_stim/60-deg_dot-left_slateblue.png,stimulus/viswhere_stim/120-deg_dot-left_seagreen.png,stimulus/viswhere_stim/30-deg_dot-left_cyan.png,stimulus/viswhere_stim/match_blank.png,stimulus/viswhere_stim/match_box.png,stimulus/viswhere_stim/match_yes.png,stimulus/viswhere_stim/match_no.png,2.0,Match,Line,Dot,2,5.125,0,5.125,0,5.125,0,5.125,0,0.625,0.625,1,0.5,1,2.125,1,0.5,1,2.125,0,0,0,0,0,0,0,0,0,,,,,0,39,39,39,,,,,,,,,380.7802954580002,385.8972838330001,381.26471745800063,382.25402895800016,382.8901269580001,383.88712175,380.7802954580002,380.7802954580002,380.7927852910005,380.7802954580002,380.7802954580002,380.7802954580002,380.7927852910005,380.7802954580002,385.8972838330001,386.5547361660001,388.6501693330001,392.6803527080001,386.5547361660001,386.5547361660001,391.68756787500024,387.0200126660002,388.02992512499986,388.6501693330001,389.66715091600054,386.5547361660001,386.5547361660001,386.54348324933335,386.5547361660001,386.5547361660001,386.5547361660001,386.54348324933335,386.5547361660001,386.5547361660001,391.68756787500024,386.5547361660001,391.68756787500024,391.7712068330002,392.3969559160005,386.5547361660001,2,1,0.5659824590002245,reldom2_s005,001,2025-01-30_15h24.31.788,Vis-B-Scan_AC,2022.2.5,None,
0,0.0,None,fixation,stimulus/viswhere_stim/blank_white.png,stimulus/viswhere_stim/blank_white.png,stimulus/viswhat_stim/blank_white.png,stimulus/viswhat_stim/blank_white.png,stimulus/viswhere_stim/blank_white.png,stimulus/viswhere_stim/blank_white.png,stimulus/viswhere_stim/blank_white.png,stimulus/viswhere_stim/blank_white.png,0.0,0.0,0.0,0.0,0,0.0,0,0.0,0,0.0,0,0.0,0,0.0,0.0,0,0.0,0,0.0,0,0.0,0,0.0,0,0,0,0,0,0,0,0,9,,,,,0,40,40,40,,,,,,,,,392.6803527080001,392.6803527080001,392.6803527080001,392.6803527080001,392.6803527080001,392.6803527080001,392.6803527080001,392.6803527080001,392.57729912433325,392.6803527080001,392.6803527080001,392.6803527080001,392.57729912433325,392.6803527080001,392.6803527080001,392.6803527080001,392.6803527080001,392.6803527080001,392.6803527080001,392.6803527080001,392.6803527080001,392.6803527080001,392.6803527080001,392.6803527080001,392.6803527080001,392.6803527080001,392.6803527080001,392.62729912433326,392.6803527080001,392.6803527080001,392.6803527080001,392.62729912433326,392.6803527080001,392.6803527080001,392.6803527080001,392.6803527080001,392.6803527080001,397.89044841600025,397.89044841600025,401.87595670800056,None,0,,reldom2_s005,001,2025-01-30_15h24.31.788,Vis-B-Scan_AC,2022.2.5,None,
31,First_Order,6.0,viswhere,stimulus/viswhere_stim/blank_white.png,stimulus/viswhere_stim/blank_white.png,stimulus/viswhere_stim/120-deg_dot-left_royalblue.png,stimulus/viswhere_stim/30-deg_dot-left_goldenrod.png,stimulus/viswhere_stim/blank_white.png,stimulus/viswhere_stim/dot_box.png,stimulus/viswhere_stim/dot_yes.png,stimulus/viswhere_stim/dot_no.png,None,Dot,None,Dot,1,0.0,0,5.125,0,5.125,0,5.125,0,0.0,0.625,0,0.0,0,0.0,1,0.5,1,2.125,0,0,0,0,0,0,0,0,0,,,,,0,41,41,41,,,,,,,,,401.87595670800056,401.87595670800056,401.87595670800056,401.87595670800056,401.87595670800056,401.87595670800056,401.87595670800056,401.87595670800056,401.8523781246673,401.87595670800056,401.87595670800056,401.87595670800056,401.8523781246673,401.87595670800056,401.87595670800056,401.87595670800056,403.9830051660001,407.94356912500007,401.87595670800056,401.87595670800056,407.0087516250005,402.3595060000007,403.3654028330002,403.9830051660001,404.99359116600044,401.87595670800056,401.87595670800056,401.86904479133403,401.87595670800056,401.87595670800056,401.87595670800056,401.86904479133403,401.87595670800056,401.87595670800056,407.0087516250005,401.87595670800056,407.0087516250005,407.09247304100063,407.7245337080003,401.87595670800056,2,0,2.3689328749997003,reldom2_s005,001,2025-01-30_15h24.31.788,Vis-B-Scan_AC,2022.2.5,None,
32,First_Order,6.0,viswhere,stimulus/viswhere_stim/blank_white.png,stimulus/viswhere_stim/blank_white.png,stimulus/viswhere_stim/150-deg_dot-left_salmon.png,stimulus/viswhere_stim/150-deg_dot-right_salmon.png,stimulus/viswhere_stim/blank_white.png,stimulus/viswhere_stim/dot_box.png,stimulus/viswhere_stim/dot_yes.png,stimulus/viswhere_stim/dot_no.png,None,Dot,None,Line,2,0.0,0,5.125,0,5.125,0,5.125,0,0.0,0.625,0,0.0,0,0.0,1,0.5,1,2.125,0,0,0,0,0,0,0,0,0,,,,,0,42,42,42,,,,,,,,,407.94356912500007,407.94356912500007,407.94356912500007,407.94356912500007,407.94356912500007,407.94356912500007,407.94356912500007,407.94356912500007,407.9188078333339,407.94356912500007,407.94356912500007,407.94356912500007,407.9188078333339,407.94356912500007,407.94356912500007,407.94356912500007,410.0596021250003,414.01312550000057,407.94356912500007,407.94356912500007,413.08042770800057,408.43318766599987,409.45387054100047,410.0596021250003,411.06168404100026,407.94356912500007,407.94356912500007,407.93547450000057,407.94356912500007,407.94356912500007,407.94356912500007,407.93547450000057,407.94356912500007,407.94356912500007,413.08042770800057,407.94356912500007,413.08042770800057,413.1652962500002,413.79410379100045,407.94356912500007,2,1,1.118714541999907,reldom2_s005,001,2025-01-30_15h24.31.788,Vis-B-Scan_AC,2022.2.5,None,
33,First_Order,6.0,viswhere,stimulus/viswhere_stim/blank_white.png,stimulus/viswhere_stim/blank_white.png,stimulus/viswhere_stim/150-deg_dot-left_cyan.png,stimulus/viswhere_stim/150-deg_dot-right_seagreen.png,stimulus/viswhere_stim/blank_white.png,stimulus/viswhere_stim/line_box.png,stimulus/viswhere_stim/line_yes.png,stimulus/viswhere_stim/line_no.png,None,Line,None,Line,1,0.0,0,5.125,0,5.125,0,5.125,0,0.0,0.625,0,0.0,0,0.0,1,0.5,1,2.125,0,0,0,0,0,0,0,0,0,,,,,0,43,43,43,,,,,,,,,414.01312550000057,414.01312550000057,414.01312550000057,414.01312550000057,414.01312550000057,414.01312550000057,414.01312550000057,414.01312550000057,413.9887370833333,414.01312550000057,414.01312550000057,414.01312550000057,413.9887370833333,414.01312550000057,414.01312550000057,414.01312550000057,416.1106860830005,420.081254875,414.01312550000057,414.01312550000057,419.14703975000066,414.5039578750002,415.52431420799985,416.1106860830005,417.1167662910002,414.01312550000057,414.01312550000057,414.00540374999997,414.01312550000057,414.01312550000057,414.01312550000057,414.00540374999997,414.01312550000057,414.01312550000057,419.14703975000066,414.01312550000057,419.14703975000066,419.2513973750001,419.8860287910002,414.01312550000057,1,1,0.5958313330002056,reldom2_s005,001,2025-01-30_15h24.31.788,Vis-B-Scan_AC,2022.2.5,None,
34,First_Order,6.0,viswhere,stimulus/viswhere_stim/blank_white.png,stimulus/viswhere_stim/blank_white.png,stimulus/viswhere_stim/150-deg_dot-right_cyan.png,stimulus/viswhere_stim/120-deg_dot-right_cyan.png,stimulus/viswhere_stim/blank_white.png,stimulus/viswhere_stim/line_box.png,stimulus/viswhere_stim/line_yes.png,stimulus/viswhere_stim/line_no.png,None,Line,None,Dot,2,0.0,0,5.125,0,5.125,0,5.125,0,0.0,0.625,0,0.0,0,0.0,1,0.5,1,2.125,0,0,0,0,0,0,0,0,0,,,,,0,44,44,44,,,,,,,,,420.081254875,420.081254875,420.081254875,420.081254875,420.081254875,420.081254875,420.081254875,420.081254875,420.0528822913332,420.081254875,420.081254875,420.081254875,420.0528822913332,420.081254875,420.081254875,420.081254875,422.18798445799985,426.22613212500073,420.081254875,420.081254875,425.21759491600005,420.55046141599996,421.56531950000044,422.18798445799985,423.2053567080002,420.081254875,420.081254875,420.06954895799987,420.081254875,420.081254875,420.081254875,420.06954895799987,420.081254875,420.081254875,425.21759491600005,420.081254875,425.21759491600005,425.3011393750003,425.930222125,420.081254875,2,1,1.1618415839993759,reldom2_s005,001,2025-01-30_15h24.31.788,Vis-B-Scan_AC,2022.2.5,None,
0,0.0,None,fixation,stimulus/viswhere_stim/blank_white.png,stimulus/viswhere_stim/blank_white.png,stimulus/viswhat_stim/blank_white.png,stimulus/viswhat_stim/blank_white.png,stimulus/viswhere_stim/blank_white.png,stimulus/viswhere_stim/blank_white.png,stimulus/viswhere_stim/blank_white.png,stimulus/viswhere_stim/blank_white.png,0.0,0.0,0.0,0.0,0,0.0,0,0.0,0,0.0,0,0.0,0,0.0,0.0,0,0.0,0,0.0,0,0.0,0,0.0,0,0,0,0,0,0,0,0,8,,,,,0,45,45,45,,,,,,,,,426.22613212500073,426.22613212500073,426.22613212500073,426.22613212500073,426.22613212500073,426.22613212500073,426.22613212500073,426.22613212500073,426.1246971663334,426.22613212500073,426.22613212500073,426.22613212500073,426.1246971663334,426.22613212500073,426.22613212500073,426.22613212500073,426.22613212500073,426.22613212500073,426.22613212500073,426.22613212500073,426.22613212500073,426.22613212500073,426.22613212500073,426.22613212500073,426.22613212500073,426.22613212500073,426.22613212500073,426.17469716633343,426.22613212500073,426.22613212500073,426.22613212500073,426.17469716633343,426.22613212500073,426.22613212500073,426.22613212500073,426.22613212500073,426.22613212500073,431.4555344999999,431.4555344999999,434.3550127080007,None,0,,reldom2_s005,001,2025-01-30_15h24.31.788,Vis-B-Scan_AC,2022.2.5,None,
35,Second_Order,6.0,viswhere,stimulus/viswhere_stim/60-deg_dot-right_cyan.png,stimulus/viswhere_stim/60-deg_dot-left_goldenrod.png,stimulus/viswhere_stim/150-deg_dot-left_salmon.png,stimulus/viswhere_stim/150-deg_dot-right_goldenrod.png,stimulus/viswhere_stim/match_blank.png,stimulus/viswhere_stim/match_box.png,stimulus/viswhere_stim/match_yes.png,stimulus/viswhere_stim/match_no.png,1.0,Match,Line,Line,1,5.125,0,5.125,0,5.125,0,5.125,0,0.75,0.75,1,0.5,1,2.125,1,0.5,1,2.125,0,0,0,0,0,0,0,0,0,,,,,0,46,46,46,,,,,,,,,434.3550127080007,439.46972479099986,434.8378963750001,435.8269716250006,436.4627433750002,437.4607155829999,434.3550127080007,434.3550127080007,434.36652008333397,434.3550127080007,434.3550127080007,434.3550127080007,434.36652008333397,434.3550127080007,439.46972479099986,440.2481662910004,442.3347684999999,446.23825300000044,440.2481662910004,440.2481662910004,445.3782519160004,440.72041637500024,441.72652079100044,442.3347684999999,443.34618562500054,440.2481662910004,440.2481662910004,440.2373633333332,440.2481662910004,440.2481662910004,440.2481662910004,440.2373633333332,440.2481662910004,440.2481662910004,445.3782519160004,440.2481662910004,445.3782519160004,445.46411791599985,446.23825300000044,440.2481662910004,1,1,0.7155987910000476,reldom2_s005,001,2025-01-30_15h24.31.788,Vis-B-Scan_AC,2022.2.5,None,
36,Second_Order,6.0,viswhere,stimulus/viswhere_stim/120-deg_dot-right_slateblue.png,stimulus/viswhere_stim/120-deg_dot-left_royalblue.png,stimulus/viswhere_stim/150-deg_dot-right_royalblue.png,stimulus/viswhere_stim/150-deg_dot-left_salmon.png,stimulus/viswhere_stim/match_blank.png,stimulus/viswhere_stim/match_box.png,stimulus/viswhere_stim/match_yes.png,stimulus/viswhere_stim/match_no.png,1.0,Match,Line,Line,1,5.125,0,5.125,0,5.125,0,5.125,0,0.625,0.625,1,0.5,1,2.125,1,0.5,1,2.125,0,0,0,0,0,0,0,0,0,,,,,0,47,47,47,,,,,,,,,446.23825300000044,451.35981583300054,446.7192549580004,447.71778600000016,448.3404272500002,449.3378639580005,446.23825300000044,446.23825300000044,446.249974958,446.23825300000044,446.23825300000044,446.23825300000044,446.249974958,446.23825300000044,451.35981583300054,452.0186315410001,454.1238655830002,458.1618175829999,452.0186315410001,452.0186315410001,457.1413474580004,452.4901525000005,453.4957137500005,454.1238655830002,455.13286258300013,452.0186315410001,452.0186315410001,452.0107405833337,452.0186315410001,452.0186315410001,452.0186315410001,452.0107405833337,452.0186315410001,452.0186315410001,457.1413474580004,452.0186315410001,457.1413474580004,457.2307221250003,457.8736703330005,452.0186315410001,1,1,0.9119797919993289,reldom2_s005,001,2025-01-30_15h24.31.788,Vis-B-Scan_AC,2022.2.5,None,
0,0.0,None,fixation,stimulus/viswhere_stim/blank_white.png,stimulus/viswhere_stim/blank_white.png,stimulus/viswhat_stim/blank_white.png,stimulus/viswhat_stim/blank_white.png,stimulus/viswhere_stim/blank_white.png,stimulus/viswhere_stim/blank_white.png,stimulus/viswhere_stim/blank_white.png,stimulus/viswhere_stim/blank_white.png,0.0,0.0,0.0,0.0,0,0.0,0,0.0,0,0.0,0,0.0,0,0.0,0.0,0,0.0,0,0.0,0,0.0,0,0.0,0,0,0,0,0,0,0,0,10,,,,,0,48,48,48,,,,,,,,,458.1618175829999,458.1618175829999,458.1618175829999,458.1618175829999,458.1618175829999,458.1618175829999,458.1618175829999,458.1618175829999,458.0570618333334,458.1618175829999,458.1618175829999,458.1618175829999,458.0570618333334,458.1618175829999,458.1618175829999,458.1618175829999,458.1618175829999,458.1618175829999,458.1618175829999,458.1618175829999,458.1618175829999,458.1618175829999,458.1618175829999,458.1618175829999,458.1618175829999,458.1618175829999,458.1618175829999,458.10706183333343,458.1618175829999,458.1618175829999,458.1618175829999,458.10706183333343,458.1618175829999,458.1618175829999,458.1618175829999,458.1618175829999,458.1618175829999,463.3755353330007,463.3755353330007,468.4163892080005,None,0,,reldom2_s005,001,2025-01-30_15h24.31.788,Vis-B-Scan_AC,2022.2.5,None,
37,First_Order,7.0,viswhat,stimulus/viswhat_stim/blank_white.png,stimulus/viswhat_stim/blank_white.png,stimulus/viswhat_stim/water_vehicle-sailboat.png,stimulus/viswhat_stim/land_vehicle-bus.png,stimulus/viswhat_stim/blank_white.png,stimulus/viswhat_stim/location_box.png,stimulus/viswhat_stim/location_yes.png,stimulus/viswhat_stim/location_no.png,None,Location,None,Type,2,0.0,0,5.125,0,5.125,0,5.125,0,0.0,0.625,0,0.0,0,0.0,1,0.5,1,2.125,0,0,0,0,0,0,0,0,0,,,,,0,49,49,49,,,,,,,,,468.4163892080005,468.4163892080005,468.4163892080005,468.4163892080005,468.4163892080005,468.4163892080005,468.4163892080005,468.4163892080005,468.3192504996665,468.4163892080005,468.4163892080005,468.4163892080005,468.3192504996665,468.4163892080005,468.4163892080005,468.4163892080005,470.5229241249999,,468.4163892080005,468.4163892080005,473.6059293750004,468.84746633300074,469.92933687500044,470.5229241249999,471.6063905830006,468.4163892080005,468.4163892080005,468.3692504996665,468.4163892080005,468.4163892080005,468.4163892080005,468.3692504996665,468.4163892080005,468.4163892080005,473.6059293750004,468.4163892080005,473.6059293750004,473.6059293750004,474.2778046250005,468.4163892080005,2,1,0.8881524170001285,reldom2_s005,001,2025-01-30_15h24.31.788,Vis-B-Scan_AC,2022.2.5,None,
38,First_Order,7.0,viswhat,stimulus/viswhat_stim/blank_white.png,stimulus/viswhat_stim/blank_white.png,stimulus/viswhat_stim/land_vehicle-tank.png,stimulus/viswhat_stim/land_animal-elephant.png,stimulus/viswhat_stim/blank_white.png,stimulus/viswhat_stim/type_box.png,stimulus/viswhat_stim/type_yes.png,stimulus/viswhat_stim/type_no.png,None,Type,None,Location,2,0.0,0,5.125,0,5.125,0,5.125,0,0.0,0.625,0,0.0,0,0.0,1,0.5,1,2.125,0,0,0,0,0,0,0,0,0,,,,,0,50,50,50,,,,,,,,,474.53428387500026,474.53428387500026,474.53428387500026,474.53428387500026,474.53428387500026,474.53428387500026,474.53428387500026,474.53428387500026,474.4278046250005,474.53428387500026,474.53428387500026,474.53428387500026,474.4278046250005,474.53428387500026,474.53428387500026,474.53428387500026,476.646108166,,474.53428387500026,474.53428387500026,479.69981220800037,475.00323350000053,476.0602370410006,476.646108166,477.7083217500003,474.53428387500026,474.53428387500026,474.4778046250005,474.53428387500026,474.53428387500026,474.53428387500026,474.4778046250005,474.53428387500026,474.53428387500026,479.69981220800037,474.53428387500026,479.69981220800037,479.7532598329999,480.5923939580007,474.53428387500026,1,0,0.8848872499993377,reldom2_s005,001,2025-01-30_15h24.31.788,Vis-B-Scan_AC,2022.2.5,None,
39,First_Order,7.0,viswhat,stimulus/viswhat_stim/blank_white.png,stimulus/viswhat_stim/blank_white.png,stimulus/viswhat_stim/land_animal-ostrich.png,stimulus/viswhat_stim/water_animal-whale.png,stimulus/viswhat_stim/blank_white.png,stimulus/viswhat_stim/location_box.png,stimulus/viswhat_stim/location_yes.png,stimulus/viswhat_stim/location_no.png,None,Location,None,Type,2,0.0,0,5.125,0,5.125,0,5.125,0,0.0,0.625,0,0.0,0,0.0,1,0.5,1,2.125,0,0,0,0,0,0,0,0,0,,,,,0,51,51,51,,,,,,,,,480.5923939580007,480.5923939580007,480.5923939580007,480.5923939580007,480.5923939580007,480.5923939580007,480.5923939580007,480.5923939580007,480.55426049966684,480.5923939580007,480.5923939580007,480.5923939580007,480.55426049966684,480.5923939580007,480.5923939580007,480.5923939580007,482.6939660000007,486.6601780410001,480.5923939580007,480.5923939580007,485.72590545799994,481.06846312500056,482.07999500000005,482.6939660000007,483.70871395799986,480.5923939580007,480.5923939580007,480.57092716633355,480.5923939580007,480.5923939580007,480.5923939580007,480.57092716633355,480.5923939580007,480.5923939580007,485.72590545799994,480.5923939580007,485.72590545799994,485.81458929100063,486.4590569580005,480.5923939580007,2,1,1.1089292079996085,reldom2_s005,001,2025-01-30_15h24.31.788,Vis-B-Scan_AC,2022.2.5,None,
40,First_Order,7.0,viswhat,stimulus/viswhat_stim/blank_white.png,stimulus/viswhat_stim/blank_white.png,stimulus/viswhat_stim/land_vehicle-truck.png,stimulus/viswhat_stim/land_animal-fox.png,stimulus/viswhat_stim/blank_white.png,stimulus/viswhat_stim/location_box.png,stimulus/viswhat_stim/location_yes.png,stimulus/viswhat_stim/location_no.png,None,Location,None,Location,1,0.0,0,5.125,0,5.125,0,5.125,0,0.0,0.625,0,0.0,0,0.0,1,0.5,1,2.125,0,0,0,0,0,0,0,0,0,,,,,0,52,52,52,,,,,,,,,486.6601780410001,486.6601780410001,486.6601780410001,486.6601780410001,486.6601780410001,486.6601780410001,486.6601780410001,486.6601780410001,486.6253434579999,486.6601780410001,486.6601780410001,486.6601780410001,486.6253434579999,486.6601780410001,486.6601780410001,486.6601780410001,488.7560416659999,492.81089845800034,486.6601780410001,486.6601780410001,491.78769425000064,487.1363812079999,488.16076087500005,488.7560416659999,489.7858522910001,486.6601780410001,486.6601780410001,486.6420101246666,486.6601780410001,486.6601780410001,486.6601780410001,486.6420101246666,486.6601780410001,486.6601780410001,491.78769425000064,486.6601780410001,491.78769425000064,491.87822875000074,492.5112712500004,486.6601780410001,1,1,0.8731254579997767,reldom2_s005,001,2025-01-30_15h24.31.788,Vis-B-Scan_AC,2022.2.5,None,
0,0.0,None,fixation,stimulus/viswhere_stim/blank_white.png,stimulus/viswhere_stim/blank_white.png,stimulus/viswhat_stim/blank_white.png,stimulus/viswhat_stim/blank_white.png,stimulus/viswhere_stim/blank_white.png,stimulus/viswhere_stim/blank_white.png,stimulus/viswhere_stim/blank_white.png,stimulus/viswhere_stim/blank_white.png,0.0,0.0,0.0,0.0,0,0.0,0,0.0,0,0.0,0,0.0,0,0.0,0.0,0,0.0,0,0.0,0,0.0,0,0.0,0,0,0,0,0,0,0,0,8,,,,,0,53,53,53,,,,,,,,,492.81089845800034,492.81089845800034,492.81089845800034,492.81089845800034,492.81089845800034,492.81089845800034,492.81089845800034,492.81089845800034,492.7176233750002,492.81089845800034,492.81089845800034,492.81089845800034,492.7176233750002,492.81089845800034,492.81089845800034,492.81089845800034,492.81089845800034,492.81089845800034,492.81089845800034,492.81089845800034,492.81089845800034,492.81089845800034,492.81089845800034,492.81089845800034,492.81089845800034,492.81089845800034,492.81089845800034,492.7676233750002,492.81089845800034,492.81089845800034,492.81089845800034,492.7676233750002,492.81089845800034,492.81089845800034,492.81089845800034,492.81089845800034,492.81089845800034,497.9948514580001,497.9948514580001,500.95835516600073,None,0,,reldom2_s005,001,2025-01-30_15h24.31.788,Vis-B-Scan_AC,2022.2.5,None,
41,Second_Order,7.0,viswhat,stimulus/viswhat_stim/water_animal-whale (1).png,stimulus/viswhat_stim/water_vehicle-canoe(1).png,stimulus/viswhat_stim/land_animal-tiger.png,stimulus/viswhat_stim/land_vehicle-train.png,stimulus/viswhere_stim/match_blank.png,stimulus/viswhere_stim/match_box.png,stimulus/viswhere_stim/match_yes.png,stimulus/viswhere_stim/match_no.png,1.0,Match,Location,Location,1,5.125,0,5.125,0,5.125,0,5.125,0,0.75,0.75,1,0.5,1,2.125,1,0.5,1,2.125,0,0,0,0,0,0,0,0,0,,,,,0,54,54,54,,,,,,,,,500.95835516600073,506.0733556660007,501.42871875000037,502.42712791600025,503.05054966600073,504.04769083300016,500.95835516600073,500.95835516600073,500.9623703743338,500.95835516600073,500.95835516600073,500.95835516600073,500.9623703743338,500.95835516600073,506.0733556660007,506.88212579100036,508.9641072080003,512.8913990410001,506.88212579100036,506.88212579100036,512.0392839579999,507.3610472500004,508.3844977910003,508.9641072080003,509.9927716660004,506.88212579100036,506.88212579100036,506.85840958299997,506.88212579100036,506.88212579100036,506.88212579100036,506.85840958299997,506.88212579100036,506.88212579100036,512.0392839579999,506.88212579100036,512.0392839579999,512.096396166,,506.88212579100036,1,1,1.24905120800031,reldom2_s005,001,2025-01-30_15h24.31.788,Vis-B-Scan_AC,2022.2.5,None,
42,Second_Order,7.0,viswhat,stimulus/viswhat_stim/land_vehicle-buldozer.png,stimulus/viswhat_stim/water_vehicle-jetski.png,stimulus/viswhat_stim/water_animal-whale.png,stimulus/viswhat_stim/land_animal-fox.png,stimulus/viswhere_stim/match_blank.png,stimulus/viswhere_stim/match_box.png,stimulus/viswhere_stim/match_yes.png,stimulus/viswhere_stim/match_no.png,1.0,Match,Type,Type,1,5.125,0,5.125,0,5.125,0,5.125,0,0.625,0.625,1,0.5,1,2.125,1,0.5,1,2.125,0,0,0,0,0,0,0,0,0,,,,,0,55,55,55,,,,,,,,,512.8913990410001,518.0134307080007,513.3557243750001,514.3547121250003,514.9778085000007,515.9750636660001,512.8913990410001,512.8913990410001,512.9055057910006,512.8913990410001,512.8913990410001,512.8913990410001,512.9055057910006,512.8913990410001,518.0134307080007,518.6889843750005,520.7715655000002,524.8211760410004,518.6889843750005,518.6889843750005,523.821136083,519.1677041660005,520.184918041,520.7715655000002,521.7924325410004,518.6889843750005,518.6889843750005,518.6644697083334,518.6889843750005,518.6889843750005,518.6889843750005,518.6644697083334,518.6889843750005,518.6889843750005,523.821136083,518.6889843750005,523.821136083,523.9049500830006,524.535035375,518.6889843750005,1,1,0.43804650000038237,reldom2_s005,001,2025-01-30_15h24.31.788,Vis-B-Scan_AC,2022.2.5,None,
0,0.0,None,fixation,stimulus/viswhere_stim/blank_white.png,stimulus/viswhere_stim/blank_white.png,stimulus/viswhat_stim/blank_white.png,stimulus/viswhat_stim/blank_white.png,stimulus/viswhere_stim/blank_white.png,stimulus/viswhere_stim/blank_white.png,stimulus/viswhere_stim/blank_white.png,stimulus/viswhere_stim/blank_white.png,0.0,0.0,0.0,0.0,0,0.0,0,0.0,0,0.0,0,0.0,0,0.0,0.0,0,0.0,0,0.0,0,0.0,0,0.0,0,0,0,0,0,0,0,0,9,,,,,0,56,56,56,,,,,,,,,524.8211760410004,524.8211760410004,524.8211760410004,524.8211760410004,524.8211760410004,524.8211760410004,524.8211760410004,524.8211760410004,524.7183812079999,524.8211760410004,524.8211760410004,524.8211760410004,524.7183812079999,524.8211760410004,524.8211760410004,524.8211760410004,524.8211760410004,524.8211760410004,524.8211760410004,524.8211760410004,524.8211760410004,524.8211760410004,524.8211760410004,524.8211760410004,524.8211760410004,524.8211760410004,524.8211760410004,524.7683812079998,524.8211760410004,524.8211760410004,524.8211760410004,524.7683812079998,524.8211760410004,524.8211760410004,524.8211760410004,524.8211760410004,524.8211760410004,530.0293945410003,530.0293945410003,534.0422717500005,None,0,,reldom2_s005,001,2025-01-30_15h24.31.788,Vis-B-Scan_AC,2022.2.5,None,
43,First_Order,8.0,viswhat,stimulus/viswhat_stim/blank_white.png,stimulus/viswhat_stim/blank_white.png,stimulus/viswhat_stim/land_animal-fox.png,stimulus/viswhat_stim/land_vehicle-motorcycle.png,stimulus/viswhat_stim/blank_white.png,stimulus/viswhat_stim/type_box.png,stimulus/viswhat_stim/type_yes.png,stimulus/viswhat_stim/type_no.png,None,Type,None,Location,2,0.0,0,5.125,0,5.125,0,5.125,0,0.0,0.625,0,0.0,0,0.0,1,0.5,1,2.125,0,0,0,0,0,0,0,0,0,,,,,0,57,57,57,,,,,,,,,534.0422717500005,534.0422717500005,534.0422717500005,534.0422717500005,534.0422717500005,534.0422717500005,534.0422717500005,534.0422717500005,533.9950902916668,534.0422717500005,534.0422717500005,534.0422717500005,533.9950902916668,534.0422717500005,534.0422717500005,534.0422717500005,536.1311297910006,540.1289334160001,534.0422717500005,534.0422717500005,539.205016166,534.5028382910004,535.5179952500002,536.1311297910006,537.1489311250007,534.0422717500005,534.0422717500005,534.0117569583334,534.0422717500005,534.0422717500005,534.0422717500005,534.0117569583334,534.0422717500005,534.0422717500005,539.205016166,534.0422717500005,539.205016166,539.2553092500002,539.9115344580005,534.0422717500005,2,1,3.5212170419999893,reldom2_s005,001,2025-01-30_15h24.31.788,Vis-B-Scan_AC,2022.2.5,None,
44,First_Order,8.0,viswhat,stimulus/viswhat_stim/blank_white.png,stimulus/viswhat_stim/blank_white.png,stimulus/viswhat_stim/land_animal-pig.png,stimulus/viswhat_stim/land_vehicle-firetruck.png,stimulus/viswhat_stim/blank_white.png,stimulus/viswhat_stim/location_box.png,stimulus/viswhat_stim/location_yes.png,stimulus/viswhat_stim/location_no.png,None,Location,None,Location,1,0.0,0,5.125,0,5.125,0,5.125,0,0.0,0.625,0,0.0,0,0.0,1,0.5,1,2.125,0,0,0,0,0,0,0,0,0,,,,,0,58,58,58,,,,,,,,,540.1289334160001,540.1289334160001,540.1289334160001,540.1289334160001,540.1289334160001,540.1289334160001,540.1289334160001,540.1289334160001,540.0873777080002,540.1289334160001,540.1289334160001,540.1289334160001,540.0873777080002,540.1289334160001,540.1289334160001,540.1289334160001,542.225025916,546.2489507079999,540.1289334160001,540.1289334160001,545.2750999580003,540.6052622080006,541.6306880000002,542.225025916,543.2475710409999,540.1289334160001,540.1289334160001,540.1040443746668,540.1289334160001,540.1289334160001,540.1289334160001,540.1040443746668,540.1289334160001,540.1289334160001,545.2750999580003,540.1289334160001,545.2750999580003,545.3484712910004,545.9830024580006,540.1289334160001,1,1,1.1600694999997359,reldom2_s005,001,2025-01-30_15h24.31.788,Vis-B-Scan_AC,2022.2.5,None,
45,First_Order,8.0,viswhat,stimulus/viswhat_stim/blank_white.png,stimulus/viswhat_stim/blank_white.png,stimulus/viswhat_stim/land_vehicle-trolley.png,stimulus/viswhat_stim/water_vehicle-sailboat.png,stimulus/viswhat_stim/blank_white.png,stimulus/viswhat_stim/type_box.png,stimulus/viswhat_stim/type_yes.png,stimulus/viswhat_stim/type_no.png,None,Type,None,Type,1,0.0,0,5.125,0,5.125,0,5.125,0,0.0,0.625,0,0.0,0,0.0,1,0.5,1,2.125,0,0,0,0,0,0,0,0,0,,,,,0,59,59,59,,,,,,,,,546.2489507079999,546.2489507079999,546.2489507079999,546.2489507079999,546.2489507079999,546.2489507079999,546.2489507079999,546.2489507079999,546.172138083,546.2489507079999,546.2489507079999,546.2489507079999,546.172138083,546.2489507079999,546.2489507079999,546.2489507079999,548.3205920830005,,546.2489507079999,546.2489507079999,551.4349618750002,546.695288166,547.7303023330005,548.3205920830005,549.3624228750004,546.2489507079999,546.2489507079999,546.2054714163334,546.2489507079999,546.2489507079999,546.2489507079999,546.2054714163334,546.2489507079999,546.2489507079999,551.4349618750002,546.2489507079999,551.4349618750002,551.4349618750002,552.0898336660002,546.2489507079999,1,1,1.035314499999913,reldom2_s005,001,2025-01-30_15h24.31.788,Vis-B-Scan_AC,2022.2.5,None,
46,First_Order,8.0,viswhat,stimulus/viswhat_stim/blank_white.png,stimulus/viswhat_stim/blank_white.png,stimulus/viswhat_stim/water_vehicle-canoe(1).png,stimulus/viswhat_stim/land_vehicle-truck.png,stimulus/viswhat_stim/blank_white.png,stimulus/viswhat_stim/type_box.png,stimulus/viswhat_stim/type_yes.png,stimulus/viswhat_stim/type_no.png,None,Type,None,Type,1,0.0,0,5.125,0,5.125,0,5.125,0,0.0,0.625,0,0.0,0,0.0,1,0.5,1,2.125,0,0,0,0,0,0,0,0,0,,,,,0,60,60,60,,,,,,,,,552.3081913330007,552.3081913330007,552.3081913330007,552.3081913330007,552.3081913330007,552.3081913330007,552.3081913330007,552.3081913330007,552.2833475000001,552.3081913330007,552.3081913330007,552.3081913330007,552.2833475000001,552.3081913330007,552.3081913330007,552.3081913330007,554.4028700830004,558.4486043330007,552.3081913330007,552.3081913330007,557.4390695410002,552.7979070410001,553.8246435000001,554.4028700830004,555.4116591660004,552.3081913330007,552.3081913330007,552.3000141666668,552.3081913330007,552.3081913330007,552.3081913330007,552.3000141666668,552.3081913330007,552.3081913330007,557.4390695410002,552.3081913330007,557.4390695410002,557.5225736660004,558.1574169160003,552.3081913330007,1,1,0.9309535000002143,reldom2_s005,001,2025-01-30_15h24.31.788,Vis-B-Scan_AC,2022.2.5,None,
0,0.0,None,fixation,stimulus/viswhere_stim/blank_white.png,stimulus/viswhere_stim/blank_white.png,stimulus/viswhat_stim/blank_white.png,stimulus/viswhat_stim/blank_white.png,stimulus/viswhere_stim/blank_white.png,stimulus/viswhere_stim/blank_white.png,stimulus/viswhere_stim/blank_white.png,stimulus/viswhere_stim/blank_white.png,0.0,0.0,0.0,0.0,0,0.0,0,0.0,0,0.0,0,0.0,0,0.0,0.0,0,0.0,0,0.0,0,0.0,0,0.0,0,0,0,0,0,0,0,0,9,,,,,0,61,61,61,,,,,,,,,558.4486043330007,558.4486043330007,558.4486043330007,558.4486043330007,558.4486043330007,558.4486043330007,558.4486043330007,558.4486043330007,558.3410558743338,558.4486043330007,558.4486043330007,558.4486043330007,558.3410558743338,558.4486043330007,558.4486043330007,558.4486043330007,558.4486043330007,558.4486043330007,558.4486043330007,558.4486043330007,558.4486043330007,558.4486043330007,558.4486043330007,558.4486043330007,558.4486043330007,558.4486043330007,558.4486043330007,558.4077225410005,558.4486043330007,558.4486043330007,558.4486043330007,558.4077225410005,558.4486043330007,558.4486043330007,558.4486043330007,558.4486043330007,558.4486043330007,563.6775259160004,563.6775259160004,567.5688624160002,None,0,,reldom2_s005,001,2025-01-30_15h24.31.788,Vis-B-Scan_AC,2022.2.5,None,
47,Second_Order,8.0,viswhat,stimulus/viswhat_stim/water_animal-seaturtle.png,stimulus/viswhat_stim/water_vehicle-kayak.png,stimulus/viswhat_stim/water_vehicle-motorboatraft.png,stimulus/viswhat_stim/land_vehicle-tank.png,stimulus/viswhere_stim/match_blank.png,stimulus/viswhere_stim/match_box.png,stimulus/viswhere_stim/match_yes.png,stimulus/viswhere_stim/match_no.png,2.0,Match,Location,Type,2,5.125,0,5.125,0,5.125,0,5.125,0,0.75,0.75,1,0.5,1,2.125,1,0.5,1,2.125,0,0,0,0,0,0,0,0,0,,,,,0,62,62,62,,,,,,,,,567.5688624160002,572.6893277910003,568.0323097500004,569.031056541,569.6532567499999,570.6513084580001,567.5688624160002,567.5688624160002,567.5679463333337,567.5688624160002,567.5688624160002,567.5688624160002,567.5679463333337,567.5688624160002,572.6893277910003,573.4714885410003,575.5660858330002,579.4627402080005,573.4714885410003,573.4714885410003,578.6112185000002,573.9326318330004,574.9376405410003,575.5660858330002,576.577615833,573.4714885410003,573.4714885410003,573.4575647493334,573.4714885410003,573.4714885410003,573.4714885410003,573.4575647493334,573.4714885410003,573.4714885410003,578.6112185000002,573.4714885410003,578.6112185000002,578.6882132500004,,573.4714885410003,2,1,1.1878049580000152,reldom2_s005,001,2025-01-30_15h24.31.788,Vis-B-Scan_AC,2022.2.5,None,
48,Second_Order,8.0,viswhat,stimulus/viswhat_stim/land_vehicle-rv.png,stimulus/viswhat_stim/water_vehicle-cargoboat.png,stimulus/viswhat_stim/water_animal-squid.png,stimulus/viswhat_stim/land_animal-dog.png,stimulus/viswhere_stim/match_blank.png,stimulus/viswhere_stim/match_box.png,stimulus/viswhere_stim/match_yes.png,stimulus/viswhere_stim/match_no.png,1.0,Match,Type,Type,1,5.125,0,5.125,0,5.125,0,5.125,0,0.625,0.625,1,0.5,1,2.125,1,0.5,1,2.125,0,0,0,0,0,0,0,0,0,,,,,0,63,63,63,,,,,,,,,579.4627402080005,584.5836479160007,579.9426746250001,580.9286233749999,581.563946833,582.5620717500005,579.4627402080005,579.4627402080005,579.466130083,579.4627402080005,579.4627402080005,579.4627402080005,579.466130083,579.4627402080005,584.5836479160007,585.2687527910002,587.3523692910003,591.4106852909999,585.2687527910002,585.2687527910002,590.4217965000007,585.7445804580002,586.7856214580006,587.3523692910003,588.3686672080003,585.2687527910002,585.2687527910002,585.2514337500004,585.2687527910002,585.2687527910002,585.2687527910002,585.2514337500004,585.2687527910002,585.2687527910002,590.4217965000007,585.2687527910002,590.4217965000007,590.4735121660005,591.1202331250006,585.2687527910002,1,1,1.2774384159993133,reldom2_s005,001,2025-01-30_15h24.31.788,Vis-B-Scan_AC,2022.2.5,None,
0,0.0,None,fixation,stimulus/viswhere_stim/blank_white.png,stimulus/viswhere_stim/blank_white.png,stimulus/viswhat_stim/blank_white.png,stimulus/viswhat_stim/blank_white.png,stimulus/viswhere_stim/blank_white.png,stimulus/viswhere_stim/blank_white.png,stimulus/viswhere_stim/blank_white.png,stimulus/viswhere_stim/blank_white.png,0.0,0.0,0.0,0.0,0,0.0,0,0.0,0,0.0,0,0.0,0,0.0,0.0,0,0.0,0,0.0,0,0.0,0,0.0,0,0,0,0,0,0,0,0,16,,,,,0,64,64,64,,,,,,,,,591.4106852909999,591.4106852909999,591.4106852909999,591.4106852909999,591.4106852909999,591.4106852909999,591.4106852909999,591.4106852909999,591.3145918326671,591.4106852909999,591.4106852909999,591.4106852909999,591.3145918326671,591.4106852909999,591.4106852909999,591.4106852909999,591.4106852909999,591.4106852909999,591.4106852909999,591.4106852909999,591.4106852909999,591.4106852909999,591.4106852909999,591.4106852909999,591.4106852909999,591.4106852909999,591.4106852909999,591.3645918326671,591.4106852909999,591.4106852909999,591.4106852909999,591.3645918326671,591.4106852909999,591.4106852909999,591.4106852909999,591.4106852909999,591.4106852909999,596.6212268750005,596.6212268750005,607.577507,None,0,,reldom2_s005,001,2025-01-30_15h24.31.788,Vis-B-Scan_AC,2022.2.5,None,
