Trial,Order,Block,Type,Stimuli_File1,Stimuli_File2,Stimuli_File3,Stimuli_File4,Cue_File1,Cue_File2,Response_File_Yes,Response_File_No,Match,Cue_Dimension,Pair1_Dimension,Pair2_Dimension,Key,Cue1_Duration,Cue1_Onset,Cue2_Duration,Cue2_Onset,ResponseYes_Duration,ResponseYes_Onset,ResponseNo_Duration,ResponseNo_Onset,ITI_Within,ITI_Between,Image1_Duration,Image1_Onset,Image2_Duration,Image2_Onset,Image3_Duration,Image3_Onset,Image4_Duration,Image4_Onset,Sound1_Duration,Sound1_Onset,Sound2_Duration,Sound2_Onset,Sound3_Duration,Sound3_Onset,Sound4_Duration,Sound4_Onset,Fixation_Duration,trials_2.thisRepN,trials_2.thisTrialN,trials_2.thisN,trials_2.thisIndex,trials.thisRepN,trials.thisTrialN,trials.thisN,trials.thisIndex,text_start.started,key_resp_start.started,key_resp_start.keys,key_resp_start.rt,text2.started,key_resp_2.started,key_resp_2.keys,key_resp_2.rt,cue_file1.started,cue_file1.stopped,image_1.started,image_1.stopped,image_2.started,image_2.stopped,sound_icon1.started,sound_icon1.stopped,sound_1.started,sound_1.stopped,sound_icon2.started,sound_icon2.stopped,sound_2.started,sound_2.stopped,image_blank_1.started,image_blank_1.stopped,key_press.started,key_press.stopped,fixation_text.started,cue_file2.started,cue_file2.stopped,image_3.started,image_3.stopped,image_4.started,image_4.stopped,sound_icon3.started,sound_icon3.stopped,sound_3.started,sound_3.stopped,sound_icon4.started,sound_icon4.stopped,sound_4.started,sound_4.stopped,response_yes.started,response_yes.stopped,response_no.started,response_no.stopped,iti_blank.started,iti_blank.stopped,fixation_text.stopped,key_press.keys,key_press.corr,key_press.rt,participant,session,date,expName,psychopyVersion,frameRate,
,,,,,,,,,,,,,,,,,,,,,,,,,,,,,,,,,,,,,,,,,,,,,,,,,,,,8.826333208000051,8.826333208000051,2,1.328203250000115,,,,,,,,,,,,,,,,,,,,,,,,,,,,,,,,,,,,,,,,,,,,,,,,reldom2_s006,001,2025-01-31_15h07.44.904,Where-A-Scan_AC,2022.2.5,None,
,,,,,,,,,,,,,,,,,,,,,,,,,,,,,,,,,,,,,,,,,,,,0,0,0,0,,,,,,,,,10.175823416000185,10.175823416000185,5,17.618755791999774,,,,,,,,,,,,,,,,,,,,,,,,,,,,,,,,,,,,,,,,,,,,reldom2_s006,001,2025-01-31_15h07.44.904,Where-A-Scan_AC,2022.2.5,None,
,,,,,,,,,,,,,,,,,,,,,,,,,,,,,,,,,,,,,,,,,,,,1,0,1,0,,,,,,,,,27.81167533300004,27.81167533300004,5,1.9854344589998618,,,,,,,,,,,,,,,,,,,,,,,,,,,,,,,,,,,,,,,,,,,,reldom2_s006,001,2025-01-31_15h07.44.904,Where-A-Scan_AC,2022.2.5,None,
,,,,,,,,,,,,,,,,,,,,,,,,,,,,,,,,,,,,,,,,,,,,2,0,2,0,,,,,,,,,29.813680415999897,29.813680415999897,5,1.981537582999863,,,,,,,,,,,,,,,,,,,,,,,,,,,,,,,,,,,,,,,,,,,,reldom2_s006,001,2025-01-31_15h07.44.904,Where-A-Scan_AC,2022.2.5,None,
,,,,,,,,,,,,,,,,,,,,,,,,,,,,,,,,,,,,,,,,,,,,3,0,3,0,,,,,,,,,31.807542833000298,31.807542833000298,5,1.9869879999996556,,,,,,,,,,,,,,,,,,,,,,,,,,,,,,,,,,,,,,,,,,,,reldom2_s006,001,2025-01-31_15h07.44.904,Where-A-Scan_AC,2022.2.5,None,
0,0.0,None,fixation,stimulus/viswhere_stim/blank_white.png,stimulus/viswhere_stim/blank_white.png,stimulus/audwhere_stim/blank_white.png,stimulus/audwhere_stim/blank_white.png,stimulus/viswhere_stim/blank_white.png,stimulus/viswhere_stim/blank_white.png,stimulus/viswhere_stim/blank_white.png,stimulus/viswhere_stim/blank_white.png,0.0,0.0,0.0,0.0,0,0.0,0,0.0,0,0.0,0,0.0,0,0.0,0.0,0,0.0,0,0.0,0,0.0,0,0.0,0,0.0,0,0.0,0,0.0,0,0.0,16,,,,,0,0,0,0,,,,,,,,,33.999519082999996,33.999519082999996,33.999519082999996,33.999519082999996,33.999519082999996,33.999519082999996,33.999519082999996,33.999519082999996,33.90384129100003,33.999519082999996,33.999519082999996,33.999519082999996,33.90384129100003,33.999519082999996,33.999519082999996,33.999519082999996,33.999519082999996,33.999519082999996,33.999519082999996,33.999519082999996,33.999519082999996,33.999519082999996,33.999519082999996,33.999519082999996,33.999519082999996,33.999519082999996,33.999519082999996,33.953841291000025,33.999519082999996,33.999519082999996,33.999519082999996,33.953841291000025,33.999519082999996,33.999519082999996,33.999519082999996,33.999519082999996,33.999519082999996,39.176834750000125,39.176834750000125,50.202646000000186,None,0,,reldom2_s006,001,2025-01-31_15h07.44.904,Where-A-Scan_AC,2022.2.5,None,
1,First_Order,1.0,viswhere,stimulus/viswhere_stim/blank_white.png,stimulus/viswhere_stim/blank_white.png,stimulus/viswhere_stim/60-deg_dot-left_peru.png,stimulus/viswhere_stim/60-deg_dot-right_turquoise.png,stimulus/viswhere_stim/blank_white.png,stimulus/viswhere_stim/dot_box.png,stimulus/viswhere_stim/dot_yes.png,stimulus/viswhere_stim/dot_no.png,None,Dot,None,Line,2,0.0,0,5.125,0,5.125,0,5.125,0,0.0,0.625,0,0.0,0,0.0,1,0.5,1,2.125,0,0.0,0,0.0,0,0.0,0,0.0,0,,,,,0,1,1,1,,,,,,,,,50.202646000000186,50.202646000000186,50.202646000000186,50.202646000000186,50.202646000000186,50.202646000000186,50.202646000000186,50.202646000000186,50.17867100000003,50.202646000000186,50.202646000000186,50.202646000000186,50.17867100000003,50.202646000000186,50.202646000000186,50.202646000000186,52.31357250000019,56.26118404099998,50.202646000000186,50.202646000000186,55.33586604099992,50.68252362500016,51.698233832999904,52.31357250000019,53.316671208000116,50.202646000000186,50.202646000000186,50.195337666666695,50.202646000000186,50.202646000000186,50.202646000000186,50.195337666666695,50.202646000000186,50.202646000000186,55.33586604099992,50.202646000000186,55.33586604099992,55.41927420799993,56.04435654100007,50.202646000000186,2,1,0.9156729999999698,reldom2_s006,001,2025-01-31_15h07.44.904,Where-A-Scan_AC,2022.2.5,None,
2,First_Order,1.0,viswhere,stimulus/viswhere_stim/blank_white.png,stimulus/viswhere_stim/blank_white.png,stimulus/viswhere_stim/60-deg_dot-right_turquoise.png,stimulus/viswhere_stim/60-deg_dot-left_turquoise.png,stimulus/viswhere_stim/blank_white.png,stimulus/viswhere_stim/line_box.png,stimulus/viswhere_stim/line_yes.png,stimulus/viswhere_stim/line_no.png,None,Line,None,Line,1,0.0,0,5.125,0,5.125,0,5.125,0,0.0,0.625,0,0.0,0,0.0,1,0.5,1,2.125,0,0.0,0,0.0,0,0.0,0,0.0,0,,,,,0,2,2,2,,,,,,,,,56.26118404099998,56.26118404099998,56.26118404099998,56.26118404099998,56.26118404099998,56.26118404099998,56.26118404099998,56.26118404099998,56.23955170833354,56.26118404099998,56.26118404099998,56.26118404099998,56.23955170833354,56.26118404099998,56.26118404099998,56.26118404099998,58.36597933300027,62.32482270800028,56.26118404099998,56.26118404099998,61.40211045800015,56.74435100000028,57.74772004100032,58.36597933300027,59.375185583000075,56.26118404099998,56.26118404099998,56.25621837500021,56.26118404099998,56.26118404099998,56.26118404099998,56.25621837500021,56.26118404099998,56.26118404099998,61.40211045800015,56.26118404099998,61.40211045800015,61.48527816600017,62.11779999999999,56.26118404099998,1,1,0.6843379999995705,reldom2_s006,001,2025-01-31_15h07.44.904,Where-A-Scan_AC,2022.2.5,None,
3,First_Order,1.0,viswhere,stimulus/viswhere_stim/blank_white.png,stimulus/viswhere_stim/blank_white.png,stimulus/viswhere_stim/30-deg_dot-left_salmon.png,stimulus/viswhere_stim/120-deg_dot-left_royalblue.png,stimulus/viswhere_stim/blank_white.png,stimulus/viswhere_stim/line_box.png,stimulus/viswhere_stim/line_yes.png,stimulus/viswhere_stim/line_no.png,None,Line,None,Dot,2,0.0,0,5.125,0,5.125,0,5.125,0,0.0,0.625,0,0.0,0,0.0,1,0.5,1,2.125,0,0.0,0,0.0,0,0.0,0,0.0,0,,,,,0,3,3,3,,,,,,,,,62.32482270800028,62.32482270800028,62.32482270800028,62.32482270800028,62.32482270800028,62.32482270800028,62.32482270800028,62.32482270800028,62.29821212433338,62.32482270800028,62.32482270800028,62.32482270800028,62.29821212433338,62.32482270800028,62.32482270800028,62.32482270800028,64.43245983299994,68.3912365000001,62.32482270800028,62.32482270800028,67.45487845800017,62.80706129100008,63.81365212500032,64.43245983299994,65.4434932500003,62.32482270800028,62.32482270800028,62.31487879100005,62.32482270800028,62.32482270800028,62.32482270800028,62.31487879100005,62.32482270800028,62.32482270800028,67.45487845800017,62.32482270800028,67.45487845800017,67.53815258300028,68.16930133300002,62.32482270800028,2,1,0.7961318339998797,reldom2_s006,001,2025-01-31_15h07.44.904,Where-A-Scan_AC,2022.2.5,None,
4,First_Order,1.0,viswhere,stimulus/viswhere_stim/blank_white.png,stimulus/viswhere_stim/blank_white.png,stimulus/viswhere_stim/150-deg_dot-right_salmon.png,stimulus/viswhere_stim/90-deg_dot-right_goldenrod.png,stimulus/viswhere_stim/blank_white.png,stimulus/viswhere_stim/line_box.png,stimulus/viswhere_stim/line_yes.png,stimulus/viswhere_stim/line_no.png,None,Line,None,Dot,2,0.0,0,5.125,0,5.125,0,5.125,0,0.0,0.625,0,0.0,0,0.0,1,0.5,1,2.125,0,0.0,0,0.0,0,0.0,0,0.0,0,,,,,0,4,4,4,,,,,,,,,68.3912365000001,68.3912365000001,68.3912365000001,68.3912365000001,68.3912365000001,68.3912365000001,68.3912365000001,68.3912365000001,68.3653448743333,68.3912365000001,68.3912365000001,68.3912365000001,68.3653448743333,68.3912365000001,68.3912365000001,68.3912365000001,70.50212175000024,74.5347025000001,68.3912365000001,68.3912365000001,73.53185004100033,68.88227108299998,69.89928520800004,70.50212175000024,71.52335425000001,68.3912365000001,68.3912365000001,68.38201154099997,68.3912365000001,68.3912365000001,68.3912365000001,68.38201154099997,68.3912365000001,68.3912365000001,73.53185004100033,68.3912365000001,73.53185004100033,73.61674441600007,74.25083904100029,68.3912365000001,2,1,0.7275463749997471,reldom2_s006,001,2025-01-31_15h07.44.904,Where-A-Scan_AC,2022.2.5,None,
0,0.0,None,fixation,stimulus/viswhere_stim/blank_white.png,stimulus/viswhere_stim/blank_white.png,stimulus/audwhere_stim/blank_white.png,stimulus/audwhere_stim/blank_white.png,stimulus/viswhere_stim/blank_white.png,stimulus/viswhere_stim/blank_white.png,stimulus/viswhere_stim/blank_white.png,stimulus/viswhere_stim/blank_white.png,0.0,0.0,0.0,0.0,0,0.0,0,0.0,0,0.0,0,0.0,0,0.0,0.0,0,0.0,0,0.0,0,0.0,0,0.0,0,0.0,0,0.0,0,0.0,0,0.0,9,,,,,0,5,5,5,,,,,,,,,74.5347025000001,74.5347025000001,74.5347025000001,74.5347025000001,74.5347025000001,74.5347025000001,74.5347025000001,74.5347025000001,74.43175508333327,74.5347025000001,74.5347025000001,74.5347025000001,74.43175508333327,74.5347025000001,74.5347025000001,74.5347025000001,74.5347025000001,74.5347025000001,74.5347025000001,74.5347025000001,74.5347025000001,74.5347025000001,74.5347025000001,74.5347025000001,74.5347025000001,74.5347025000001,74.5347025000001,74.48175508333327,74.5347025000001,74.5347025000001,74.5347025000001,74.48175508333327,74.5347025000001,74.5347025000001,74.5347025000001,74.5347025000001,74.5347025000001,79.71940300000006,79.71940300000006,83.67548458300007,None,0,,reldom2_s006,001,2025-01-31_15h07.44.904,Where-A-Scan_AC,2022.2.5,None,
5,Second_Order,1.0,viswhere,stimulus/viswhere_stim/90-deg_dot-right_mediumslateblue.png,stimulus/viswhere_stim/90-deg_dot-left_peru.png,stimulus/viswhere_stim/150-deg_dot-left_seagreen.png,stimulus/viswhere_stim/120-deg_dot-left_mediumslateblue.png,stimulus/viswhere_stim/match_blank.png,stimulus/viswhere_stim/match_box.png,stimulus/viswhere_stim/match_yes.png,stimulus/viswhere_stim/match_no.png,2.0,Match,Line,Dot,2,5.125,0,5.125,0,5.125,0,5.125,0,0.75,0.75,1,0.5,1,2.125,1,0.5,1,2.125,0,0.0,0,0.0,0,0.0,0,0.0,0,,,,,0,6,6,6,,,,,,,,,83.67548458300007,88.79727379099995,84.15666891599994,85.15505216600013,85.77808133300005,86.77541916600012,83.67548458300007,83.67548458300007,83.68669599933366,83.67548458300007,83.67548458300007,83.67548458300007,83.68669599933366,83.67548458300007,88.79727379099995,89.57704504100002,91.66644025000005,95.53089545800003,89.57704504100002,89.57704504100002,94.70352237499992,90.0476732080001,91.06267900000012,91.66644025000005,92.67035762500018,89.57704504100002,89.57704504100002,89.56525399933346,89.57704504100002,89.57704504100002,89.57704504100002,89.56525399933346,89.57704504100002,89.57704504100002,94.70352237499992,89.57704504100002,94.70352237499992,94.78813475000015,95.56911716600007,89.57704504100002,1,0,1.102349083000263,reldom2_s006,001,2025-01-31_15h07.44.904,Where-A-Scan_AC,2022.2.5,None,
6,Second_Order,1.0,viswhere,stimulus/viswhere_stim/60-deg_dot-right_salmon.png,stimulus/viswhere_stim/150-deg_dot-right_cyan.png,stimulus/viswhere_stim/120-deg_dot-left_lightsseagreen.png,stimulus/viswhere_stim/90-deg_dot-left_goldenrod.png,stimulus/viswhere_stim/match_blank.png,stimulus/viswhere_stim/match_box.png,stimulus/viswhere_stim/match_yes.png,stimulus/viswhere_stim/match_no.png,1.0,Match,Dot,Dot,1,5.125,0,5.125,0,5.125,0,5.125,0,0.625,0.625,1,0.5,1,2.125,1,0.5,1,2.125,0,0.0,0,0.0,0,0.0,0,0.0,0,,,,,0,7,7,7,,,,,,,,,95.56911716600007,100.69162358299991,96.05111616600016,97.04921195800034,97.67193795799994,98.66969429100027,95.56911716600007,95.56911716600007,95.58089545800003,95.56911716600007,95.56911716600007,95.56911716600007,95.58089545800003,95.56911716600007,100.69162358299991,101.35192666600005,103.44994029100008,107.4890625410003,101.35192666600005,101.35192666600005,106.49042208300034,101.8187008750001,102.82980137499999,103.44994029100008,104.46885741599999,101.35192666600005,101.35192666600005,101.3423272913333,101.35192666600005,101.35192666600005,101.35192666600005,101.3423272913333,101.35192666600005,101.35192666600005,106.49042208300034,101.35192666600005,106.49042208300034,106.56453629099997,107.19075087500005,101.35192666600005,1,1,0.7119731659995523,reldom2_s006,001,2025-01-31_15h07.44.904,Where-A-Scan_AC,2022.2.5,None,
0,0.0,None,fixation,stimulus/viswhere_stim/blank_white.png,stimulus/viswhere_stim/blank_white.png,stimulus/audwhere_stim/blank_white.png,stimulus/audwhere_stim/blank_white.png,stimulus/viswhere_stim/blank_white.png,stimulus/viswhere_stim/blank_white.png,stimulus/viswhere_stim/blank_white.png,stimulus/viswhere_stim/blank_white.png,0.0,0.0,0.0,0.0,0,0.0,0,0.0,0,0.0,0,0.0,0,0.0,0.0,0,0.0,0,0.0,0,0.0,0,0.0,0,0.0,0,0.0,0,0.0,0,0.0,8,,,,,0,8,8,8,,,,,,,,,107.4890625410003,107.4890625410003,107.4890625410003,107.4890625410003,107.4890625410003,107.4890625410003,107.4890625410003,107.4890625410003,107.38581841633352,107.4890625410003,107.4890625410003,107.4890625410003,107.38581841633352,107.4890625410003,107.4890625410003,107.4890625410003,107.4890625410003,107.4890625410003,107.4890625410003,107.4890625410003,107.4890625410003,107.4890625410003,107.4890625410003,107.4890625410003,107.4890625410003,107.4890625410003,107.4890625410003,107.43581841633352,107.4890625410003,107.4890625410003,107.4890625410003,107.43581841633352,107.4890625410003,107.4890625410003,107.4890625410003,107.4890625410003,107.4890625410003,112.71573704100001,112.71573704100001,115.71114379100027,None,0,,reldom2_s006,001,2025-01-31_15h07.44.904,Where-A-Scan_AC,2022.2.5,None,
7,First_Order,2.0,viswhere,stimulus/viswhere_stim/blank_white.png,stimulus/viswhere_stim/blank_white.png,stimulus/viswhere_stim/30-deg_dot-right_cyan.png,stimulus/viswhere_stim/30-deg_dot-left_cyan.png,stimulus/viswhere_stim/blank_white.png,stimulus/viswhere_stim/line_box.png,stimulus/viswhere_stim/line_yes.png,stimulus/viswhere_stim/line_no.png,None,Line,None,Line,1,0.0,0,5.125,0,5.125,0,5.125,0,0.0,0.625,0,0.0,0,0.0,1,0.5,1,2.125,0,0.0,0,0.0,0,0.0,0,0.0,0,,,,,0,9,9,9,,,,,,,,,115.71114379100027,115.71114379100027,115.71114379100027,115.71114379100027,115.71114379100027,115.71114379100027,115.71114379100027,115.71114379100027,115.68727899966659,115.71114379100027,115.71114379100027,115.71114379100027,115.68727899966659,115.71114379100027,115.71114379100027,115.71114379100027,117.809076,121.78275012500035,115.71114379100027,115.71114379100027,120.84348379099993,116.1988194999999,117.20826087500018,117.809076,118.82418566600018,115.71114379100027,115.71114379100027,115.70394566633325,115.71114379100027,115.71114379100027,115.71114379100027,115.70394566633325,115.71114379100027,115.71114379100027,120.84348379099993,115.71114379100027,120.84348379099993,120.9282867500001,121.55967283300015,115.71114379100027,1,1,0.9341918329996588,reldom2_s006,001,2025-01-31_15h07.44.904,Where-A-Scan_AC,2022.2.5,None,
8,First_Order,2.0,viswhere,stimulus/viswhere_stim/blank_white.png,stimulus/viswhere_stim/blank_white.png,stimulus/viswhere_stim/60-deg_dot-right_slateblue.png,stimulus/viswhere_stim/60-deg_dot-left_goldenrod.png,stimulus/viswhere_stim/blank_white.png,stimulus/viswhere_stim/dot_box.png,stimulus/viswhere_stim/dot_yes.png,stimulus/viswhere_stim/dot_no.png,None,Dot,None,Line,2,0.0,0,5.125,0,5.125,0,5.125,0,0.0,0.625,0,0.0,0,0.0,1,0.5,1,2.125,0,0.0,0,0.0,0,0.0,0,0.0,0,,,,,0,10,10,10,,,,,,,,,121.78275012500035,121.78275012500035,121.78275012500035,121.78275012500035,121.78275012500035,121.78275012500035,121.78275012500035,121.78275012500035,121.7551285413336,121.78275012500035,121.78275012500035,121.78275012500035,121.7551285413336,121.78275012500035,121.78275012500035,121.78275012500035,123.87958333300003,127.84736020800028,121.78275012500035,121.78275012500035,126.90576841600023,122.26934770800017,123.27991108300012,123.87958333300003,124.88888350000025,121.78275012500035,121.78275012500035,121.77179520800027,121.78275012500035,121.78275012500035,121.78275012500035,121.77179520800027,121.78275012500035,121.78275012500035,126.90576841600023,121.78275012500035,126.90576841600023,127.00336937500015,127.62955033300022,121.78275012500035,2,1,1.4403894999995828,reldom2_s006,001,2025-01-31_15h07.44.904,Where-A-Scan_AC,2022.2.5,None,
9,First_Order,2.0,viswhere,stimulus/viswhere_stim/blank_white.png,stimulus/viswhere_stim/blank_white.png,stimulus/viswhere_stim/90-deg_dot-right_cyan.png,stimulus/viswhere_stim/60-deg_dot-right_slateblue.png,stimulus/viswhere_stim/blank_white.png,stimulus/viswhere_stim/dot_box.png,stimulus/viswhere_stim/dot_yes.png,stimulus/viswhere_stim/dot_no.png,None,Dot,None,Dot,1,0.0,0,5.125,0,5.125,0,5.125,0,0.0,0.625,0,0.0,0,0.0,1,0.5,1,2.125,0,0.0,0,0.0,0,0.0,0,0.0,0,,,,,0,11,11,11,,,,,,,,,127.84736020800028,127.84736020800028,127.84736020800028,127.84736020800028,127.84736020800028,127.84736020800028,127.84736020800028,127.84736020800028,127.82339266633365,127.84736020800028,127.84736020800028,127.84736020800028,127.82339266633365,127.84736020800028,127.84736020800028,127.84736020800028,129.9600982500001,133.91243383300025,127.84736020800028,127.84736020800028,132.96896420800022,128.33204808300025,129.33922795800027,129.9600982500001,130.97362500000008,127.84736020800028,127.84736020800028,127.84005933300031,127.84736020800028,127.84736020800028,127.84736020800028,127.84005933300031,127.84736020800028,127.84736020800028,132.96896420800022,127.84736020800028,132.96896420800022,133.06722879100016,133.6935450410001,127.84736020800028,1,1,0.7689158749999478,reldom2_s006,001,2025-01-31_15h07.44.904,Where-A-Scan_AC,2022.2.5,None,
10,First_Order,2.0,viswhere,stimulus/viswhere_stim/blank_white.png,stimulus/viswhere_stim/blank_white.png,stimulus/viswhere_stim/60-deg_dot-left_mediumslateblue.png,stimulus/viswhere_stim/150-deg_dot-left_peru.png,stimulus/viswhere_stim/blank_white.png,stimulus/viswhere_stim/dot_box.png,stimulus/viswhere_stim/dot_yes.png,stimulus/viswhere_stim/dot_no.png,None,Dot,None,Dot,1,0.0,0,5.125,0,5.125,0,5.125,0,0.0,0.625,0,0.0,0,0.0,1,0.5,1,2.125,0,0.0,0,0.0,0,0.0,0,0.0,0,,,,,0,12,12,12,,,,,,,,,133.91243383300025,133.91243383300025,133.91243383300025,133.91243383300025,133.91243383300025,133.91243383300025,133.91243383300025,133.91243383300025,133.88896304133354,133.91243383300025,133.91243383300025,133.91243383300025,133.88896304133354,133.91243383300025,133.91243383300025,133.91243383300025,136.01537774999997,140.05231725000021,133.91243383300025,133.91243383300025,139.0405302500003,134.3996822500003,135.4114474580001,136.01537774999997,137.03404575000013,133.91243383300025,133.91243383300025,133.90562970800022,133.91243383300025,133.91243383300025,133.91243383300025,133.90562970800022,133.91243383300025,133.91243383300025,139.0405302500003,133.91243383300025,139.0405302500003,139.13965029100018,139.76611550000007,133.91243383300025,1,1,0.540395417000127,reldom2_s006,001,2025-01-31_15h07.44.904,Where-A-Scan_AC,2022.2.5,None,
0,0.0,None,fixation,stimulus/viswhere_stim/blank_white.png,stimulus/viswhere_stim/blank_white.png,stimulus/audwhere_stim/blank_white.png,stimulus/audwhere_stim/blank_white.png,stimulus/viswhere_stim/blank_white.png,stimulus/viswhere_stim/blank_white.png,stimulus/viswhere_stim/blank_white.png,stimulus/viswhere_stim/blank_white.png,0.0,0.0,0.0,0.0,0,0.0,0,0.0,0,0.0,0,0.0,0,0.0,0.0,0,0.0,0,0.0,0,0.0,0,0.0,0,0.0,0,0.0,0,0.0,0,0.0,10,,,,,0,13,13,13,,,,,,,,,140.05231725000021,140.05231725000021,140.05231725000021,140.05231725000021,140.05231725000021,140.05231725000021,140.05231725000021,140.05231725000021,139.9494049993335,140.05231725000021,140.05231725000021,140.05231725000021,139.9494049993335,140.05231725000021,140.05231725000021,140.05231725000021,140.05231725000021,140.05231725000021,140.05231725000021,140.05231725000021,140.05231725000021,140.05231725000021,140.05231725000021,140.05231725000021,140.05231725000021,140.05231725000021,140.05231725000021,139.9994049993335,140.05231725000021,140.05231725000021,140.05231725000021,139.9994049993335,140.05231725000021,140.05231725000021,140.05231725000021,140.05231725000021,140.05231725000021,145.26646866600004,145.26646866600004,150.17118762500013,None,0,,reldom2_s006,001,2025-01-31_15h07.44.904,Where-A-Scan_AC,2022.2.5,None,
11,Second_Order,2.0,viswhere,stimulus/viswhere_stim/120-deg_dot-right_turquoise.png,stimulus/viswhere_stim/120-deg_dot-left_goldenrod.png,stimulus/viswhere_stim/60-deg_dot-left_turquoise.png,stimulus/viswhere_stim/150-deg_dot-left_seagreen.png,stimulus/viswhere_stim/match_blank.png,stimulus/viswhere_stim/match_box.png,stimulus/viswhere_stim/match_yes.png,stimulus/viswhere_stim/match_no.png,2.0,Match,Line,Dot,2,5.125,0,5.125,0,5.125,0,5.125,0,0.75,0.75,1,0.5,1,2.125,1,0.5,1,2.125,0,0.0,0,0.0,0,0.0,0,0.0,0,,,,,0,14,14,14,,,,,,,,,150.17118762500013,155.2878022079999,150.64368012500017,151.6418869160002,152.27681916600022,153.26583937500027,150.17118762500013,150.17118762500013,150.18317891633356,150.17118762500013,150.17118762500013,150.17118762500013,150.18317891633356,150.17118762500013,155.2878022079999,156.06528533300025,158.16059729100016,162.06924954100032,156.06528533300025,156.06528533300025,161.20162400000027,156.53537987500022,157.55411504099993,158.16059729100016,159.16278283300016,156.06528533300025,156.06528533300025,156.0553933333336,156.06528533300025,156.06528533300025,156.06528533300025,156.0553933333336,156.06528533300025,156.06528533300025,161.20162400000027,156.06528533300025,161.20162400000027,161.2725203750001,162.06924954100032,156.06528533300025,2,1,1.024490374999914,reldom2_s006,001,2025-01-31_15h07.44.904,Where-A-Scan_AC,2022.2.5,None,
12,Second_Order,2.0,viswhere,stimulus/viswhere_stim/30-deg_dot-right_mediumslateblue.png,stimulus/viswhere_stim/30-deg_dot-left_seagreen.png,stimulus/viswhere_stim/120-deg_dot-right_goldenrod.png,stimulus/viswhere_stim/120-deg_dot-left_salmon.png,stimulus/viswhere_stim/match_blank.png,stimulus/viswhere_stim/match_box.png,stimulus/viswhere_stim/match_yes.png,stimulus/viswhere_stim/match_no.png,1.0,Match,Line,Line,1,5.125,0,5.125,0,5.125,0,5.125,0,0.625,0.625,1,0.5,1,2.125,1,0.5,1,2.125,0,0.0,0,0.0,0,0.0,0,0.0,0,,,,,0,15,15,15,,,,,,,,,162.06924954100032,167.1821613330003,162.55356391600026,163.53955433300007,164.17516045799994,165.17287462500008,162.06924954100032,162.06924954100032,162.0816535410002,162.06924954100032,162.06924954100032,162.06924954100032,162.0816535410002,162.06924954100032,167.1821613330003,167.8386205830002,169.938985666,173.97823137500018,167.8386205830002,167.8386205830002,172.97679766600004,168.30486929100016,169.31676029100026,169.938985666,170.95637083300016,167.8386205830002,167.8386205830002,167.82910499933365,167.8386205830002,167.8386205830002,167.8386205830002,167.82910499933365,167.8386205830002,167.8386205830002,172.97679766600004,167.8386205830002,172.97679766600004,173.051299708,173.67750083300007,167.8386205830002,1,1,0.9109469589998298,reldom2_s006,001,2025-01-31_15h07.44.904,Where-A-Scan_AC,2022.2.5,None,
0,0.0,None,fixation,stimulus/viswhere_stim/blank_white.png,stimulus/viswhere_stim/blank_white.png,stimulus/audwhere_stim/blank_white.png,stimulus/audwhere_stim/blank_white.png,stimulus/viswhere_stim/blank_white.png,stimulus/viswhere_stim/blank_white.png,stimulus/viswhere_stim/blank_white.png,stimulus/viswhere_stim/blank_white.png,0.0,0.0,0.0,0.0,0,0.0,0,0.0,0,0.0,0,0.0,0,0.0,0.0,0,0.0,0,0.0,0,0.0,0,0.0,0,0.0,0,0.0,0,0.0,0,0.0,8,,,,,0,16,16,16,,,,,,,,,173.97823137500018,173.97823137500018,173.97823137500018,173.97823137500018,173.97823137500018,173.97823137500018,173.97823137500018,173.97823137500018,173.8724077913333,173.97823137500018,173.97823137500018,173.97823137500018,173.8724077913333,173.97823137500018,173.97823137500018,173.97823137500018,173.97823137500018,173.97823137500018,173.97823137500018,173.97823137500018,173.97823137500018,173.97823137500018,173.97823137500018,173.97823137500018,173.97823137500018,173.97823137500018,173.97823137500018,173.9224077913333,173.97823137500018,173.97823137500018,173.97823137500018,173.9224077913333,173.97823137500018,173.97823137500018,173.97823137500018,173.97823137500018,173.97823137500018,179.18619466600012,179.18619466600012,182.25216091600032,None,0,,reldom2_s006,001,2025-01-31_15h07.44.904,Where-A-Scan_AC,2022.2.5,None,
13,First_Order,3.0,audwhere,stimulus/audwhere_stim/dummy.wav,stimulus/audwhere_stim/dummy.wav,stimulus/audwhere_stim/right_away_290h.wav,stimulus/audwhere_stim/right_toward_280h.wav,stimulus/audwhere_stim/blank_white.png,stimulus/audwhere_stim/side_box.png,stimulus/audwhere_stim/side_yes.png,stimulus/audwhere_stim/side_no.png,None,Side,None,Side,1,0.0,0,5.125,0,5.125,0,5.125,0,0.0,0.625,0,0.0,0,0.0,0,0.0,0,0.0,0,0.0,0,0.0,1,0.5,1,2.125,0,,,,,0,17,17,17,,,,,,,,,182.25216091600032,182.25216091600032,182.25216091600032,182.25216091600032,182.25216091600032,182.25216091600032,182.25216091600032,182.25216091600032,182.17526037466695,182.25216091600032,182.25216091600032,182.25216091600032,182.17526037466695,182.25216091600032,182.25216091600032,182.25216091600032,184.32431891600027,,182.25216091600032,182.25216091600032,187.43014683299998,182.25216091600032,182.25216091600032,182.25216091600032,182.25216091600032,182.7241787910002,183.75836254100022,182.6929859166669,,184.32431891600027,185.36340354100003,184.2934244996666,,182.25216091600032,187.43014683299998,182.25216091600032,187.43014683299998,187.47176316600007,188.13450437500023,182.25216091600032,1,1,0.7679575829997702,reldom2_s006,001,2025-01-31_15h07.44.904,Where-A-Scan_AC,2022.2.5,None,
14,First_Order,3.0,audwhere,stimulus/audwhere_stim/dummy.wav,stimulus/audwhere_stim/dummy.wav,stimulus/audwhere_stim/right_away_300h.wav,stimulus/audwhere_stim/left_away_300h.wav,stimulus/audwhere_stim/blank_white.png,stimulus/audwhere_stim/side_box.png,stimulus/audwhere_stim/side_yes.png,stimulus/audwhere_stim/side_no.png,None,Side,None,Direction,2,0.0,0,5.125,0,5.125,0,5.125,0,0.0,0.625,0,0.0,0,0.0,0,0.0,0,0.0,0,0.0,0,0.0,1,0.5,1,2.125,0,,,,,0,18,18,18,,,,,,,,,188.35131208300027,188.35131208300027,188.35131208300027,188.35131208300027,188.35131208300027,188.35131208300027,188.35131208300027,188.35131208300027,188.2678377083336,188.35131208300027,188.35131208300027,188.35131208300027,188.2678377083336,188.35131208300027,188.35131208300027,188.35131208300027,190.42419662500015,,188.35131208300027,188.35131208300027,193.53008604100023,188.35131208300027,188.35131208300027,188.35131208300027,188.35131208300027,188.82213970800012,189.85978891600007,188.79171979166702,,190.42419662500015,191.46312129100033,190.39332908266695,,188.35131208300027,193.53008604100023,188.35131208300027,193.53008604100023,193.5718669580001,194.23653108300005,188.35131208300027,2,1,0.5509057499998562,reldom2_s006,001,2025-01-31_15h07.44.904,Where-A-Scan_AC,2022.2.5,None,
15,First_Order,3.0,audwhere,stimulus/audwhere_stim/dummy.wav,stimulus/audwhere_stim/dummy.wav,stimulus/audwhere_stim/left_away_290h.wav,stimulus/audwhere_stim/right_away_280h.wav,stimulus/audwhere_stim/blank_white.png,stimulus/audwhere_stim/direction_box.png,stimulus/audwhere_stim/direction_yes.png,stimulus/audwhere_stim/direction_no.png,None,Direction,None,Direction,1,0.0,0,5.125,0,5.125,0,5.125,0,0.0,0.625,0,0.0,0,0.0,0,0.0,0,0.0,0,0.0,0,0.0,1,0.5,1,2.125,0,,,,,0,19,19,19,,,,,,,,,194.4563061660001,194.4563061660001,194.4563061660001,194.4563061660001,194.4563061660001,194.4563061660001,194.4563061660001,194.4563061660001,194.3698644163334,194.4563061660001,194.4563061660001,194.4563061660001,194.3698644163334,194.4563061660001,194.4563061660001,194.4563061660001,196.54301720800004,200.59016112500012,194.4563061660001,194.4563061660001,199.62117529100033,194.4563061660001,194.4563061660001,194.4563061660001,194.4563061660001,194.93010737500026,195.97505029100012,194.89913720766688,,196.54301720800004,197.58722766600022,196.5117677496667,,194.4563061660001,199.62117529100033,194.4563061660001,199.62117529100033,199.66282308300015,200.33137691599995,194.4563061660001,1,1,1.1744093749998683,reldom2_s006,001,2025-01-31_15h07.44.904,Where-A-Scan_AC,2022.2.5,None,
16,First_Order,3.0,audwhere,stimulus/audwhere_stim/dummy.wav,stimulus/audwhere_stim/dummy.wav,stimulus/audwhere_stim/right_toward_270h.wav,stimulus/audwhere_stim/right_away_300h.wav,stimulus/audwhere_stim/blank_white.png,stimulus/audwhere_stim/direction_box.png,stimulus/audwhere_stim/direction_yes.png,stimulus/audwhere_stim/direction_no.png,None,Direction,None,Side,2,0.0,0,5.125,0,5.125,0,5.125,0,0.0,0.625,0,0.0,0,0.0,0,0.0,0,0.0,0,0.0,0,0.0,1,0.5,1,2.125,0,,,,,0,20,20,20,,,,,,,,,200.59016112500012,200.59016112500012,200.59016112500012,200.59016112500012,200.59016112500012,200.59016112500012,200.59016112500012,200.59016112500012,200.50628424933362,200.59016112500012,200.59016112500012,200.59016112500012,200.50628424933362,200.59016112500012,200.59016112500012,200.59016112500012,202.6766235,206.74631979100013,200.59016112500012,200.59016112500012,205.75583704100018,200.59016112500012,200.59016112500012,200.59016112500012,200.59016112500012,201.0641957910002,202.1093065,201.03367612466698,,202.6766235,203.71936295800015,202.64588604166673,,200.59016112500012,205.75583704100018,200.59016112500012,205.75583704100018,205.79740270799994,206.4652645000001,200.59016112500012,2,1,1.5721675419999883,reldom2_s006,001,2025-01-31_15h07.44.904,Where-A-Scan_AC,2022.2.5,None,
0,0.0,None,fixation,stimulus/viswhere_stim/blank_white.png,stimulus/viswhere_stim/blank_white.png,stimulus/audwhere_stim/blank_white.png,stimulus/audwhere_stim/blank_white.png,stimulus/viswhere_stim/blank_white.png,stimulus/viswhere_stim/blank_white.png,stimulus/viswhere_stim/blank_white.png,stimulus/viswhere_stim/blank_white.png,0.0,0.0,0.0,0.0,0,0.0,0,0.0,0,0.0,0,0.0,0,0.0,0.0,0,0.0,0,0.0,0,0.0,0,0.0,0,0.0,0,0.0,0,0.0,0,0.0,9,,,,,0,21,21,21,,,,,,,,,206.74631979100013,206.74631979100013,206.74631979100013,206.74631979100013,206.74631979100013,206.74631979100013,206.74631979100013,206.74631979100013,206.64005262433344,206.74631979100013,206.74631979100013,206.74631979100013,206.64005262433344,206.74631979100013,206.74631979100013,206.74631979100013,206.74631979100013,206.74631979100013,206.74631979100013,206.74631979100013,206.74631979100013,206.74631979100013,206.74631979100013,206.74631979100013,206.74631979100013,206.74631979100013,206.74631979100013,206.69005262433342,206.74631979100013,206.74631979100013,206.74631979100013,206.69005262433342,206.74631979100013,206.74631979100013,206.74631979100013,206.74631979100013,206.74631979100013,211.9784400829999,211.9784400829999,215.880527583,None,0,,reldom2_s006,001,2025-01-31_15h07.44.904,Where-A-Scan_AC,2022.2.5,None,
17,Second_Order,3.0,audwhere,stimulus/audwhere_stim/right_away_270h.wav,stimulus/audwhere_stim/left_away_270h.wav,stimulus/audwhere_stim/right_toward_280h.wav,stimulus/audwhere_stim/left_toward_280h.wav,stimulus/viswhere_stim/match_blank.png,stimulus/audwhere_stim/match_box.png,stimulus/viswhere_stim/match_yes.png,stimulus/viswhere_stim/match_no.png,1.0,Match,Direction,Direction,1,5.125,0,5.125,0,5.125,0,5.125,0,0.75,0.75,0,0.0,0,0.0,0,0.0,0,0.0,1,0.5,1,2.125,1,0.5,1,2.125,0,,,,,0,22,22,22,,,,,,,,,215.880527583,221.00195454100003,215.880527583,215.880527583,215.880527583,215.880527583,216.32849112500026,217.3266342500001,216.34112824966658,217.33405808299995,217.96130529099992,218.9553339160002,217.96468741666675,218.9553339160002,221.00195454100003,221.83683312500034,223.90560458300024,227.84305395799993,221.83683312500034,221.83683312500034,227.0199694160001,221.83683312500034,221.83683312500034,221.83683312500034,221.83683312500034,222.30719124999996,223.34117500000002,222.27671970766667,,223.90560458300024,224.94506516599995,223.8750863746666,,221.83683312500034,227.0199694160001,221.83683312500034,227.0199694160001,227.0199694160001,,221.83683312500034,1,1,1.0678192919995126,reldom2_s006,001,2025-01-31_15h07.44.904,Where-A-Scan_AC,2022.2.5,None,
18,Second_Order,3.0,audwhere,stimulus/audwhere_stim/left_away_300h.wav,stimulus/audwhere_stim/right_away_290h.wav,stimulus/audwhere_stim/left_toward_300h.wav,stimulus/audwhere_stim/left_away_290h.wav,stimulus/viswhere_stim/match_blank.png,stimulus/audwhere_stim/match_box.png,stimulus/viswhere_stim/match_yes.png,stimulus/viswhere_stim/match_no.png,2.0,Match,Direction,Side,2,5.125,0,5.125,0,5.125,0,5.125,0,0.625,0.625,0,0.0,0,0.0,0,0.0,0,0.0,1,0.5,1,2.125,1,0.5,1,2.125,0,,,,,0,23,23,23,,,,,,,,,227.84305395799993,232.96300254100015,227.84305395799993,227.84305395799993,227.84305395799993,227.84305395799993,228.28938137500018,229.28776687500022,228.3018379996668,229.2961775409999,229.92749441600017,230.92470304100016,229.93916408266685,230.93400895800005,232.96300254100015,233.677773291,235.7441228749999,,233.677773291,233.677773291,238.85007895800027,233.677773291,233.677773291,233.677773291,233.677773291,234.14762225000004,235.17985695800007,234.11731033266668,,235.7441228749999,236.78058279100014,235.71332045766692,,233.677773291,238.85007895800027,233.677773291,238.85007895800027,238.89127979100022,239.55113829099992,233.677773291,2,1,1.1305120419997365,reldom2_s006,001,2025-01-31_15h07.44.904,Where-A-Scan_AC,2022.2.5,None,
0,0.0,None,fixation,stimulus/viswhere_stim/blank_white.png,stimulus/viswhere_stim/blank_white.png,stimulus/audwhere_stim/blank_white.png,stimulus/audwhere_stim/blank_white.png,stimulus/viswhere_stim/blank_white.png,stimulus/viswhere_stim/blank_white.png,stimulus/viswhere_stim/blank_white.png,stimulus/viswhere_stim/blank_white.png,0.0,0.0,0.0,0.0,0,0.0,0,0.0,0,0.0,0,0.0,0,0.0,0.0,0,0.0,0,0.0,0,0.0,0,0.0,0,0.0,0,0.0,0,0.0,0,0.0,9,,,,,0,24,24,24,,,,,,,,,239.78866629100003,239.78866629100003,239.78866629100003,239.78866629100003,239.78866629100003,239.78866629100003,239.78866629100003,239.78866629100003,239.68447162433327,239.78866629100003,239.78866629100003,239.78866629100003,239.68447162433327,239.78866629100003,239.78866629100003,239.78866629100003,239.78866629100003,239.78866629100003,239.78866629100003,239.78866629100003,239.78866629100003,239.78866629100003,239.78866629100003,239.78866629100003,239.78866629100003,239.78866629100003,239.78866629100003,239.73447162433325,239.78866629100003,239.78866629100003,239.78866629100003,239.73447162433325,239.78866629100003,239.78866629100003,239.78866629100003,239.78866629100003,239.78866629100003,244.97920254100018,244.97920254100018,249.06483441599994,None,0,,reldom2_s006,001,2025-01-31_15h07.44.904,Where-A-Scan_AC,2022.2.5,None,
19,First_Order,4.0,audwhere,stimulus/audwhere_stim/dummy.wav,stimulus/audwhere_stim/dummy.wav,stimulus/audwhere_stim/right_away_300h.wav,stimulus/audwhere_stim/left_away_280h.wav,stimulus/audwhere_stim/blank_white.png,stimulus/audwhere_stim/direction_box.png,stimulus/audwhere_stim/direction_yes.png,stimulus/audwhere_stim/direction_no.png,None,Direction,None,Direction,1,0.0,0,5.125,0,5.125,0,5.125,0,0.0,0.625,0,0.0,0,0.0,0,0.0,0,0.0,0,0.0,0,0.0,1,0.5,1,2.125,0,,,,,0,25,25,25,,,,,,,,,249.06483441599994,249.06483441599994,249.06483441599994,249.06483441599994,249.06483441599994,249.06483441599994,249.06483441599994,249.06483441599994,248.9876172076667,249.06483441599994,249.06483441599994,249.06483441599994,248.9876172076667,249.06483441599994,249.06483441599994,249.06483441599994,251.1485845000002,255.19040933299993,249.06483441599994,249.06483441599994,254.22599983300006,249.06483441599994,249.06483441599994,249.06483441599994,249.06483441599994,249.53800120799997,250.5816231660001,249.5070498746666,,251.1485845000002,252.1938465410003,251.11794537466702,,249.06483441599994,254.22599983300006,249.06483441599994,254.22599983300006,254.26731462499993,254.93307000000004,249.06483441599994,1,1,1.1096929999998792,reldom2_s006,001,2025-01-31_15h07.44.904,Where-A-Scan_AC,2022.2.5,None,
20,First_Order,4.0,audwhere,stimulus/audwhere_stim/dummy.wav,stimulus/audwhere_stim/dummy.wav,stimulus/audwhere_stim/right_toward_270h.wav,stimulus/audwhere_stim/right_away_280h.wav,stimulus/audwhere_stim/blank_white.png,stimulus/audwhere_stim/direction_box.png,stimulus/audwhere_stim/direction_yes.png,stimulus/audwhere_stim/direction_no.png,None,Direction,None,Side,2,0.0,0,5.125,0,5.125,0,5.125,0,0.0,0.625,0,0.0,0,0.0,0,0.0,0,0.0,0,0.0,0,0.0,1,0.5,1,2.125,0,,,,,0,26,26,26,,,,,,,,,255.19040933299993,255.19040933299993,255.19040933299993,255.19040933299993,255.19040933299993,255.19040933299993,255.19040933299993,255.19040933299993,255.10783654133334,255.19040933299993,255.19040933299993,255.19040933299993,255.10783654133334,255.19040933299993,255.19040933299993,255.19040933299993,257.27209495800025,261.31515149999996,255.19040933299993,255.19040933299993,260.3518048750002,255.19040933299993,255.19040933299993,255.19040933299993,255.19040933299993,255.66300850000016,256.705097,255.6322809166666,,257.27209495800025,258.3171282080002,257.2410041246669,,255.19040933299993,260.3518048750002,255.19040933299993,260.3518048750002,260.39436004100025,261.05701079100027,255.19040933299993,2,1,1.058618167000077,reldom2_s006,001,2025-01-31_15h07.44.904,Where-A-Scan_AC,2022.2.5,None,
21,First_Order,4.0,audwhere,stimulus/audwhere_stim/dummy.wav,stimulus/audwhere_stim/dummy.wav,stimulus/audwhere_stim/left_toward_300h.wav,stimulus/audwhere_stim/left_away_300h.wav,stimulus/audwhere_stim/blank_white.png,stimulus/audwhere_stim/side_box.png,stimulus/audwhere_stim/side_yes.png,stimulus/audwhere_stim/side_no.png,None,Side,None,Side,1,0.0,0,5.125,0,5.125,0,5.125,0,0.0,0.625,0,0.0,0,0.0,0,0.0,0,0.0,0,0.0,0,0.0,1,0.5,1,2.125,0,,,,,0,27,27,27,,,,,,,,,261.31515149999996,261.31515149999996,261.31515149999996,261.31515149999996,261.31515149999996,261.31515149999996,261.31515149999996,261.31515149999996,261.23182887433325,261.31515149999996,261.31515149999996,261.31515149999996,261.23182887433325,261.31515149999996,261.31515149999996,261.31515149999996,263.38764600000013,,261.31515149999996,261.31515149999996,266.4993173749999,261.31515149999996,261.31515149999996,261.31515149999996,261.31515149999996,261.7863601660001,262.823125291,261.75613137466667,,263.38764600000013,264.4289484159999,263.3569199996666,,261.31515149999996,266.4993173749999,261.31515149999996,266.4993173749999,266.541262791,267.2026798330003,261.31515149999996,1,1,0.8537547920000179,reldom2_s006,001,2025-01-31_15h07.44.904,Where-A-Scan_AC,2022.2.5,None,
22,First_Order,4.0,audwhere,stimulus/audwhere_stim/dummy.wav,stimulus/audwhere_stim/dummy.wav,stimulus/audwhere_stim/right_away_270h.wav,stimulus/audwhere_stim/left_away_300h.wav,stimulus/audwhere_stim/blank_white.png,stimulus/audwhere_stim/side_box.png,stimulus/audwhere_stim/side_yes.png,stimulus/audwhere_stim/side_no.png,None,Side,None,Direction,2,0.0,0,5.125,0,5.125,0,5.125,0,0.0,0.625,0,0.0,0,0.0,0,0.0,0,0.0,0,0.0,0,0.0,1,0.5,1,2.125,0,,,,,0,28,28,28,,,,,,,,,267.418809541,267.418809541,267.418809541,267.418809541,267.418809541,267.418809541,267.418809541,267.418809541,267.3360131663336,267.418809541,267.418809541,267.418809541,267.3360131663336,267.418809541,267.418809541,267.418809541,269.536196,,267.418809541,267.418809541,272.6014034580003,267.418809541,267.418809541,267.418809541,267.418809541,267.89113275,268.9255658750003,267.8602424166668,,269.536196,270.5769802499999,269.50528933266673,,267.418809541,272.6014034580003,267.418809541,272.6014034580003,272.6430641249999,273.30760775,267.418809541,2,1,0.7088345409997601,reldom2_s006,001,2025-01-31_15h07.44.904,Where-A-Scan_AC,2022.2.5,None,
0,0.0,None,fixation,stimulus/viswhere_stim/blank_white.png,stimulus/viswhere_stim/blank_white.png,stimulus/audwhere_stim/blank_white.png,stimulus/audwhere_stim/blank_white.png,stimulus/viswhere_stim/blank_white.png,stimulus/viswhere_stim/blank_white.png,stimulus/viswhere_stim/blank_white.png,stimulus/viswhere_stim/blank_white.png,0.0,0.0,0.0,0.0,0,0.0,0,0.0,0,0.0,0,0.0,0,0.0,0.0,0,0.0,0,0.0,0,0.0,0,0.0,0,0.0,0,0.0,0,0.0,0,0.0,9,,,,,0,29,29,29,,,,,,,,,273.549164,273.549164,273.549164,273.549164,273.549164,273.549164,273.549164,273.549164,273.4409410833333,273.549164,273.549164,273.549164,273.4409410833333,273.549164,273.549164,273.549164,273.549164,273.549164,273.549164,273.549164,273.549164,273.549164,273.549164,273.549164,273.549164,273.549164,273.549164,273.50760775,273.549164,273.549164,273.549164,273.50760775,273.549164,273.549164,273.549164,273.549164,273.549164,278.7725716250002,278.7725716250002,282.72580225,None,0,,reldom2_s006,001,2025-01-31_15h07.44.904,Where-A-Scan_AC,2022.2.5,None,
23,Second_Order,4.0,audwhere,stimulus/audwhere_stim/left_away_270h.wav,stimulus/audwhere_stim/left_toward_290h.wav,stimulus/audwhere_stim/left_toward_300h.wav,stimulus/audwhere_stim/right_toward_280h.wav,stimulus/viswhere_stim/match_blank.png,stimulus/audwhere_stim/match_box.png,stimulus/viswhere_stim/match_yes.png,stimulus/viswhere_stim/match_no.png,2.0,Match,Side,Direction,2,5.125,0,5.125,0,5.125,0,5.125,0,0.75,0.75,0,0.0,0,0.0,0,0.0,0,0.0,1,0.5,1,2.125,1,0.5,1,2.125,0,,,,,0,30,30,30,,,,,,,,,282.72580225,287.8440317909999,282.72580225,282.72580225,282.72580225,282.72580225,283.18249512500006,284.1807857910003,283.1950115826669,284.18867687500006,284.8034560830001,285.8012643750003,284.81549933266683,285.81320591600024,287.8440317909999,288.67572870799995,290.7459832909999,,288.67572870799995,288.67572870799995,293.85393683300026,288.67572870799995,288.67572870799995,288.67572870799995,288.67572870799995,289.14524766600016,290.182289416,289.1148914576668,,290.7459832909999,291.78564233299994,290.71570841666676,,288.67572870799995,293.85393683300026,288.67572870799995,293.85393683300026,293.85393683300026,,288.67572870799995,2,1,0.7056174159997681,reldom2_s006,001,2025-01-31_15h07.44.904,Where-A-Scan_AC,2022.2.5,None,
24,Second_Order,4.0,audwhere,stimulus/audwhere_stim/right_toward_290h.wav,stimulus/audwhere_stim/right_away_290h.wav,stimulus/audwhere_stim/left_away_300h.wav,stimulus/audwhere_stim/left_toward_270h.wav,stimulus/viswhere_stim/match_blank.png,stimulus/audwhere_stim/match_box.png,stimulus/viswhere_stim/match_yes.png,stimulus/viswhere_stim/match_no.png,1.0,Match,Side,Side,1,5.125,0,5.125,0,5.125,0,5.125,0,0.625,0.625,0,0.0,0,0.0,0,0.0,0,0.0,1,0.5,1,2.125,1,0.5,1,2.125,0,,,,,0,31,31,31,,,,,,,,,294.6779817500001,299.8006355000002,294.6779817500001,294.6779817500001,294.6779817500001,294.6779817500001,295.1267294580002,296.12520666599994,295.13943283266667,296.1330671660003,296.759870375,297.74947175000034,296.7641857916667,297.7622120830001,299.8006355000002,300.5141180830001,302.58136300000024,,300.5141180830001,300.5141180830001,305.678584625,300.5141180830001,300.5141180830001,300.5141180830001,300.5141180830001,300.98407391599994,302.0183417080002,300.9532109996669,,302.58136300000024,303.61723391600026,302.5506111666666,,300.5141180830001,305.678584625,300.5141180830001,305.678584625,305.7205985410001,306.3826290000002,300.5141180830001,1,1,0.7992933329996958,reldom2_s006,001,2025-01-31_15h07.44.904,Where-A-Scan_AC,2022.2.5,None,
0,0.0,None,fixation,stimulus/viswhere_stim/blank_white.png,stimulus/viswhere_stim/blank_white.png,stimulus/audwhere_stim/blank_white.png,stimulus/audwhere_stim/blank_white.png,stimulus/viswhere_stim/blank_white.png,stimulus/viswhere_stim/blank_white.png,stimulus/viswhere_stim/blank_white.png,stimulus/viswhere_stim/blank_white.png,0.0,0.0,0.0,0.0,0,0.0,0,0.0,0,0.0,0,0.0,0,0.0,0.0,0,0.0,0,0.0,0,0.0,0,0.0,0,0.0,0,0.0,0,0.0,0,0.0,10,,,,,0,32,32,32,,,,,,,,,306.6210241250001,306.6210241250001,306.6210241250001,306.6210241250001,306.6210241250001,306.6210241250001,306.6210241250001,306.6210241250001,306.5159623333335,306.6210241250001,306.6210241250001,306.6210241250001,306.5159623333335,306.6210241250001,306.6210241250001,306.6210241250001,306.6210241250001,306.6210241250001,306.6210241250001,306.6210241250001,306.6210241250001,306.6210241250001,306.6210241250001,306.6210241250001,306.6210241250001,306.6210241250001,306.6210241250001,306.58262900000017,306.6210241250001,306.6210241250001,306.6210241250001,306.58262900000017,306.6210241250001,306.6210241250001,306.6210241250001,306.6210241250001,306.6210241250001,311.81873191600016,311.81873191600016,316.83329170800016,None,0,,reldom2_s006,001,2025-01-31_15h07.44.904,Where-A-Scan_AC,2022.2.5,None,
25,First_Order,5.0,viswhere,stimulus/viswhere_stim/blank_white.png,stimulus/viswhere_stim/blank_white.png,stimulus/viswhere_stim/120-deg_dot-right_goldenrod.png,stimulus/viswhere_stim/150-deg_dot-right_turquoise.png,stimulus/viswhere_stim/blank_white.png,stimulus/viswhere_stim/dot_box.png,stimulus/viswhere_stim/dot_yes.png,stimulus/viswhere_stim/dot_no.png,None,Dot,None,Dot,1,0.0,0,5.125,0,5.125,0,5.125,0,0.0,0.625,0,0.0,0,0.0,1,0.5,1,2.125,0,0.0,0,0.0,0,0.0,0,0.0,0,,,,,0,33,33,33,,,,,,,,,316.83329170800016,316.83329170800016,316.83329170800016,316.83329170800016,316.83329170800016,316.83329170800016,316.83329170800016,316.83329170800016,316.8072652076668,316.83329170800016,316.83329170800016,316.83329170800016,316.8072652076668,316.83329170800016,316.83329170800016,316.83329170800016,318.93577366599993,322.8913171250001,316.83329170800016,316.83329170800016,321.9595515410001,317.32053533299995,318.3347221250001,318.93577366599993,319.95407854099994,316.83329170800016,316.83329170800016,316.8239318743335,316.83329170800016,316.83329170800016,316.83329170800016,316.8239318743335,316.83329170800016,316.83329170800016,321.9595515410001,316.83329170800016,321.9595515410001,322.0481298330001,322.674043,316.83329170800016,1,1,0.9130535829999644,reldom2_s006,001,2025-01-31_15h07.44.904,Where-A-Scan_AC,2022.2.5,None,
26,First_Order,5.0,viswhere,stimulus/viswhere_stim/blank_white.png,stimulus/viswhere_stim/blank_white.png,stimulus/viswhere_stim/90-deg_dot-right_royalblue.png,stimulus/viswhere_stim/120-deg_dot-right_seagreen.png,stimulus/viswhere_stim/blank_white.png,stimulus/viswhere_stim/line_box.png,stimulus/viswhere_stim/line_yes.png,stimulus/viswhere_stim/line_no.png,None,Line,None,Dot,2,0.0,0,5.125,0,5.125,0,5.125,0,0.0,0.625,0,0.0,0,0.0,1,0.5,1,2.125,0,0.0,0,0.0,0,0.0,0,0.0,0,,,,,0,34,34,34,,,,,,,,,322.8913171250001,322.8913171250001,322.8913171250001,322.8913171250001,322.8913171250001,322.8913171250001,322.8913171250001,322.8913171250001,322.8689488743333,322.8913171250001,322.8913171250001,322.8913171250001,322.8689488743333,322.8913171250001,322.8913171250001,322.8913171250001,324.9897114160003,328.95396841599995,322.8913171250001,322.8913171250001,328.0259863330002,323.37870016600027,324.3895393329999,324.9897114160003,326.00751416599996,322.8913171250001,322.8913171250001,322.88561554099994,322.8913171250001,322.8913171250001,322.8913171250001,322.88561554099994,322.8913171250001,322.8913171250001,328.0259863330002,322.8913171250001,328.0259863330002,328.10928383300006,328.7351552079999,322.8913171250001,2,1,0.7687164999997549,reldom2_s006,001,2025-01-31_15h07.44.904,Where-A-Scan_AC,2022.2.5,None,
27,First_Order,5.0,viswhere,stimulus/viswhere_stim/blank_white.png,stimulus/viswhere_stim/blank_white.png,stimulus/viswhere_stim/60-deg_dot-left_lightsseagreen.png,stimulus/viswhere_stim/60-deg_dot-right_slateblue.png,stimulus/viswhere_stim/blank_white.png,stimulus/viswhere_stim/line_box.png,stimulus/viswhere_stim/line_yes.png,stimulus/viswhere_stim/line_no.png,None,Line,None,Line,1,0.0,0,5.125,0,5.125,0,5.125,0,0.0,0.625,0,0.0,0,0.0,1,0.5,1,2.125,0,0.0,0,0.0,0,0.0,0,0.0,0,,,,,0,35,35,35,,,,,,,,,328.95396841599995,328.95396841599995,328.95396841599995,328.95396841599995,328.95396841599995,328.95396841599995,328.95396841599995,328.95396841599995,328.9298876663336,328.95396841599995,328.95396841599995,328.95396841599995,328.9298876663336,328.95396841599995,328.95396841599995,328.95396841599995,331.0648405000002,335.020210916,328.95396841599995,328.95396841599995,334.078436708,329.4377736250003,330.4467678330002,331.0648405000002,332.079911583,328.95396841599995,328.95396841599995,328.9465543330003,328.95396841599995,328.95396841599995,328.95396841599995,328.9465543330003,328.95396841599995,328.95396841599995,334.078436708,328.95396841599995,334.078436708,334.1758211250003,334.8015585410003,328.95396841599995,1,1,0.6710303750001003,reldom2_s006,001,2025-01-31_15h07.44.904,Where-A-Scan_AC,2022.2.5,None,
28,First_Order,5.0,viswhere,stimulus/viswhere_stim/blank_white.png,stimulus/viswhere_stim/blank_white.png,stimulus/viswhere_stim/120-deg_dot-right_slateblue.png,stimulus/viswhere_stim/90-deg_dot-right_cyan.png,stimulus/viswhere_stim/blank_white.png,stimulus/viswhere_stim/dot_box.png,stimulus/viswhere_stim/dot_yes.png,stimulus/viswhere_stim/dot_no.png,None,Dot,None,Dot,1,0.0,0,5.125,0,5.125,0,5.125,0,0.0,0.625,0,0.0,0,0.0,1,0.5,1,2.125,0,0.0,0,0.0,0,0.0,0,0.0,0,,,,,0,36,36,36,,,,,,,,,335.020210916,335.020210916,335.020210916,335.020210916,335.020210916,335.020210916,335.020210916,335.020210916,334.99691662433344,335.020210916,335.020210916,335.020210916,334.99691662433344,335.020210916,335.020210916,335.020210916,337.136926916,341.16516412500005,335.020210916,335.020210916,340.1556329160003,335.50645408300034,336.51703079100025,337.136926916,338.1547807500001,335.020210916,335.020210916,335.0135832910001,335.020210916,335.020210916,335.020210916,335.0135832910001,335.020210916,335.020210916,340.1556329160003,335.020210916,340.1556329160003,340.24008837500014,340.8689615000003,335.020210916,2,0,0.5024474589999954,reldom2_s006,001,2025-01-31_15h07.44.904,Where-A-Scan_AC,2022.2.5,None,
0,0.0,None,fixation,stimulus/viswhere_stim/blank_white.png,stimulus/viswhere_stim/blank_white.png,stimulus/audwhere_stim/blank_white.png,stimulus/audwhere_stim/blank_white.png,stimulus/viswhere_stim/blank_white.png,stimulus/viswhere_stim/blank_white.png,stimulus/viswhere_stim/blank_white.png,stimulus/viswhere_stim/blank_white.png,0.0,0.0,0.0,0.0,0,0.0,0,0.0,0,0.0,0,0.0,0,0.0,0.0,0,0.0,0,0.0,0,0.0,0,0.0,0,0.0,0,0.0,0,0.0,0,0.0,9,,,,,0,37,37,37,,,,,,,,,341.16516412500005,341.16516412500005,341.16516412500005,341.16516412500005,341.16516412500005,341.16516412500005,341.16516412500005,341.16516412500005,341.06331562433326,341.16516412500005,341.16516412500005,341.16516412500005,341.06331562433326,341.16516412500005,341.16516412500005,341.16516412500005,341.16516412500005,341.16516412500005,341.16516412500005,341.16516412500005,341.16516412500005,341.16516412500005,341.16516412500005,341.16516412500005,341.16516412500005,341.16516412500005,341.16516412500005,341.11331562433327,341.16516412500005,341.16516412500005,341.16516412500005,341.11331562433327,341.16516412500005,341.16516412500005,341.16516412500005,341.16516412500005,341.16516412500005,346.3915891659999,346.3915891659999,350.2702617499999,None,0,,reldom2_s006,001,2025-01-31_15h07.44.904,Where-A-Scan_AC,2022.2.5,None,
29,Second_Order,5.0,viswhere,stimulus/viswhere_stim/150-deg_dot-right_cyan.png,stimulus/viswhere_stim/150-deg_dot-left_peru.png,stimulus/viswhere_stim/90-deg_dot-left_goldenrod.png,stimulus/viswhere_stim/90-deg_dot-right_mediumslateblue.png,stimulus/viswhere_stim/match_blank.png,stimulus/viswhere_stim/match_box.png,stimulus/viswhere_stim/match_yes.png,stimulus/viswhere_stim/match_no.png,1.0,Match,Line,Line,1,5.125,0,5.125,0,5.125,0,5.125,0,0.75,0.75,1,0.5,1,2.125,1,0.5,1,2.125,0,0.0,0,0.0,0,0.0,0,0.0,0,,,,,0,38,38,38,,,,,,,,,350.2702617499999,355.38395412499995,350.7550580830002,351.7535835829999,352.3758963330001,353.37369587500007,350.2702617499999,350.2702617499999,350.28276037433363,350.2702617499999,350.2702617499999,350.2702617499999,350.28276037433363,350.2702617499999,355.38395412499995,356.1600036250002,358.2574062910003,362.11545375000014,356.1600036250002,356.1600036250002,361.29732029100023,356.6297009160003,357.65030724999997,358.2574062910003,359.2609702499999,356.1600036250002,356.1600036250002,356.15043016633354,356.1600036250002,356.1600036250002,356.1600036250002,356.15043016633354,356.1600036250002,356.1600036250002,361.29732029100023,356.1600036250002,361.29732029100023,361.372164291,362.1536785410003,356.1600036250002,1,1,0.6813369579999744,reldom2_s006,001,2025-01-31_15h07.44.904,Where-A-Scan_AC,2022.2.5,None,
30,Second_Order,5.0,viswhere,stimulus/viswhere_stim/90-deg_dot-right_royalblue.png,stimulus/viswhere_stim/60-deg_dot-right_peru.png,stimulus/viswhere_stim/30-deg_dot-left_slateblue.png,stimulus/viswhere_stim/90-deg_dot-left_seagreen.png,stimulus/viswhere_stim/match_blank.png,stimulus/viswhere_stim/match_box.png,stimulus/viswhere_stim/match_yes.png,stimulus/viswhere_stim/match_no.png,1.0,Match,Dot,Dot,1,5.125,0,5.125,0,5.125,0,5.125,0,0.625,0.625,1,0.5,1,2.125,1,0.5,1,2.125,0,0.0,0,0.0,0,0.0,0,0.0,0,,,,,0,39,39,39,,,,,,,,,362.1536785410003,367.2780518750001,362.6330065830002,363.6308590829999,364.2541060000003,365.25129874999993,362.1536785410003,362.1536785410003,362.16545375000015,362.1536785410003,362.1536785410003,362.1536785410003,362.16545375000015,362.1536785410003,367.2780518750001,367.93628045800006,370.0263742080001,374.07556783300015,367.93628045800006,367.93628045800006,373.0590354159999,368.40472741600024,369.42084587499994,370.0263742080001,371.0471347910002,367.93628045800006,367.93628045800006,367.92443024933345,367.93628045800006,367.93628045800006,367.93628045800006,367.92443024933345,367.93628045800006,367.93628045800006,373.0590354159999,367.93628045800006,373.0590354159999,373.1434891250001,373.76997462500003,367.93628045800006,1,1,0.6767571669997778,reldom2_s006,001,2025-01-31_15h07.44.904,Where-A-Scan_AC,2022.2.5,None,
0,0.0,None,fixation,stimulus/viswhere_stim/blank_white.png,stimulus/viswhere_stim/blank_white.png,stimulus/audwhere_stim/blank_white.png,stimulus/audwhere_stim/blank_white.png,stimulus/viswhere_stim/blank_white.png,stimulus/viswhere_stim/blank_white.png,stimulus/viswhere_stim/blank_white.png,stimulus/viswhere_stim/blank_white.png,0.0,0.0,0.0,0.0,0,0.0,0,0.0,0,0.0,0,0.0,0,0.0,0.0,0,0.0,0,0.0,0,0.0,0,0.0,0,0.0,0,0.0,0,0.0,0,0.0,8,,,,,0,40,40,40,,,,,,,,,374.07556783300015,374.07556783300015,374.07556783300015,374.07556783300015,374.07556783300015,374.07556783300015,374.07556783300015,374.07556783300015,373.9702868743332,374.07556783300015,374.07556783300015,374.07556783300015,373.9702868743332,374.07556783300015,374.07556783300015,374.07556783300015,374.07556783300015,374.07556783300015,374.07556783300015,374.07556783300015,374.07556783300015,374.07556783300015,374.07556783300015,374.07556783300015,374.07556783300015,374.07556783300015,374.07556783300015,374.02028687433324,374.07556783300015,374.07556783300015,374.07556783300015,374.02028687433324,374.07556783300015,374.07556783300015,374.07556783300015,374.07556783300015,374.07556783300015,379.2956397500002,379.2956397500002,382.2601177910001,None,0,,reldom2_s006,001,2025-01-31_15h07.44.904,Where-A-Scan_AC,2022.2.5,None,
31,First_Order,6.0,viswhere,stimulus/viswhere_stim/blank_white.png,stimulus/viswhere_stim/blank_white.png,stimulus/viswhere_stim/90-deg_dot-right_lightsseagreen.png,stimulus/viswhere_stim/90-deg_dot-left_turquoise.png,stimulus/viswhere_stim/blank_white.png,stimulus/viswhere_stim/line_box.png,stimulus/viswhere_stim/line_yes.png,stimulus/viswhere_stim/line_no.png,None,Line,None,Line,1,0.0,0,5.125,0,5.125,0,5.125,0,0.0,0.625,0,0.0,0,0.0,1,0.5,1,2.125,0,0.0,0,0.0,0,0.0,0,0.0,0,,,,,0,41,41,41,,,,,,,,,382.2601177910001,382.2601177910001,382.2601177910001,382.2601177910001,382.2601177910001,382.2601177910001,382.2601177910001,382.2601177910001,382.23581299966656,382.2601177910001,382.2601177910001,382.2601177910001,382.23581299966656,382.2601177910001,382.2601177910001,382.2601177910001,384.367339291,388.321354833,382.2601177910001,382.2601177910001,387.39694925000003,382.729429,383.74293912500025,384.367339291,385.38806375000013,382.2601177910001,382.2601177910001,382.2524796663333,382.2601177910001,382.2601177910001,382.2601177910001,382.2524796663333,382.2601177910001,382.2601177910001,387.39694925000003,382.2601177910001,387.39694925000003,387.4823700000002,388.1166432079999,382.2601177910001,1,1,0.7481675419994644,reldom2_s006,001,2025-01-31_15h07.44.904,Where-A-Scan_AC,2022.2.5,None,
32,First_Order,6.0,viswhere,stimulus/viswhere_stim/blank_white.png,stimulus/viswhere_stim/blank_white.png,stimulus/viswhere_stim/30-deg_dot-right_goldenrod.png,stimulus/viswhere_stim/30-deg_dot-left_seagreen.png,stimulus/viswhere_stim/blank_white.png,stimulus/viswhere_stim/dot_box.png,stimulus/viswhere_stim/dot_yes.png,stimulus/viswhere_stim/dot_no.png,None,Dot,None,Line,2,0.0,0,5.125,0,5.125,0,5.125,0,0.0,0.625,0,0.0,0,0.0,1,0.5,1,2.125,0,0.0,0,0.0,0,0.0,0,0.0,0,,,,,0,42,42,42,,,,,,,,,388.321354833,388.321354833,388.321354833,388.321354833,388.321354833,388.321354833,388.321354833,388.321354833,388.2973311243334,388.321354833,388.321354833,388.321354833,388.2973311243334,388.321354833,388.321354833,388.321354833,390.41979704100004,394.3879699160002,388.321354833,388.321354833,393.45568062500024,388.80746120799995,389.8189388750002,390.41979704100004,391.43642524999996,388.321354833,388.321354833,388.3139977910001,388.321354833,388.321354833,388.321354833,388.3139977910001,388.321354833,388.321354833,393.45568062500024,388.321354833,393.45568062500024,393.54025333300024,394.16924562500026,388.321354833,1,0,0.5651905839995379,reldom2_s006,001,2025-01-31_15h07.44.904,Where-A-Scan_AC,2022.2.5,None,
33,First_Order,6.0,viswhere,stimulus/viswhere_stim/blank_white.png,stimulus/viswhere_stim/blank_white.png,stimulus/viswhere_stim/150-deg_dot-left_lightsseagreen.png,stimulus/viswhere_stim/150-deg_dot-right_royalblue.png,stimulus/viswhere_stim/blank_white.png,stimulus/viswhere_stim/dot_box.png,stimulus/viswhere_stim/dot_yes.png,stimulus/viswhere_stim/dot_no.png,None,Dot,None,Line,2,0.0,0,5.125,0,5.125,0,5.125,0,0.0,0.625,0,0.0,0,0.0,1,0.5,1,2.125,0,0.0,0,0.0,0,0.0,0,0.0,0,,,,,0,43,43,43,,,,,,,,,394.3879699160002,394.3879699160002,394.3879699160002,394.3879699160002,394.3879699160002,394.3879699160002,394.3879699160002,394.3879699160002,394.36420704133326,394.3879699160002,394.3879699160002,394.3879699160002,394.36420704133326,394.3879699160002,394.3879699160002,394.3879699160002,396.4898776660002,400.4496119160003,394.3879699160002,394.3879699160002,399.5175225830003,394.87901333300033,395.8830321250002,396.4898776660002,397.49781658300026,394.3879699160002,394.3879699160002,394.3808737079999,394.3879699160002,394.3879699160002,394.3879699160002,394.3808737079999,394.3879699160002,394.3879699160002,399.5175225830003,394.3879699160002,399.5175225830003,399.6159922910001,400.24238029100025,394.3879699160002,2,1,0.810283457999958,reldom2_s006,001,2025-01-31_15h07.44.904,Where-A-Scan_AC,2022.2.5,None,
34,First_Order,6.0,viswhere,stimulus/viswhere_stim/blank_white.png,stimulus/viswhere_stim/blank_white.png,stimulus/viswhere_stim/120-deg_dot-left_peru.png,stimulus/viswhere_stim/90-deg_dot-left_royalblue.png,stimulus/viswhere_stim/blank_white.png,stimulus/viswhere_stim/line_box.png,stimulus/viswhere_stim/line_yes.png,stimulus/viswhere_stim/line_no.png,None,Line,None,Dot,2,0.0,0,5.125,0,5.125,0,5.125,0,0.0,0.625,0,0.0,0,0.0,1,0.5,1,2.125,0,0.0,0,0.0,0,0.0,0,0.0,0,,,,,0,44,44,44,,,,,,,,,400.4496119160003,400.4496119160003,400.4496119160003,400.4496119160003,400.4496119160003,400.4496119160003,400.4496119160003,400.4496119160003,400.4255681243333,400.4496119160003,400.4496119160003,400.4496119160003,400.4255681243333,400.4496119160003,400.4496119160003,400.4496119160003,402.55570012499993,406.58831658300005,400.4496119160003,400.4496119160003,405.5858492080001,400.9380070000002,401.95268720800004,402.55570012499993,403.5755011250003,400.4496119160003,400.4496119160003,400.442234791,400.4496119160003,400.4496119160003,400.4496119160003,400.442234791,400.4496119160003,400.4496119160003,405.5858492080001,400.4496119160003,405.5858492080001,405.6713704580002,406.30562954100014,400.4496119160003,2,1,0.8259147919998213,reldom2_s006,001,2025-01-31_15h07.44.904,Where-A-Scan_AC,2022.2.5,None,
0,0.0,None,fixation,stimulus/viswhere_stim/blank_white.png,stimulus/viswhere_stim/blank_white.png,stimulus/audwhere_stim/blank_white.png,stimulus/audwhere_stim/blank_white.png,stimulus/viswhere_stim/blank_white.png,stimulus/viswhere_stim/blank_white.png,stimulus/viswhere_stim/blank_white.png,stimulus/viswhere_stim/blank_white.png,0.0,0.0,0.0,0.0,0,0.0,0,0.0,0,0.0,0,0.0,0,0.0,0.0,0,0.0,0,0.0,0,0.0,0,0.0,0,0.0,0,0.0,0,0.0,0,0.0,10,,,,,0,45,45,45,,,,,,,,,406.58831658300005,406.58831658300005,406.58831658300005,406.58831658300005,406.58831658300005,406.58831658300005,406.58831658300005,406.58831658300005,406.4862972083336,406.58831658300005,406.58831658300005,406.58831658300005,406.4862972083336,406.58831658300005,406.58831658300005,406.58831658300005,406.58831658300005,406.58831658300005,406.58831658300005,406.58831658300005,406.58831658300005,406.58831658300005,406.58831658300005,406.58831658300005,406.58831658300005,406.58831658300005,406.58831658300005,406.5362972083336,406.58831658300005,406.58831658300005,406.58831658300005,406.5362972083336,406.58831658300005,406.58831658300005,406.58831658300005,406.58831658300005,406.58831658300005,411.8153486250003,411.8153486250003,416.7348674580003,None,0,,reldom2_s006,001,2025-01-31_15h07.44.904,Where-A-Scan_AC,2022.2.5,None,
35,Second_Order,6.0,viswhere,stimulus/viswhere_stim/60-deg_dot-right_mediumslateblue.png,stimulus/viswhere_stim/150-deg_dot-right_turquoise.png,stimulus/viswhere_stim/90-deg_dot-right_slateblue.png,stimulus/viswhere_stim/90-deg_dot-left_seagreen.png,stimulus/viswhere_stim/match_blank.png,stimulus/viswhere_stim/match_box.png,stimulus/viswhere_stim/match_yes.png,stimulus/viswhere_stim/match_no.png,2.0,Match,Dot,Line,2,5.125,0,5.125,0,5.125,0,5.125,0,0.75,0.75,1,0.5,1,2.125,1,0.5,1,2.125,0,0.0,0,0.0,0,0.0,0,0.0,0,,,,,0,46,46,46,,,,,,,,,416.7348674580003,421.85267170800034,417.2080075829999,418.2067112499999,418.8415569580002,419.8318206250001,416.7348674580003,416.7348674580003,416.74604670833344,416.7348674580003,416.7348674580003,416.7348674580003,416.74604670833344,416.7348674580003,421.85267170800034,422.6325360830001,424.7288404579999,428.62034091600026,422.6325360830001,422.6325360830001,427.7705717910003,423.1040827080001,424.1231860410003,424.7288404579999,425.7328680410001,422.6325360830001,422.6325360830001,422.6203829993333,422.6325360830001,422.6325360830001,422.6325360830001,422.6203829993333,422.6325360830001,422.6325360830001,427.7705717910003,422.6325360830001,427.7705717910003,427.8614278330001,,422.6325360830001,2,1,0.7820919579999099,reldom2_s006,001,2025-01-31_15h07.44.904,Where-A-Scan_AC,2022.2.5,None,
36,Second_Order,6.0,viswhere,stimulus/viswhere_stim/120-deg_dot-left_royalblue.png,stimulus/viswhere_stim/120-deg_dot-right_cyan.png,stimulus/viswhere_stim/90-deg_dot-left_slateblue.png,stimulus/viswhere_stim/90-deg_dot-right_turquoise.png,stimulus/viswhere_stim/match_blank.png,stimulus/viswhere_stim/match_box.png,stimulus/viswhere_stim/match_yes.png,stimulus/viswhere_stim/match_no.png,1.0,Match,Line,Line,1,5.125,0,5.125,0,5.125,0,5.125,0,0.625,0.625,1,0.5,1,2.125,1,0.5,1,2.125,0,0.0,0,0.0,0,0.0,0,0.0,0,,,,,0,47,47,47,,,,,,,,,428.62034091600026,433.74248375000025,429.1020880410001,430.1009478330002,430.7236572500001,431.72102937499994,428.62034091600026,428.62034091600026,428.63257508299995,428.62034091600026,428.62034091600026,428.62034091600026,428.63257508299995,428.62034091600026,433.74248375000025,434.4029487910002,436.49714300000005,440.5393922080002,434.4029487910002,434.4029487910002,439.53839641600007,434.8723741660001,435.8920109999999,436.49714300000005,437.5007076249999,434.4029487910002,434.4029487910002,434.3938362913336,434.4029487910002,434.4029487910002,434.4029487910002,434.3938362913336,434.4029487910002,434.4029487910002,439.53839641600007,434.4029487910002,439.53839641600007,439.6386315,440.26753962500015,434.4029487910002,1,1,0.4486939589996837,reldom2_s006,001,2025-01-31_15h07.44.904,Where-A-Scan_AC,2022.2.5,None,
0,0.0,None,fixation,stimulus/viswhere_stim/blank_white.png,stimulus/viswhere_stim/blank_white.png,stimulus/audwhere_stim/blank_white.png,stimulus/audwhere_stim/blank_white.png,stimulus/viswhere_stim/blank_white.png,stimulus/viswhere_stim/blank_white.png,stimulus/viswhere_stim/blank_white.png,stimulus/viswhere_stim/blank_white.png,0.0,0.0,0.0,0.0,0,0.0,0,0.0,0,0.0,0,0.0,0,0.0,0.0,0,0.0,0,0.0,0,0.0,0,0.0,0,0.0,0,0.0,0,0.0,0,0.0,9,,,,,0,48,48,48,,,,,,,,,440.5393922080002,440.5393922080002,440.5393922080002,440.5393922080002,440.5393922080002,440.5393922080002,440.5393922080002,440.5393922080002,440.43395129133324,440.5393922080002,440.5393922080002,440.5393922080002,440.43395129133324,440.5393922080002,440.5393922080002,440.5393922080002,440.5393922080002,440.5393922080002,440.5393922080002,440.5393922080002,440.5393922080002,440.5393922080002,440.5393922080002,440.5393922080002,440.5393922080002,440.5393922080002,440.5393922080002,440.5006179579999,440.5393922080002,440.5393922080002,440.5393922080002,440.5006179579999,440.5393922080002,440.5393922080002,440.5393922080002,440.5393922080002,440.5393922080002,445.76071091600033,445.76071091600033,449.8065367500003,None,0,,reldom2_s006,001,2025-01-31_15h07.44.904,Where-A-Scan_AC,2022.2.5,None,
37,First_Order,7.0,audwhere,stimulus/audwhere_stim/dummy.wav,stimulus/audwhere_stim/dummy.wav,stimulus/audwhere_stim/left_toward_280h.wav,stimulus/audwhere_stim/left_away_290h.wav,stimulus/audwhere_stim/blank_white.png,stimulus/audwhere_stim/direction_box.png,stimulus/audwhere_stim/direction_yes.png,stimulus/audwhere_stim/direction_no.png,None,Direction,None,Side,2,0.0,0,5.125,0,5.125,0,5.125,0,0.0,0.625,0,0.0,0,0.0,0,0.0,0,0.0,0,0.0,0,0.0,1,0.5,1,2.125,0,,,,,0,49,49,49,,,,,,,,,449.8065367500003,449.8065367500003,449.8065367500003,449.8065367500003,449.8065367500003,449.8065367500003,449.8065367500003,449.8065367500003,449.72796716666664,449.8065367500003,449.8065367500003,449.8065367500003,449.72796716666664,449.8065367500003,449.8065367500003,449.8065367500003,451.89536820800004,,449.8065367500003,449.8065367500003,454.9795598750002,449.8065367500003,449.8065367500003,449.8065367500003,449.8065367500003,450.2813940830001,451.32418295800016,450.25091841666676,,451.89536820800004,452.94143516600025,451.86439341666687,,449.8065367500003,454.9795598750002,449.8065367500003,454.9795598750002,455.0215162080003,455.6888707080002,449.8065367500003,2,1,1.5032210409999607,reldom2_s006,001,2025-01-31_15h07.44.904,Where-A-Scan_AC,2022.2.5,None,
38,First_Order,7.0,audwhere,stimulus/audwhere_stim/dummy.wav,stimulus/audwhere_stim/dummy.wav,stimulus/audwhere_stim/left_away_300h.wav,stimulus/audwhere_stim/right_away_280h.wav,stimulus/audwhere_stim/blank_white.png,stimulus/audwhere_stim/side_box.png,stimulus/audwhere_stim/side_yes.png,stimulus/audwhere_stim/side_no.png,None,Side,None,Direction,2,0.0,0,5.125,0,5.125,0,5.125,0,0.0,0.625,0,0.0,0,0.0,0,0.0,0,0.0,0,0.0,0,0.0,1,0.5,1,2.125,0,,,,,0,50,50,50,,,,,,,,,455.9080076250002,455.9080076250002,455.9080076250002,455.9080076250002,455.9080076250002,455.9080076250002,455.9080076250002,455.9080076250002,455.8222040413335,455.9080076250002,455.9080076250002,455.9080076250002,455.8222040413335,455.9080076250002,455.9080076250002,455.9080076250002,457.98288741600027,,455.9080076250002,455.9080076250002,461.09671941600027,455.9080076250002,455.9080076250002,455.9080076250002,455.9080076250002,456.38045812500013,457.4158307910002,456.3490814166669,,457.98288741600027,459.02511087500034,457.9523094166668,,455.9080076250002,461.09671941600027,455.9080076250002,461.09671941600027,461.09671941600027,461.7610933330002,455.9080076250002,2,1,0.6933029589999933,reldom2_s006,001,2025-01-31_15h07.44.904,Where-A-Scan_AC,2022.2.5,None,
39,First_Order,7.0,audwhere,stimulus/audwhere_stim/dummy.wav,stimulus/audwhere_stim/dummy.wav,stimulus/audwhere_stim/right_toward_280h.wav,stimulus/audwhere_stim/right_away_300h.wav,stimulus/audwhere_stim/blank_white.png,stimulus/audwhere_stim/side_box.png,stimulus/audwhere_stim/side_yes.png,stimulus/audwhere_stim/side_no.png,None,Side,None,Side,1,0.0,0,5.125,0,5.125,0,5.125,0,0.0,0.625,0,0.0,0,0.0,0,0.0,0,0.0,0,0.0,0,0.0,1,0.5,1,2.125,0,,,,,0,51,51,51,,,,,,,,,462.0219763330001,462.0219763330001,462.0219763330001,462.0219763330001,462.0219763330001,462.0219763330001,462.0219763330001,462.0219763330001,461.9367495833336,462.0219763330001,462.0219763330001,462.0219763330001,461.9367495833336,462.0219763330001,462.0219763330001,462.0219763330001,464.098900083,468.1375438330001,462.0219763330001,462.0219763330001,467.21289041599994,462.0219763330001,462.0219763330001,462.0219763330001,462.0219763330001,462.4934954580003,463.5317849580001,462.4626084996669,,464.098900083,465.1398159160003,464.0682027496666,,462.0219763330001,467.21289041599994,462.0219763330001,467.21289041599994,467.21289041599994,467.87883891599995,462.0219763330001,1,1,0.8009862079998129,reldom2_s006,001,2025-01-31_15h07.44.904,Where-A-Scan_AC,2022.2.5,None,
40,First_Order,7.0,audwhere,stimulus/audwhere_stim/dummy.wav,stimulus/audwhere_stim/dummy.wav,stimulus/audwhere_stim/left_away_280h.wav,stimulus/audwhere_stim/left_toward_300h.wav,stimulus/audwhere_stim/blank_white.png,stimulus/audwhere_stim/side_box.png,stimulus/audwhere_stim/side_yes.png,stimulus/audwhere_stim/side_no.png,None,Side,None,Side,1,0.0,0,5.125,0,5.125,0,5.125,0,0.0,0.625,0,0.0,0,0.0,0,0.0,0,0.0,0,0.0,0,0.0,1,0.5,1,2.125,0,,,,,0,52,52,52,,,,,,,,,468.1375438330001,468.1375438330001,468.1375438330001,468.1375438330001,468.1375438330001,468.1375438330001,468.1375438330001,468.1375438330001,468.0538402913336,468.1375438330001,468.1375438330001,468.1375438330001,468.0538402913336,468.1375438330001,468.1375438330001,468.1375438330001,470.216255541,474.28121491599995,468.1375438330001,468.1375438330001,473.3303594160002,468.1375438330001,468.1375438330001,468.1375438330001,468.1375438330001,468.6097560830003,469.6492212080002,468.5788191246668,,470.216255541,471.25826766599994,470.18531541666675,,468.1375438330001,473.3303594160002,468.1375438330001,473.3303594160002,473.3303594160002,473.9979020410001,468.1375438330001,1,1,0.6586578749997898,reldom2_s006,001,2025-01-31_15h07.44.904,Where-A-Scan_AC,2022.2.5,None,
0,0.0,None,fixation,stimulus/viswhere_stim/blank_white.png,stimulus/viswhere_stim/blank_white.png,stimulus/audwhere_stim/blank_white.png,stimulus/audwhere_stim/blank_white.png,stimulus/viswhere_stim/blank_white.png,stimulus/viswhere_stim/blank_white.png,stimulus/viswhere_stim/blank_white.png,stimulus/viswhere_stim/blank_white.png,0.0,0.0,0.0,0.0,0,0.0,0,0.0,0,0.0,0,0.0,0,0.0,0.0,0,0.0,0,0.0,0,0.0,0,0.0,0,0.0,0,0.0,0,0.0,0,0.0,8,,,,,0,53,53,53,,,,,,,,,474.28121491599995,474.28121491599995,474.28121491599995,474.28121491599995,474.28121491599995,474.28121491599995,474.28121491599995,474.28121491599995,474.1728374583337,474.28121491599995,474.28121491599995,474.28121491599995,474.1728374583337,474.28121491599995,474.28121491599995,474.28121491599995,474.28121491599995,474.28121491599995,474.28121491599995,474.28121491599995,474.28121491599995,474.28121491599995,474.28121491599995,474.28121491599995,474.28121491599995,474.28121491599995,474.28121491599995,474.23950412500034,474.28121491599995,474.28121491599995,474.28121491599995,474.23950412500034,474.28121491599995,474.28121491599995,474.28121491599995,474.28121491599995,474.28121491599995,479.5077819580001,479.5077819580001,482.43587208300005,None,0,,reldom2_s006,001,2025-01-31_15h07.44.904,Where-A-Scan_AC,2022.2.5,None,
41,Second_Order,7.0,audwhere,stimulus/audwhere_stim/left_away_300h.wav,stimulus/audwhere_stim/left_toward_300h.wav,stimulus/audwhere_stim/right_away_290h.wav,stimulus/audwhere_stim/right_toward_290h.wav,stimulus/viswhere_stim/match_blank.png,stimulus/audwhere_stim/match_box.png,stimulus/viswhere_stim/match_yes.png,stimulus/viswhere_stim/match_no.png,1.0,Match,Side,Side,1,5.125,0,5.125,0,5.125,0,5.125,0,0.75,0.75,0,0.0,0,0.0,0,0.0,0,0.0,1,0.5,1,2.125,1,0.5,1,2.125,0,,,,,0,54,54,54,,,,,,,,,482.43587208300005,487.55457533300023,482.43587208300005,482.43587208300005,482.43587208300005,482.43587208300005,482.89311416600003,483.8998340000003,482.9056479166668,483.8998340000003,484.5154778330002,485.5119547080003,484.52643591666697,485.51996366599997,487.55457533300023,488.38510154100004,490.45866849999993,494.39732783299996,488.38510154100004,488.38510154100004,493.5715598749998,488.38510154100004,488.38510154100004,488.38510154100004,488.38510154100004,488.85596650000025,489.8943238750003,488.82506158266665,,490.45866849999993,491.5004687080004,490.42821479166673,,488.38510154100004,493.5715598749998,488.38510154100004,493.5715598749998,493.5715598749998,,488.38510154100004,1,1,0.7360499999995227,reldom2_s006,001,2025-01-31_15h07.44.904,Where-A-Scan_AC,2022.2.5,None,
42,Second_Order,7.0,audwhere,stimulus/audwhere_stim/left_away_280h.wav,stimulus/audwhere_stim/right_away_270h.wav,stimulus/audwhere_stim/right_toward_270h.wav,stimulus/audwhere_stim/left_toward_280h.wav,stimulus/viswhere_stim/match_blank.png,stimulus/audwhere_stim/match_box.png,stimulus/viswhere_stim/match_yes.png,stimulus/viswhere_stim/match_no.png,1.0,Match,Direction,Direction,1,5.125,0,5.125,0,5.125,0,5.125,0,0.625,0.625,0,0.0,0,0.0,0,0.0,0,0.0,1,0.5,1,2.125,1,0.5,1,2.125,0,,,,,0,55,55,55,,,,,,,,,494.39732783299996,499.5154012910002,494.39732783299996,494.39732783299996,494.39732783299996,494.39732783299996,494.8542603330002,495.8523295,494.866666624667,495.8597298330001,496.47499987499987,497.4727200829998,496.48713383266636,497.48142833300017,499.5154012910002,500.22764041599976,502.2952932080002,,500.22764041599976,500.22764041599976,505.4006392080005,500.22764041599976,500.22764041599976,500.22764041599976,500.22764041599976,500.69672537500037,501.73118875000046,500.6659934576671,,502.2952932080002,503.3306816250001,502.26487933266685,,500.22764041599976,505.4006392080005,500.22764041599976,505.4006392080005,505.44198229099993,506.1054631660004,500.22764041599976,1,1,1.2108234159995845,reldom2_s006,001,2025-01-31_15h07.44.904,Where-A-Scan_AC,2022.2.5,None,
0,0.0,None,fixation,stimulus/viswhere_stim/blank_white.png,stimulus/viswhere_stim/blank_white.png,stimulus/audwhere_stim/blank_white.png,stimulus/audwhere_stim/blank_white.png,stimulus/viswhere_stim/blank_white.png,stimulus/viswhere_stim/blank_white.png,stimulus/viswhere_stim/blank_white.png,stimulus/viswhere_stim/blank_white.png,0.0,0.0,0.0,0.0,0,0.0,0,0.0,0,0.0,0,0.0,0,0.0,0.0,0,0.0,0,0.0,0,0.0,0,0.0,0,0.0,0,0.0,0,0.0,0,0.0,10,,,,,0,56,56,56,,,,,,,,,506.34463845799974,506.34463845799974,506.34463845799974,506.34463845799974,506.34463845799974,506.34463845799974,506.34463845799974,506.34463845799974,506.2387964993337,506.34463845799974,506.34463845799974,506.34463845799974,506.2387964993337,506.34463845799974,506.34463845799974,506.34463845799974,506.34463845799974,506.34463845799974,506.34463845799974,506.34463845799974,506.34463845799974,506.34463845799974,506.34463845799974,506.34463845799974,506.34463845799974,506.34463845799974,506.34463845799974,506.3054631660004,506.34463845799974,506.34463845799974,506.34463845799974,506.3054631660004,506.34463845799974,506.34463845799974,506.34463845799974,506.34463845799974,506.34463845799974,511.5520940000001,511.5520940000001,516.6258217500003,None,0,,reldom2_s006,001,2025-01-31_15h07.44.904,Where-A-Scan_AC,2022.2.5,None,
43,First_Order,8.0,audwhere,stimulus/audwhere_stim/dummy.wav,stimulus/audwhere_stim/dummy.wav,stimulus/audwhere_stim/left_away_270h.wav,stimulus/audwhere_stim/right_away_300h.wav,stimulus/audwhere_stim/blank_white.png,stimulus/audwhere_stim/direction_box.png,stimulus/audwhere_stim/direction_yes.png,stimulus/audwhere_stim/direction_no.png,None,Direction,None,Direction,1,0.0,0,5.125,0,5.125,0,5.125,0,0.0,0.625,0,0.0,0,0.0,0,0.0,0,0.0,0,0.0,0,0.0,1,0.5,1,2.125,0,,,,,0,57,57,57,,,,,,,,,516.6258217500003,516.6258217500003,516.6258217500003,516.6258217500003,516.6258217500003,516.6258217500003,516.6258217500003,516.6258217500003,516.5478435826664,516.6258217500003,516.6258217500003,516.6258217500003,516.5478435826664,516.6258217500003,516.6258217500003,516.6258217500003,518.7171516660005,,516.6258217500003,516.6258217500003,521.7973483749997,516.6258217500003,516.6258217500003,516.6258217500003,516.6258217500003,517.0975549159998,518.1483538750003,517.0666103746669,518.101355708,518.7171516660005,519.7645968330003,518.6860264166669,,516.6258217500003,521.7973483749997,516.6258217500003,521.7973483749997,521.8409236660004,522.5069598750001,516.6258217500003,1,1,0.9534281249998457,reldom2_s006,001,2025-01-31_15h07.44.904,Where-A-Scan_AC,2022.2.5,None,
44,First_Order,8.0,audwhere,stimulus/audwhere_stim/dummy.wav,stimulus/audwhere_stim/dummy.wav,stimulus/audwhere_stim/left_toward_300h.wav,stimulus/audwhere_stim/left_away_280h.wav,stimulus/audwhere_stim/blank_white.png,stimulus/audwhere_stim/direction_box.png,stimulus/audwhere_stim/direction_yes.png,stimulus/audwhere_stim/direction_no.png,None,Direction,None,Side,2,0.0,0,5.125,0,5.125,0,5.125,0,0.0,0.625,0,0.0,0,0.0,0,0.0,0,0.0,0,0.0,0,0.0,1,0.5,1,2.125,0,,,,,0,58,58,58,,,,,,,,,522.7237297080005,522.7237297080005,522.7237297080005,522.7237297080005,522.7237297080005,522.7237297080005,522.7237297080005,522.7237297080005,522.6402932083334,522.7237297080005,522.7237297080005,522.7237297080005,522.6402932083334,522.7237297080005,522.7237297080005,522.7237297080005,524.8097750829997,,522.7237297080005,522.7237297080005,527.8922771250004,522.7237297080005,522.7237297080005,522.7237297080005,522.7237297080005,523.197119291,524.2419517499998,523.166374457667,,524.8097750829997,525.8562303330004,524.7789349576667,,522.7237297080005,527.8922771250004,522.7237297080005,527.8922771250004,527.9340107080002,528.601418625,522.7237297080005,2,1,1.2587682089997543,reldom2_s006,001,2025-01-31_15h07.44.904,Where-A-Scan_AC,2022.2.5,None,
45,First_Order,8.0,audwhere,stimulus/audwhere_stim/dummy.wav,stimulus/audwhere_stim/dummy.wav,stimulus/audwhere_stim/right_away_290h.wav,stimulus/audwhere_stim/left_away_280h.wav,stimulus/audwhere_stim/blank_white.png,stimulus/audwhere_stim/side_box.png,stimulus/audwhere_stim/side_yes.png,stimulus/audwhere_stim/side_no.png,None,Side,None,Direction,2,0.0,0,5.125,0,5.125,0,5.125,0,0.0,0.625,0,0.0,0,0.0,0,0.0,0,0.0,0,0.0,0,0.0,1,0.5,1,2.125,0,,,,,0,59,59,59,,,,,,,,,528.8179642910004,528.8179642910004,528.8179642910004,528.8179642910004,528.8179642910004,528.8179642910004,528.8179642910004,528.8179642910004,528.7347519583333,528.8179642910004,528.8179642910004,528.8179642910004,528.7347519583333,528.8179642910004,528.8179642910004,528.8179642910004,530.8973455,534.9352541250005,528.8179642910004,528.8179642910004,533.968608791,528.8179642910004,528.8179642910004,528.8179642910004,528.8179642910004,529.2901202910002,530.3315892080004,529.259229957667,,530.8973455,531.9419681659997,530.8665759166668,,528.8179642910004,533.968608791,528.8179642910004,533.968608791,534.0111174999997,534.6758021660003,528.8179642910004,2,1,0.7273180419997516,reldom2_s006,001,2025-01-31_15h07.44.904,Where-A-Scan_AC,2022.2.5,None,
46,First_Order,8.0,audwhere,stimulus/audwhere_stim/dummy.wav,stimulus/audwhere_stim/dummy.wav,stimulus/audwhere_stim/left_away_270h.wav,stimulus/audwhere_stim/right_away_290h.wav,stimulus/audwhere_stim/blank_white.png,stimulus/audwhere_stim/direction_box.png,stimulus/audwhere_stim/direction_yes.png,stimulus/audwhere_stim/direction_no.png,None,Direction,None,Direction,1,0.0,0,5.125,0,5.125,0,5.125,0,0.0,0.625,0,0.0,0,0.0,0,0.0,0,0.0,0,0.0,0,0.0,1,0.5,1,2.125,0,,,,,0,60,60,60,,,,,,,,,534.9352541250005,534.9352541250005,534.9352541250005,534.9352541250005,534.9352541250005,534.9352541250005,534.9352541250005,534.9352541250005,534.8503130413334,534.9352541250005,534.9352541250005,534.9352541250005,534.8503130413334,534.9352541250005,534.9352541250005,534.9352541250005,537.0320875410002,541.0735753330005,534.9352541250005,534.9352541250005,540.1234100409997,534.9352541250005,534.9352541250005,534.9352541250005,534.9352541250005,535.411339625,536.4627896249999,535.379731249667,536.4152737079999,537.0320875410002,538.0856532080002,537.0009641246668,538.0380744159997,534.9352541250005,540.1234100409997,534.9352541250005,540.1234100409997,540.1654342500001,540.8358489160005,534.9352541250005,1,1,0.9380223750004006,reldom2_s006,001,2025-01-31_15h07.44.904,Where-A-Scan_AC,2022.2.5,None,
0,0.0,None,fixation,stimulus/viswhere_stim/blank_white.png,stimulus/viswhere_stim/blank_white.png,stimulus/audwhere_stim/blank_white.png,stimulus/audwhere_stim/blank_white.png,stimulus/viswhere_stim/blank_white.png,stimulus/viswhere_stim/blank_white.png,stimulus/viswhere_stim/blank_white.png,stimulus/viswhere_stim/blank_white.png,0.0,0.0,0.0,0.0,0,0.0,0,0.0,0,0.0,0,0.0,0,0.0,0.0,0,0.0,0,0.0,0,0.0,0,0.0,0,0.0,0,0.0,0,0.0,0,0.0,9,,,,,0,61,61,61,,,,,,,,,541.0735753330005,541.0735753330005,541.0735753330005,541.0735753330005,541.0735753330005,541.0735753330005,541.0735753330005,541.0735753330005,540.9691822493338,541.0735753330005,541.0735753330005,541.0735753330005,540.9691822493338,541.0735753330005,541.0735753330005,541.0735753330005,541.0735753330005,541.0735753330005,541.0735753330005,541.0735753330005,541.0735753330005,541.0735753330005,541.0735753330005,541.0735753330005,541.0735753330005,541.0735753330005,541.0735753330005,541.0191822493338,541.0735753330005,541.0735753330005,541.0735753330005,541.0191822493338,541.0735753330005,541.0735753330005,541.0735753330005,541.0735753330005,541.0735753330005,546.3463030409998,546.3463030409998,550.205087416,None,0,,reldom2_s006,001,2025-01-31_15h07.44.904,Where-A-Scan_AC,2022.2.5,None,
47,Second_Order,8.0,audwhere,stimulus/audwhere_stim/right_away_280h.wav,stimulus/audwhere_stim/left_away_290h.wav,stimulus/audwhere_stim/right_toward_300h.wav,stimulus/audwhere_stim/right_away_300h.wav,stimulus/viswhere_stim/match_blank.png,stimulus/audwhere_stim/match_box.png,stimulus/viswhere_stim/match_yes.png,stimulus/viswhere_stim/match_no.png,2.0,Match,Direction,Side,2,5.125,0,5.125,0,5.125,0,5.125,0,0.75,0.75,0,0.0,0,0.0,0,0.0,0,0.0,1,0.5,1,2.125,1,0.5,1,2.125,0,,,,,0,62,62,62,,,,,,,,,550.205087416,555.3272417499998,550.205087416,550.205087416,550.205087416,550.205087416,550.6621744999998,551.6514753329998,550.6657222076672,551.6644910830005,552.2869580000001,553.2847887499997,552.2991045826664,553.2932876660002,555.3272417499998,556.1572665409999,558.2297806660004,562.1689935830004,556.1572665409999,556.1572665409999,561.344001166,556.1572665409999,556.1572665409999,556.1572665409999,556.1572665409999,556.6280200000006,557.6625464160002,556.597307249667,,558.2297806660004,559.2697199159998,558.1987599576667,,556.1572665409999,561.344001166,556.1572665409999,561.344001166,561.344001166,,556.1572665409999,2,1,1.3381111669996244,reldom2_s006,001,2025-01-31_15h07.44.904,Where-A-Scan_AC,2022.2.5,None,
48,Second_Order,8.0,audwhere,stimulus/audwhere_stim/left_away_280h.wav,stimulus/audwhere_stim/right_away_290h.wav,stimulus/audwhere_stim/left_toward_280h.wav,stimulus/audwhere_stim/right_toward_300h.wav,stimulus/viswhere_stim/match_blank.png,stimulus/audwhere_stim/match_box.png,stimulus/viswhere_stim/match_yes.png,stimulus/viswhere_stim/match_no.png,1.0,Match,Direction,Direction,1,5.125,0,5.125,0,5.125,0,5.125,0,0.625,0.625,0,0.0,0,0.0,0,0.0,0,0.0,1,0.5,1,2.125,1,0.5,1,2.125,0,,,,,0,63,63,63,,,,,,,,,562.1689935830004,567.2892830000005,562.1689935830004,562.1689935830004,562.1689935830004,562.1689935830004,562.627094166,563.6252321659999,562.6397904166668,563.6329839160003,564.249572708,565.2457601250003,564.2602601666665,565.2543865410003,567.2892830000005,567.9972601249997,570.0628543329999,,567.9972601249997,567.9972601249997,573.1718508750005,567.9972601249997,567.9972601249997,567.9972601249997,567.9972601249997,568.466287875,569.4993738750004,568.4356895416665,,570.0628543329999,571.1007693329998,570.0320365416671,,567.9972601249997,573.1718508750005,567.9972601249997,573.1718508750005,573.2134587080004,573.8773359580005,567.9972601249997,1,1,1.0275654580000264,reldom2_s006,001,2025-01-31_15h07.44.904,Where-A-Scan_AC,2022.2.5,None,
0,0.0,None,fixation,stimulus/viswhere_stim/blank_white.png,stimulus/viswhere_stim/blank_white.png,stimulus/audwhere_stim/blank_white.png,stimulus/audwhere_stim/blank_white.png,stimulus/viswhere_stim/blank_white.png,stimulus/viswhere_stim/blank_white.png,stimulus/viswhere_stim/blank_white.png,stimulus/viswhere_stim/blank_white.png,0.0,0.0,0.0,0.0,0,0.0,0,0.0,0,0.0,0,0.0,0,0.0,0.0,0,0.0,0,0.0,0,0.0,0,0.0,0,0.0,0,0.0,0,0.0,0,0.0,16,,,,,0,64,64,64,,,,,,,,,574.1158064160004,574.1158064160004,574.1158064160004,574.1158064160004,574.1158064160004,574.1158064160004,574.1158064160004,574.1158064160004,574.0106692913338,574.1158064160004,574.1158064160004,574.1158064160004,574.0106692913338,574.1158064160004,574.1158064160004,574.1158064160004,574.1158064160004,574.1158064160004,574.1158064160004,574.1158064160004,574.1158064160004,574.1158064160004,574.1158064160004,574.1158064160004,574.1158064160004,574.1158064160004,574.1158064160004,574.0606692913337,574.1158064160004,574.1158064160004,574.1158064160004,574.0606692913337,574.1158064160004,574.1158064160004,574.1158064160004,574.1158064160004,574.1158064160004,579.3226475409997,579.3226475409997,590.280746416,None,0,,reldom2_s006,001,2025-01-31_15h07.44.904,Where-A-Scan_AC,2022.2.5,None,
