Trial,Order,Block,Type,Stimuli_File1,Stimuli_File2,Stimuli_File3,Stimuli_File4,Cue_File1,Cue_File2,Response_File_Yes,Response_File_No,Match,Cue_Dimension,Pair1_Dimension,Pair2_Dimension,Key,Cue1_Duration,Cue1_Onset,Cue2_Duration,Cue2_Onset,ResponseYes_Duration,ResponseYes_Onset,ResponseNo_Duration,ResponseNo_Onset,ITI_Within,ITI_Between,Image1_Duration,Image1_Onset,Image2_Duration,Image2_Onset,Image3_Duration,Image3_Onset,Image4_Duration,Image4_Onset,Sound1_Duration,Sound1_Onset,Sound2_Duration,Sound2_Onset,Sound3_Duration,Sound3_Onset,Sound4_Duration,Sound4_Onset,Fixation_Duration,trials_2.thisRepN,trials_2.thisTrialN,trials_2.thisN,trials_2.thisIndex,trials.thisRepN,trials.thisTrialN,trials.thisN,trials.thisIndex,text_start.started,key_resp_start.started,key_resp_start.keys,key_resp_start.rt,text2.started,key_resp_2.started,key_resp_2.keys,key_resp_2.rt,cue_file1.started,cue_file1.stopped,image_1.started,image_1.stopped,image_2.started,image_2.stopped,sound_icon1.started,sound_icon1.stopped,sound_1.started,sound_1.stopped,sound_icon2.started,sound_icon2.stopped,sound_2.started,sound_2.stopped,image_blank_1.started,image_blank_1.stopped,key_press.started,key_press.stopped,fixation_text.started,cue_file2.started,cue_file2.stopped,image_3.started,image_3.stopped,image_4.started,image_4.stopped,sound_icon3.started,sound_icon3.stopped,sound_3.started,sound_3.stopped,sound_icon4.started,sound_icon4.stopped,sound_4.started,sound_4.stopped,response_yes.started,response_yes.stopped,response_no.started,response_no.stopped,iti_blank.started,iti_blank.stopped,fixation_text.stopped,key_press.keys,key_press.corr,key_press.rt,participant,session,date,expName,psychopyVersion,frameRate,
,,,,,,,,,,,,,,,,,,,,,,,,,,,,,,,,,,,,,,,,,,,,,,,,,,,,9.303992749999907,9.303992749999907,2,1.0249655409998013,,,,,,,,,,,,,,,,,,,,,,,,,,,,,,,,,,,,,,,,,,,,,,,,reldom2_s006,001,2025-01-31_14h44.51.265,Vis-A-Scan_AC,2022.2.5,None,
,,,,,,,,,,,,,,,,,,,,,,,,,,,,,,,,,,,,,,,,,,,,0,0,0,0,,,,,,,,,10.351341165999656,10.351341165999656,5,17.983312791000117,,,,,,,,,,,,,,,,,,,,,,,,,,,,,,,,,,,,,,,,,,,,reldom2_s006,001,2025-01-31_14h44.51.265,Vis-A-Scan_AC,2022.2.5,None,
,,,,,,,,,,,,,,,,,,,,,,,,,,,,,,,,,,,,,,,,,,,,1,0,1,0,,,,,,,,,28.345173540999895,28.345173540999895,5,1.9885985830001118,,,,,,,,,,,,,,,,,,,,,,,,,,,,,,,,,,,,,,,,,,,,reldom2_s006,001,2025-01-31_14h44.51.265,Vis-A-Scan_AC,2022.2.5,None,
,,,,,,,,,,,,,,,,,,,,,,,,,,,,,,,,,,,,,,,,,,,,2,0,2,0,,,,,,,,,30.353303707999657,30.353303707999657,5,1.9805624999999054,,,,,,,,,,,,,,,,,,,,,,,,,,,,,,,,,,,,,,,,,,,,reldom2_s006,001,2025-01-31_14h44.51.265,Vis-A-Scan_AC,2022.2.5,None,
,,,,,,,,,,,,,,,,,,,,,,,,,,,,,,,,,,,,,,,,,,,,3,0,3,0,,,,,,,,,32.34783958299977,32.34783958299977,5,1.9866056250002657,,,,,,,,,,,,,,,,,,,,,,,,,,,,,,,,,,,,,,,,,,,,reldom2_s006,001,2025-01-31_14h44.51.265,Vis-A-Scan_AC,2022.2.5,None,
0,0.0,None,fixation,stimulus/viswhat_stim/blank_white.png,stimulus/viswhat_stim/blank_white.png,stimulus/viswhere_stim/blank_white.png,stimulus/viswhere_stim/blank_white.png,stimulus/viswhat_stim/blank_white.png,stimulus/viswhat_stim/blank_white.png,stimulus/viswhat_stim/blank_white.png,stimulus/viswhat_stim/blank_white.png,0.0,0.0,0.0,0.0,0,0.0,0,0.0,0,0.0,0,0.0,0,0.0,0.0,0,0.0,0,0.0,0,0.0,0,0.0,0,0,0,0,0,0,0,0,16,,,,,0,0,0,0,,,,,,,,,34.530819165999674,34.530819165999674,34.530819165999674,34.530819165999674,34.530819165999674,34.530819165999674,34.530819165999674,34.530819165999674,34.43628541600001,34.530819165999674,34.530819165999674,34.530819165999674,34.43628541600001,34.530819165999674,34.530819165999674,34.530819165999674,34.530819165999674,34.530819165999674,34.530819165999674,34.530819165999674,34.530819165999674,34.530819165999674,34.530819165999674,34.530819165999674,34.530819165999674,34.530819165999674,34.530819165999674,34.48628541600001,34.530819165999674,34.530819165999674,34.530819165999674,34.48628541600001,34.530819165999674,34.530819165999674,34.530819165999674,34.530819165999674,34.530819165999674,39.73022537499992,39.73022537499992,50.798471374999735,None,0,,reldom2_s006,001,2025-01-31_14h44.51.265,Vis-A-Scan_AC,2022.2.5,None,
1,First_Order,1.0,viswhat,stimulus/viswhat_stim/blank_white.png,stimulus/viswhat_stim/blank_white.png,stimulus/viswhat_stim/land_animal-moose.png,stimulus/viswhat_stim/water_animal-seaturtle.png,stimulus/viswhat_stim/blank_white.png,stimulus/viswhat_stim/type_box.png,stimulus/viswhat_stim/type_yes.png,stimulus/viswhat_stim/type_no.png,None,Type,None,Type,1,0.0,0,5.125,0,5.125,0,5.125,0,0.0,0.625,0,0.0,0,0.0,1,0.5,1,2.125,0,0,0,0,0,0,0,0,0,,,,,0,1,1,1,,,,,,,,,50.798471374999735,50.798471374999735,50.798471374999735,50.798471374999735,50.798471374999735,50.798471374999735,50.798471374999735,50.798471374999735,50.69451274999974,50.798471374999735,50.798471374999735,50.798471374999735,50.69451274999974,50.798471374999735,50.798471374999735,50.798471374999735,52.8914064999999,,50.798471374999735,50.798471374999735,55.978129999999965,51.26336887499974,52.310413332999815,52.8914064999999,53.938883457999964,50.798471374999735,50.798471374999735,50.744512749999735,50.798471374999735,50.798471374999735,50.798471374999735,50.744512749999735,50.798471374999735,50.798471374999735,55.978129999999965,50.798471374999735,55.978129999999965,55.978129999999965,56.65310458299973,50.798471374999735,1,1,1.532069583000066,reldom2_s006,001,2025-01-31_14h44.51.265,Vis-A-Scan_AC,2022.2.5,None,
2,First_Order,1.0,viswhat,stimulus/viswhat_stim/blank_white.png,stimulus/viswhat_stim/blank_white.png,stimulus/viswhat_stim/water_vehicle-submarine.png,stimulus/viswhat_stim/land_vehicle-firetruck.png,stimulus/viswhat_stim/blank_white.png,stimulus/viswhat_stim/type_box.png,stimulus/viswhat_stim/type_yes.png,stimulus/viswhat_stim/type_no.png,None,Type,None,Type,1,0.0,0,5.125,0,5.125,0,5.125,0,0.0,0.625,0,0.0,0,0.0,1,0.5,1,2.125,0,0,0,0,0,0,0,0,0,,,,,0,2,2,2,,,,,,,,,56.851064499999666,56.851064499999666,56.851064499999666,56.851064499999666,56.851064499999666,56.851064499999666,56.851064499999666,56.851064499999666,56.819771249666395,56.851064499999666,56.851064499999666,56.851064499999666,56.819771249666395,56.851064499999666,56.851064499999666,56.851064499999666,58.95925149999994,62.945093583000016,56.851064499999666,56.851064499999666,61.981205749999845,57.313974374999816,58.3425871659997,58.95925149999994,59.992022458000065,56.851064499999666,56.851064499999666,56.83643791633306,56.851064499999666,56.851064499999666,56.851064499999666,56.83643791633306,56.851064499999666,56.851064499999666,61.981205749999845,56.851064499999666,61.981205749999845,62.06164983300005,62.6893034159998,56.851064499999666,1,1,1.0938855409999633,reldom2_s006,001,2025-01-31_14h44.51.265,Vis-A-Scan_AC,2022.2.5,None,
3,First_Order,1.0,viswhat,stimulus/viswhat_stim/blank_white.png,stimulus/viswhat_stim/blank_white.png,stimulus/viswhat_stim/water_vehicle-kayak.png,stimulus/viswhat_stim/land_vehicle-vespa.png,stimulus/viswhat_stim/blank_white.png,stimulus/viswhat_stim/location_box.png,stimulus/viswhat_stim/location_yes.png,stimulus/viswhat_stim/location_no.png,None,Location,None,Type,2,0.0,0,5.125,0,5.125,0,5.125,0,0.0,0.625,0,0.0,0,0.0,1,0.5,1,2.125,0,0,0,0,0,0,0,0,0,,,,,0,3,3,3,,,,,,,,,62.945093583000016,62.945093583000016,62.945093583000016,62.945093583000016,62.945093583000016,62.945093583000016,62.945093583000016,62.945093583000016,62.88899279100006,62.945093583000016,62.945093583000016,62.945093583000016,62.88899279100006,62.945093583000016,62.945093583000016,62.945093583000016,65.03427083299994,69.0362127909998,62.945093583000016,62.945093583000016,68.11803704099975,63.420921416000056,64.44761345799998,65.03427083299994,66.06418258299982,62.945093583000016,62.945093583000016,62.92232612433339,62.945093583000016,62.945093583000016,62.945093583000016,62.92232612433339,62.945093583000016,62.945093583000016,68.11803704099975,62.945093583000016,68.11803704099975,68.14921800000002,68.80251574999966,62.945093583000016,2,1,1.2658307909996438,reldom2_s006,001,2025-01-31_14h44.51.265,Vis-A-Scan_AC,2022.2.5,None,
4,First_Order,1.0,viswhat,stimulus/viswhat_stim/blank_white.png,stimulus/viswhat_stim/blank_white.png,stimulus/viswhat_stim/water_vehicle-pirateship.png,stimulus/viswhat_stim/land_vehicle-buldozer.png,stimulus/viswhat_stim/blank_white.png,stimulus/viswhat_stim/location_box.png,stimulus/viswhat_stim/location_yes.png,stimulus/viswhat_stim/location_no.png,None,Location,None,Type,2,0.0,0,5.125,0,5.125,0,5.125,0,0.0,0.625,0,0.0,0,0.0,1,0.5,1,2.125,0,0,0,0,0,0,0,0,0,,,,,0,4,4,4,,,,,,,,,69.0362127909998,69.0362127909998,69.0362127909998,69.0362127909998,69.0362127909998,69.0362127909998,69.0362127909998,69.0362127909998,68.9815348746664,69.0362127909998,69.0362127909998,69.0362127909998,68.9815348746664,69.0362127909998,69.0362127909998,69.0362127909998,71.13968091600009,75.16857758299966,69.0362127909998,69.0362127909998,74.17926262499986,69.51851516599982,70.55475387499973,71.13968091600009,72.17822116599973,69.0362127909998,69.0362127909998,69.01486820799974,69.0362127909998,69.0362127909998,69.0362127909998,69.01486820799974,69.0362127909998,69.0362127909998,74.17926262499986,69.0362127909998,74.17926262499986,74.23754845799976,74.90200833299969,69.0362127909998,2,1,1.0068396250003389,reldom2_s006,001,2025-01-31_14h44.51.265,Vis-A-Scan_AC,2022.2.5,None,
0,0.0,None,fixation,stimulus/viswhat_stim/blank_white.png,stimulus/viswhat_stim/blank_white.png,stimulus/viswhere_stim/blank_white.png,stimulus/viswhere_stim/blank_white.png,stimulus/viswhat_stim/blank_white.png,stimulus/viswhat_stim/blank_white.png,stimulus/viswhat_stim/blank_white.png,stimulus/viswhat_stim/blank_white.png,0.0,0.0,0.0,0.0,0,0.0,0,0.0,0,0.0,0,0.0,0,0.0,0.0,0,0.0,0,0.0,0,0.0,0,0.0,0,0,0,0,0,0,0,0,9,,,,,0,5,5,5,,,,,,,,,75.16857758299966,75.16857758299966,75.16857758299966,75.16857758299966,75.16857758299966,75.16857758299966,75.16857758299966,75.16857758299966,75.07595454166663,75.16857758299966,75.16857758299966,75.16857758299966,75.07595454166663,75.16857758299966,75.16857758299966,75.16857758299966,75.16857758299966,75.16857758299966,75.16857758299966,75.16857758299966,75.16857758299966,75.16857758299966,75.16857758299966,75.16857758299966,75.16857758299966,75.16857758299966,75.16857758299966,75.12595454166664,75.16857758299966,75.16857758299966,75.16857758299966,75.12595454166664,75.16857758299966,75.16857758299966,75.16857758299966,75.16857758299966,75.16857758299966,80.40434033299971,80.40434033299971,84.34126466599992,None,0,,reldom2_s006,001,2025-01-31_14h44.51.265,Vis-A-Scan_AC,2022.2.5,None,
5,Second_Order,1.0,viswhat,stimulus/viswhat_stim/water_vehicle-cruiser.png,stimulus/viswhat_stim/land_vehicle-pickuptruck.png,stimulus/viswhat_stim/land_animal-snake.png,stimulus/viswhat_stim/land_vehicle-trolley.png,stimulus/viswhat_stim/match_blank.png,stimulus/viswhat_stim/match_box.png,stimulus/viswhat_stim/match_yes.png,stimulus/viswhat_stim/match_no.png,2.0,Match,Type,Location,2,5.125,0,5.125,0,5.125,0,5.125,0,0.75,0.75,1,0.5,1,2.125,1,0.5,1,2.125,0,0,0,0,0,0,0,0,0,,,,,0,6,6,6,,,,,,,,,84.34126466599992,89.46385770799998,84.75577358300006,85.74235112499991,86.38993679099985,87.37936120799986,84.34126466599992,84.34126466599992,84.34916966633313,84.34126466599992,84.34126466599992,84.34126466599992,84.34916966633313,84.34126466599992,89.46385770799998,90.25513137500002,92.33493095799986,96.24578962499982,90.25513137500002,90.25513137500002,95.3804875410001,90.71056966600008,91.72150529100008,92.33493095799986,93.34427874999983,90.25513137500002,90.25513137500002,90.2319904993333,90.25513137500002,90.25513137500002,90.25513137500002,90.2319904993333,90.25513137500002,90.25513137500002,95.3804875410001,90.25513137500002,95.3804875410001,95.46617399999968,,90.25513137500002,2,1,1.0431233750000501,reldom2_s006,001,2025-01-31_14h44.51.265,Vis-A-Scan_AC,2022.2.5,None,
6,Second_Order,1.0,viswhat,stimulus/viswhat_stim/land_vehicle-firetruck.png,stimulus/viswhat_stim/land_animal-dog.png,stimulus/viswhat_stim/water_animal-seaturtle.png,stimulus/viswhat_stim/water_vehicle-sailboat.png,stimulus/viswhat_stim/match_blank.png,stimulus/viswhat_stim/match_box.png,stimulus/viswhat_stim/match_yes.png,stimulus/viswhat_stim/match_no.png,1.0,Match,Location,Location,1,5.125,0,5.125,0,5.125,0,5.125,0,0.625,0.625,1,0.5,1,2.125,1,0.5,1,2.125,0,0,0,0,0,0,0,0,0,,,,,0,7,7,7,,,,,,,,,96.24578962499982,101.36324641600004,96.7177805829997,97.71591962499997,98.33951245799972,99.336341791,96.24578962499982,96.24578962499982,96.24495149999966,96.24578962499982,96.24578962499982,96.24578962499982,96.24495149999966,96.24578962499982,101.36324641600004,102.09010504099979,104.15457529099967,,102.09010504099979,102.09010504099979,107.28286674999981,102.51773441599971,103.5726182909998,104.15457529099967,105.21797570799981,102.09010504099979,102.09010504099979,102.04283045766675,102.09010504099979,102.09010504099979,102.09010504099979,102.04283045766675,102.09010504099979,102.09010504099979,107.28286674999981,102.09010504099979,107.28286674999981,107.28286674999981,107.94431704099998,102.09010504099979,1,1,0.9168024169998716,reldom2_s006,001,2025-01-31_14h44.51.265,Vis-A-Scan_AC,2022.2.5,None,
0,0.0,None,fixation,stimulus/viswhat_stim/blank_white.png,stimulus/viswhat_stim/blank_white.png,stimulus/viswhere_stim/blank_white.png,stimulus/viswhere_stim/blank_white.png,stimulus/viswhat_stim/blank_white.png,stimulus/viswhat_stim/blank_white.png,stimulus/viswhat_stim/blank_white.png,stimulus/viswhat_stim/blank_white.png,0.0,0.0,0.0,0.0,0,0.0,0,0.0,0,0.0,0,0.0,0,0.0,0.0,0,0.0,0,0.0,0,0.0,0,0.0,0,0,0,0,0,0,0,0,9,,,,,0,8,8,8,,,,,,,,,108.19684037499974,108.19684037499974,108.19684037499974,108.19684037499974,108.19684037499974,108.19684037499974,108.19684037499974,108.19684037499974,108.09431704099998,108.19684037499974,108.19684037499974,108.19684037499974,108.09431704099998,108.19684037499974,108.19684037499974,108.19684037499974,108.19684037499974,108.19684037499974,108.19684037499974,108.19684037499974,108.19684037499974,108.19684037499974,108.19684037499974,108.19684037499974,108.19684037499974,108.19684037499974,108.19684037499974,108.14431704099998,108.19684037499974,108.19684037499974,108.19684037499974,108.14431704099998,108.19684037499974,108.19684037499974,108.19684037499974,108.19684037499974,108.19684037499974,113.38475516599965,113.38475516599965,117.47738887500009,None,0,,reldom2_s006,001,2025-01-31_14h44.51.265,Vis-A-Scan_AC,2022.2.5,None,
7,First_Order,2.0,viswhat,stimulus/viswhat_stim/blank_white.png,stimulus/viswhat_stim/blank_white.png,stimulus/viswhat_stim/water_vehicle-ship.png,stimulus/viswhat_stim/water_animal-stingray.png,stimulus/viswhat_stim/blank_white.png,stimulus/viswhat_stim/type_box.png,stimulus/viswhat_stim/type_yes.png,stimulus/viswhat_stim/type_no.png,None,Type,None,Location,2,0.0,0,5.125,0,5.125,0,5.125,0,0.0,0.625,0,0.0,0,0.0,1,0.5,1,2.125,0,0,0,0,0,0,0,0,0,,,,,0,9,9,9,,,,,,,,,117.47738887500009,117.47738887500009,117.47738887500009,117.47738887500009,117.47738887500009,117.47738887500009,117.47738887500009,117.47738887500009,117.37949520766658,117.47738887500009,117.47738887500009,117.47738887500009,117.37949520766658,117.47738887500009,117.47738887500009,117.47738887500009,119.54108983299966,123.55311170799996,117.47738887500009,117.47738887500009,122.66800570799978,117.92346124999995,118.98645412499991,119.54108983299966,120.6055460409998,117.47738887500009,117.47738887500009,117.42949520766658,117.47738887500009,117.47738887500009,117.47738887500009,117.42949520766658,117.47738887500009,117.47738887500009,122.66800570799978,117.47738887500009,122.66800570799978,122.66800570799978,123.36751266600004,117.47738887500009,None,0,,reldom2_s006,001,2025-01-31_14h44.51.265,Vis-A-Scan_AC,2022.2.5,None,
8,First_Order,2.0,viswhat,stimulus/viswhat_stim/blank_white.png,stimulus/viswhat_stim/blank_white.png,stimulus/viswhat_stim/land_vehicle-train.png,stimulus/viswhat_stim/land_animal-fox.png,stimulus/viswhat_stim/blank_white.png,stimulus/viswhat_stim/type_box.png,stimulus/viswhat_stim/type_yes.png,stimulus/viswhat_stim/type_no.png,None,Type,None,Location,2,0.0,0,5.125,0,5.125,0,5.125,0,0.0,0.625,0,0.0,0,0.0,1,0.5,1,2.125,0,0,0,0,0,0,0,0,0,,,,,0,10,10,10,,,,,,,,,123.55311170799996,123.55311170799996,123.55311170799996,123.55311170799996,123.55311170799996,123.55311170799996,123.55311170799996,123.55311170799996,123.51751266600004,123.55311170799996,123.55311170799996,123.55311170799996,123.51751266600004,123.55311170799996,123.55311170799996,123.55311170799996,125.6526937499998,129.65904425000008,123.55311170799996,123.55311170799996,128.68120387499994,124.0341882079997,125.04084787500005,125.6526937499998,126.66606920799995,123.55311170799996,123.55311170799996,123.53417933266671,123.55311170799996,123.55311170799996,123.55311170799996,123.53417933266671,123.55311170799996,123.55311170799996,128.68120387499994,123.55311170799996,128.68120387499994,128.77857274999997,129.40721533299984,123.55311170799996,2,1,1.847332291999919,reldom2_s006,001,2025-01-31_14h44.51.265,Vis-A-Scan_AC,2022.2.5,None,
9,First_Order,2.0,viswhat,stimulus/viswhat_stim/blank_white.png,stimulus/viswhat_stim/blank_white.png,stimulus/viswhat_stim/land_animal-lion.png,stimulus/viswhat_stim/land_vehicle-bus.png,stimulus/viswhat_stim/blank_white.png,stimulus/viswhat_stim/location_box.png,stimulus/viswhat_stim/location_yes.png,stimulus/viswhat_stim/location_no.png,None,Location,None,Location,1,0.0,0,5.125,0,5.125,0,5.125,0,0.0,0.625,0,0.0,0,0.0,1,0.5,1,2.125,0,0,0,0,0,0,0,0,0,,,,,0,11,11,11,,,,,,,,,129.65904425000008,129.65904425000008,129.65904425000008,129.65904425000008,129.65904425000008,129.65904425000008,129.65904425000008,129.65904425000008,129.59073774933344,129.65904425000008,129.65904425000008,129.65904425000008,129.59073774933344,129.65904425000008,129.65904425000008,129.65904425000008,131.75819012500006,135.83688770799972,129.65904425000008,129.65904425000008,134.8273517499997,130.12427095799967,131.17643012500002,131.75819012500006,132.81234045799965,129.65904425000008,129.65904425000008,129.62407108266677,129.65904425000008,129.65904425000008,129.65904425000008,129.62407108266677,129.65904425000008,129.65904425000008,134.8273517499997,129.65904425000008,134.8273517499997,134.86069104099988,135.52143454099996,129.65904425000008,1,1,0.7711599160002152,reldom2_s006,001,2025-01-31_14h44.51.265,Vis-A-Scan_AC,2022.2.5,None,
10,First_Order,2.0,viswhat,stimulus/viswhat_stim/blank_white.png,stimulus/viswhat_stim/blank_white.png,stimulus/viswhat_stim/land_animal-elephant.png,stimulus/viswhat_stim/land_vehicle-motorcycle.png,stimulus/viswhat_stim/blank_white.png,stimulus/viswhat_stim/location_box.png,stimulus/viswhat_stim/location_yes.png,stimulus/viswhat_stim/location_no.png,None,Location,None,Location,1,0.0,0,5.125,0,5.125,0,5.125,0,0.0,0.625,0,0.0,0,0.0,1,0.5,1,2.125,0,0,0,0,0,0,0,0,0,,,,,0,12,12,12,,,,,,,,,135.83688770799972,135.83688770799972,135.83688770799972,135.83688770799972,135.83688770799972,135.83688770799972,135.83688770799972,135.83688770799972,135.70407833266643,135.83688770799972,135.83688770799972,135.83688770799972,135.70407833266643,135.83688770799972,135.83688770799972,135.83688770799972,137.94147475,,135.83688770799972,135.83688770799972,141.05766666599993,136.310522708,137.39865216599992,137.94147475,139.03029929099966,135.83688770799972,135.83688770799972,135.7707449993331,135.83688770799972,135.83688770799972,135.83688770799972,135.7707449993331,135.83688770799972,135.83688770799972,141.05766666599993,135.83688770799972,141.05766666599993,141.05766666599993,141.95994974999985,135.83688770799972,1,1,0.6023046669997711,reldom2_s006,001,2025-01-31_14h44.51.265,Vis-A-Scan_AC,2022.2.5,None,
0,0.0,None,fixation,stimulus/viswhat_stim/blank_white.png,stimulus/viswhat_stim/blank_white.png,stimulus/viswhere_stim/blank_white.png,stimulus/viswhere_stim/blank_white.png,stimulus/viswhat_stim/blank_white.png,stimulus/viswhat_stim/blank_white.png,stimulus/viswhat_stim/blank_white.png,stimulus/viswhat_stim/blank_white.png,0.0,0.0,0.0,0.0,0,0.0,0,0.0,0,0.0,0,0.0,0,0.0,0.0,0,0.0,0,0.0,0,0.0,0,0.0,0,0,0,0,0,0,0,0,10,,,,,0,13,13,13,,,,,,,,,141.95994974999985,141.95994974999985,141.95994974999985,141.95994974999985,141.95994974999985,141.95994974999985,141.95994974999985,141.95994974999985,141.8624487913334,141.95994974999985,141.95994974999985,141.95994974999985,141.8624487913334,141.95994974999985,141.95994974999985,141.95994974999985,141.95994974999985,141.95994974999985,141.95994974999985,141.95994974999985,141.95994974999985,141.95994974999985,141.95994974999985,141.95994974999985,141.95994974999985,141.95994974999985,141.95994974999985,141.91244879133342,141.95994974999985,141.95994974999985,141.95994974999985,141.91244879133342,141.95994974999985,141.95994974999985,141.95994974999985,141.95994974999985,141.95994974999985,147.19065691600008,147.19065691600008,152.12284841599967,None,0,,reldom2_s006,001,2025-01-31_14h44.51.265,Vis-A-Scan_AC,2022.2.5,None,
11,Second_Order,2.0,viswhat,stimulus/viswhat_stim/water_vehicle-cabincruiser.png,stimulus/viswhat_stim/land_vehicle-scooter.png,stimulus/viswhat_stim/land_animal-giraffe.png,stimulus/viswhat_stim/water_animal-squid.png,stimulus/viswhat_stim/match_blank.png,stimulus/viswhat_stim/match_box.png,stimulus/viswhat_stim/match_yes.png,stimulus/viswhat_stim/match_no.png,1.0,Match,Type,Type,1,5.125,0,5.125,0,5.125,0,5.125,0,0.75,0.75,1,0.5,1,2.125,1,0.5,1,2.125,0,0,0,0,0,0,0,0,0,,,,,0,14,14,14,,,,,,,,,152.12284841599967,157.2415472079997,152.58010133299967,153.57816379099995,154.21317954100004,155.20226537500002,152.12284841599967,152.12284841599967,152.13699879099968,152.12284841599967,152.12284841599967,152.12284841599967,152.13699879099968,152.12284841599967,157.2415472079997,158.09695375,160.14833499999986,,158.09695375,158.09695375,163.3058756659998,158.54063104099987,159.59406354099974,160.14833499999986,161.20271408300005,158.09695375,158.09695375,158.04246833266652,158.09695375,158.09695375,158.09695375,158.04246833266652,158.09695375,158.09695375,163.3058756659998,158.09695375,163.3058756659998,163.3058756659998,,158.09695375,1,1,0.7962928329998249,reldom2_s006,001,2025-01-31_14h44.51.265,Vis-A-Scan_AC,2022.2.5,None,
12,Second_Order,2.0,viswhat,stimulus/viswhat_stim/land_animal-bunny.png,stimulus/viswhat_stim/land_vehicle-shortbus.png,stimulus/viswhat_stim/water_vehicle-sailboat.png,stimulus/viswhat_stim/water_animal-whale.png,stimulus/viswhat_stim/match_blank.png,stimulus/viswhat_stim/match_box.png,stimulus/viswhat_stim/match_yes.png,stimulus/viswhat_stim/match_no.png,1.0,Match,Location,Location,1,5.125,0,5.125,0,5.125,0,5.125,0,0.625,0.625,1,0.5,1,2.125,1,0.5,1,2.125,0,0,0,0,0,0,0,0,0,,,,,0,15,15,15,,,,,,,,,164.09921108299977,169.22020295799985,164.54043383299995,165.539020833,166.16202020799983,167.15960887499978,164.09921108299977,164.09921108299977,164.1030561659999,164.09921108299977,164.09921108299977,164.09921108299977,164.1030561659999,164.09921108299977,169.22020295799985,169.94883087499966,171.99834229099997,,169.94883087499966,169.94883087499966,175.15182508299995,170.4217064999998,171.4738487499999,171.99834229099997,173.05640241599986,169.94883087499966,169.94883087499966,169.89901083266668,169.94883087499966,169.94883087499966,169.94883087499966,169.89901083266668,169.94883087499966,169.94883087499966,175.15182508299995,169.94883087499966,175.15182508299995,175.15182508299995,175.80747137499975,169.94883087499966,1,1,0.7874145829996451,reldom2_s006,001,2025-01-31_14h44.51.265,Vis-A-Scan_AC,2022.2.5,None,
0,0.0,None,fixation,stimulus/viswhat_stim/blank_white.png,stimulus/viswhat_stim/blank_white.png,stimulus/viswhere_stim/blank_white.png,stimulus/viswhere_stim/blank_white.png,stimulus/viswhat_stim/blank_white.png,stimulus/viswhat_stim/blank_white.png,stimulus/viswhat_stim/blank_white.png,stimulus/viswhat_stim/blank_white.png,0.0,0.0,0.0,0.0,0,0.0,0,0.0,0,0.0,0,0.0,0,0.0,0.0,0,0.0,0,0.0,0,0.0,0,0.0,0,0,0,0,0,0,0,0,9,,,,,0,16,16,16,,,,,,,,,176.0604490830001,176.0604490830001,176.0604490830001,176.0604490830001,176.0604490830001,176.0604490830001,176.0604490830001,176.0604490830001,175.95747137499976,176.0604490830001,176.0604490830001,176.0604490830001,175.95747137499976,176.0604490830001,176.0604490830001,176.0604490830001,176.0604490830001,176.0604490830001,176.0604490830001,176.0604490830001,176.0604490830001,176.0604490830001,176.0604490830001,176.0604490830001,176.0604490830001,176.0604490830001,176.0604490830001,176.00747137499977,176.0604490830001,176.0604490830001,176.0604490830001,176.00747137499977,176.0604490830001,176.0604490830001,176.0604490830001,176.0604490830001,176.0604490830001,181.26490029099978,181.26490029099978,185.2639785409997,None,0,,reldom2_s006,001,2025-01-31_14h44.51.265,Vis-A-Scan_AC,2022.2.5,None,
13,First_Order,3.0,viswhere,stimulus/viswhere_stim/blank_white.png,stimulus/viswhere_stim/blank_white.png,stimulus/viswhere_stim/90-deg_dot-left_slateblue.png,stimulus/viswhere_stim/120-deg_dot-left_slateblue.png,stimulus/viswhere_stim/blank_white.png,stimulus/viswhere_stim/dot_box.png,stimulus/viswhere_stim/dot_yes.png,stimulus/viswhere_stim/dot_no.png,None,Dot,None,Dot,1,0.0,0,5.125,0,5.125,0,5.125,0,0.0,0.625,0,0.0,0,0.0,1,0.5,1,2.125,0,0,0,0,0,0,0,0,0,,,,,0,17,17,17,,,,,,,,,185.2639785409997,185.2639785409997,185.2639785409997,185.2639785409997,185.2639785409997,185.2639785409997,185.2639785409997,185.2639785409997,185.23976820766637,185.2639785409997,185.2639785409997,185.2639785409997,185.23976820766637,185.2639785409997,185.2639785409997,185.2639785409997,187.3644892909997,191.32907354100007,185.2639785409997,185.2639785409997,190.40001845799998,185.74590062499965,186.7494212910001,187.3644892909997,188.37373495799966,185.2639785409997,185.2639785409997,185.25643487433302,185.2639785409997,185.2639785409997,185.2639785409997,185.25643487433302,185.2639785409997,185.2639785409997,190.40001845799998,185.2639785409997,190.40001845799998,190.4836745409998,191.11050341600003,185.2639785409997,1,1,1.397694458999922,reldom2_s006,001,2025-01-31_14h44.51.265,Vis-A-Scan_AC,2022.2.5,None,
14,First_Order,3.0,viswhere,stimulus/viswhere_stim/blank_white.png,stimulus/viswhere_stim/blank_white.png,stimulus/viswhere_stim/30-deg_dot-left_royalblue.png,stimulus/viswhere_stim/30-deg_dot-right_peru.png,stimulus/viswhere_stim/blank_white.png,stimulus/viswhere_stim/dot_box.png,stimulus/viswhere_stim/dot_yes.png,stimulus/viswhere_stim/dot_no.png,None,Dot,None,Line,2,0.0,0,5.125,0,5.125,0,5.125,0,0.0,0.625,0,0.0,0,0.0,1,0.5,1,2.125,0,0,0,0,0,0,0,0,0,,,,,0,18,18,18,,,,,,,,,191.32907354100007,191.32907354100007,191.32907354100007,191.32907354100007,191.32907354100007,191.32907354100007,191.32907354100007,191.32907354100007,191.30468045833308,191.32907354100007,191.32907354100007,191.32907354100007,191.30468045833308,191.32907354100007,191.32907354100007,191.32907354100007,193.42950312499988,197.3934133749999,191.32907354100007,191.32907354100007,196.4645261659998,191.81059637499993,192.8141986249998,193.42950312499988,194.43977104099986,191.32907354100007,191.32907354100007,191.32134712499976,191.32907354100007,191.32907354100007,191.32907354100007,191.32134712499976,191.32907354100007,191.32907354100007,196.4645261659998,191.32907354100007,196.4645261659998,196.54744416599988,197.174475541,191.32907354100007,2,1,0.5601148330001706,reldom2_s006,001,2025-01-31_14h44.51.265,Vis-A-Scan_AC,2022.2.5,None,
15,First_Order,3.0,viswhere,stimulus/viswhere_stim/blank_white.png,stimulus/viswhere_stim/blank_white.png,stimulus/viswhere_stim/150-deg_dot-right_turquoise.png,stimulus/viswhere_stim/150-deg_dot-left_cyan.png,stimulus/viswhere_stim/blank_white.png,stimulus/viswhere_stim/line_box.png,stimulus/viswhere_stim/line_yes.png,stimulus/viswhere_stim/line_no.png,None,Line,None,Line,1,0.0,0,5.125,0,5.125,0,5.125,0,0.0,0.625,0,0.0,0,0.0,1,0.5,1,2.125,0,0,0,0,0,0,0,0,0,,,,,0,19,19,19,,,,,,,,,197.3934133749999,197.3934133749999,197.3934133749999,197.3934133749999,197.3934133749999,197.3934133749999,197.3934133749999,197.3934133749999,197.36855783333326,197.3934133749999,197.3934133749999,197.3934133749999,197.36855783333326,197.3934133749999,197.3934133749999,197.3934133749999,199.50333929099997,203.4630522499997,197.3934133749999,197.3934133749999,202.53238062499986,197.88183220799965,198.89891816599993,199.50333929099997,200.5248755409998,197.3934133749999,197.3934133749999,197.38522449999994,197.3934133749999,197.3934133749999,197.3934133749999,197.38522449999994,197.3934133749999,197.3934133749999,202.53238062499986,197.3934133749999,202.53238062499986,202.62126037500002,203.24440137500005,197.3934133749999,None,0,,reldom2_s006,001,2025-01-31_14h44.51.265,Vis-A-Scan_AC,2022.2.5,None,
16,First_Order,3.0,viswhere,stimulus/viswhere_stim/blank_white.png,stimulus/viswhere_stim/blank_white.png,stimulus/viswhere_stim/120-deg_dot-right_mediumslateblue.png,stimulus/viswhere_stim/150-deg_dot-right_royalblue.png,stimulus/viswhere_stim/blank_white.png,stimulus/viswhere_stim/line_box.png,stimulus/viswhere_stim/line_yes.png,stimulus/viswhere_stim/line_no.png,None,Line,None,Dot,2,0.0,0,5.125,0,5.125,0,5.125,0,0.0,0.625,0,0.0,0,0.0,1,0.5,1,2.125,0,0,0,0,0,0,0,0,0,,,,,0,20,20,20,,,,,,,,,203.4630522499997,203.4630522499997,203.4630522499997,203.4630522499997,203.4630522499997,203.4630522499997,203.4630522499997,203.4630522499997,203.43945004133306,203.4630522499997,203.4630522499997,203.4630522499997,203.43945004133306,203.4630522499997,203.4630522499997,203.4630522499997,205.56724349999968,209.61181237499977,203.4630522499997,203.4630522499997,208.6047430409999,203.94885445799991,204.96378920799998,205.56724349999968,206.58846004099996,203.4630522499997,203.4630522499997,203.45611670799974,203.4630522499997,203.4630522499997,203.4630522499997,203.45611670799974,203.4630522499997,203.4630522499997,208.6047430409999,203.4630522499997,208.6047430409999,208.69032929099967,209.31652329100007,203.4630522499997,1,0,1.1774336250000488,reldom2_s006,001,2025-01-31_14h44.51.265,Vis-A-Scan_AC,2022.2.5,None,
0,0.0,None,fixation,stimulus/viswhat_stim/blank_white.png,stimulus/viswhat_stim/blank_white.png,stimulus/viswhere_stim/blank_white.png,stimulus/viswhere_stim/blank_white.png,stimulus/viswhat_stim/blank_white.png,stimulus/viswhat_stim/blank_white.png,stimulus/viswhat_stim/blank_white.png,stimulus/viswhat_stim/blank_white.png,0.0,0.0,0.0,0.0,0,0.0,0,0.0,0,0.0,0,0.0,0,0.0,0.0,0,0.0,0,0.0,0,0.0,0,0.0,0,0,0,0,0,0,0,0,8,,,,,0,21,21,21,,,,,,,,,209.61181237499977,209.61181237499977,209.61181237499977,209.61181237499977,209.61181237499977,209.61181237499977,209.61181237499977,209.61181237499977,209.51060099933315,209.61181237499977,209.61181237499977,209.61181237499977,209.51060099933315,209.61181237499977,209.61181237499977,209.61181237499977,209.61181237499977,209.61181237499977,209.61181237499977,209.61181237499977,209.61181237499977,209.61181237499977,209.61181237499977,209.61181237499977,209.61181237499977,209.61181237499977,209.61181237499977,209.56060099933316,209.61181237499977,209.61181237499977,209.61181237499977,209.56060099933316,209.61181237499977,209.61181237499977,209.61181237499977,209.61181237499977,209.61181237499977,214.8093027079999,214.8093027079999,217.74865462499974,None,0,,reldom2_s006,001,2025-01-31_14h44.51.265,Vis-A-Scan_AC,2022.2.5,None,
17,Second_Order,3.0,viswhere,stimulus/viswhere_stim/60-deg_dot-right_seagreen.png,stimulus/viswhere_stim/150-deg_dot-right_seagreen.png,stimulus/viswhere_stim/90-deg_dot-right_salmon.png,stimulus/viswhere_stim/90-deg_dot-left_seagreen.png,stimulus/viswhat_stim/match_blank.png,stimulus/viswhat_stim/match_box.png,stimulus/viswhat_stim/match_yes.png,stimulus/viswhat_stim/match_no.png,2.0,Match,Dot,Line,2,5.125,0,5.125,0,5.125,0,5.125,0,0.75,0.75,1,0.5,1,2.125,1,0.5,1,2.125,0,0,0,0,0,0,0,0,0,,,,,0,22,22,22,,,,,,,,,217.74865462499974,222.87147316599976,218.2309047079998,219.21699541599992,219.85342037500004,220.8500614999998,217.74865462499974,217.74865462499974,217.7598991663332,217.74865462499974,217.74865462499974,217.74865462499974,217.7598991663332,217.74865462499974,222.87147316599976,223.6524583329997,225.7348179999999,229.60504758299976,223.6524583329997,223.6524583329997,228.779369375,224.11949908299994,225.13345891599965,225.7348179999999,226.75542245799988,223.6524583329997,223.6524583329997,223.63960712433305,223.6524583329997,223.6524583329997,223.6524583329997,223.63960712433305,223.6524583329997,223.6524583329997,228.779369375,223.6524583329997,228.779369375,228.86763274999976,229.64275037499965,223.6524583329997,2,1,0.8630361249997804,reldom2_s006,001,2025-01-31_14h44.51.265,Vis-A-Scan_AC,2022.2.5,None,
18,Second_Order,3.0,viswhere,stimulus/viswhere_stim/150-deg_dot-right_goldenrod.png,stimulus/viswhere_stim/150-deg_dot-left_cyan.png,stimulus/viswhere_stim/120-deg_dot-left_royalblue.png,stimulus/viswhere_stim/60-deg_dot-left_royalblue.png,stimulus/viswhat_stim/match_blank.png,stimulus/viswhat_stim/match_box.png,stimulus/viswhat_stim/match_yes.png,stimulus/viswhat_stim/match_no.png,2.0,Match,Line,Dot,2,5.125,0,5.125,0,5.125,0,5.125,0,0.625,0.625,1,0.5,1,2.125,1,0.5,1,2.125,0,0,0,0,0,0,0,0,0,,,,,0,23,23,23,,,,,,,,,229.64275037499965,234.765400666,230.1251364159998,231.12338637499988,231.74634883299996,232.74386804100004,229.64275037499965,229.64275037499965,229.65504758299977,229.64275037499965,229.64275037499965,229.64275037499965,229.65504758299977,229.64275037499965,234.765400666,235.42725458299992,237.51438895799993,241.56009608299973,235.42725458299992,235.42725458299992,240.57806595800002,235.8914988329998,236.89803708299996,237.51438895799993,238.52886841600002,235.42725458299992,235.42725458299992,235.41712858333318,235.42725458299992,235.42725458299992,235.42725458299992,235.41712858333318,235.42725458299992,235.42725458299992,240.57806595800002,235.42725458299992,240.57806595800002,240.6362684579999,241.26280275,235.42725458299992,2,1,0.9491929169998912,reldom2_s006,001,2025-01-31_14h44.51.265,Vis-A-Scan_AC,2022.2.5,None,
0,0.0,None,fixation,stimulus/viswhat_stim/blank_white.png,stimulus/viswhat_stim/blank_white.png,stimulus/viswhere_stim/blank_white.png,stimulus/viswhere_stim/blank_white.png,stimulus/viswhat_stim/blank_white.png,stimulus/viswhat_stim/blank_white.png,stimulus/viswhat_stim/blank_white.png,stimulus/viswhat_stim/blank_white.png,0.0,0.0,0.0,0.0,0,0.0,0,0.0,0,0.0,0,0.0,0,0.0,0.0,0,0.0,0,0.0,0,0.0,0,0.0,0,0,0,0,0,0,0,0,10,,,,,0,24,24,24,,,,,,,,,241.56009608299973,241.56009608299973,241.56009608299973,241.56009608299973,241.56009608299973,241.56009608299973,241.56009608299973,241.56009608299973,241.45699687433338,241.56009608299973,241.56009608299973,241.56009608299973,241.45699687433338,241.56009608299973,241.56009608299973,241.56009608299973,241.56009608299973,241.56009608299973,241.56009608299973,241.56009608299973,241.56009608299973,241.56009608299973,241.56009608299973,241.56009608299973,241.56009608299973,241.56009608299973,241.56009608299973,241.5069968743334,241.56009608299973,241.56009608299973,241.56009608299973,241.5069968743334,241.56009608299973,241.56009608299973,241.56009608299973,241.56009608299973,241.56009608299973,246.73941520800008,246.73941520800008,251.73823004099995,None,0,,reldom2_s006,001,2025-01-31_14h44.51.265,Vis-A-Scan_AC,2022.2.5,None,
19,First_Order,4.0,viswhere,stimulus/viswhere_stim/blank_white.png,stimulus/viswhere_stim/blank_white.png,stimulus/viswhere_stim/90-deg_dot-right_royalblue.png,stimulus/viswhere_stim/120-deg_dot-right_goldenrod.png,stimulus/viswhere_stim/blank_white.png,stimulus/viswhere_stim/dot_box.png,stimulus/viswhere_stim/dot_yes.png,stimulus/viswhere_stim/dot_no.png,None,Dot,None,Dot,1,0.0,0,5.125,0,5.125,0,5.125,0,0.0,0.625,0,0.0,0,0.0,1,0.5,1,2.125,0,0,0,0,0,0,0,0,0,,,,,0,25,25,25,,,,,,,,,251.73823004099995,251.73823004099995,251.73823004099995,251.73823004099995,251.73823004099995,251.73823004099995,251.73823004099995,251.73823004099995,251.71430862466667,251.73823004099995,251.73823004099995,251.73823004099995,251.71430862466667,251.73823004099995,251.73823004099995,251.73823004099995,253.84574674999976,257.79780816599987,251.73823004099995,251.73823004099995,256.8823418329998,252.22327124999993,253.22939658299993,253.84574674999976,254.85751699999992,251.73823004099995,251.73823004099995,251.73097529133332,251.73823004099995,251.73823004099995,251.73823004099995,251.73097529133332,251.73823004099995,251.73823004099995,256.8823418329998,251.73823004099995,256.8823418329998,256.95382495800004,257.5807485,251.73823004099995,1,1,0.9000145840000187,reldom2_s006,001,2025-01-31_14h44.51.265,Vis-A-Scan_AC,2022.2.5,None,
20,First_Order,4.0,viswhere,stimulus/viswhere_stim/blank_white.png,stimulus/viswhere_stim/blank_white.png,stimulus/viswhere_stim/90-deg_dot-left_peru.png,stimulus/viswhere_stim/90-deg_dot-right_royalblue.png,stimulus/viswhere_stim/blank_white.png,stimulus/viswhere_stim/dot_box.png,stimulus/viswhere_stim/dot_yes.png,stimulus/viswhere_stim/dot_no.png,None,Dot,None,Line,2,0.0,0,5.125,0,5.125,0,5.125,0,0.0,0.625,0,0.0,0,0.0,1,0.5,1,2.125,0,0,0,0,0,0,0,0,0,,,,,0,26,26,26,,,,,,,,,257.79780816599987,257.79780816599987,257.79780816599987,257.79780816599987,257.79780816599987,257.79780816599987,257.79780816599987,257.79780816599987,257.77481629133337,257.79780816599987,257.79780816599987,257.79780816599987,257.77481629133337,257.79780816599987,257.79780816599987,257.79780816599987,259.9052482909997,263.86498537499983,257.79780816599987,257.79780816599987,262.93640962499967,258.28158399999984,259.28838066599974,259.9052482909997,260.92137966599967,257.79780816599987,257.79780816599987,257.791482958,257.79780816599987,257.79780816599987,257.79780816599987,257.791482958,257.79780816599987,257.79780816599987,262.93640962499967,257.79780816599987,262.93640962499967,263.0210214159997,263.647714833,257.79780816599987,2,1,0.7792464159997508,reldom2_s006,001,2025-01-31_14h44.51.265,Vis-A-Scan_AC,2022.2.5,None,
21,First_Order,4.0,viswhere,stimulus/viswhere_stim/blank_white.png,stimulus/viswhere_stim/blank_white.png,stimulus/viswhere_stim/120-deg_dot-left_cyan.png,stimulus/viswhere_stim/150-deg_dot-left_seagreen.png,stimulus/viswhere_stim/blank_white.png,stimulus/viswhere_stim/line_box.png,stimulus/viswhere_stim/line_yes.png,stimulus/viswhere_stim/line_no.png,None,Line,None,Dot,2,0.0,0,5.125,0,5.125,0,5.125,0,0.0,0.625,0,0.0,0,0.0,1,0.5,1,2.125,0,0,0,0,0,0,0,0,0,,,,,0,27,27,27,,,,,,,,,263.86498537499983,263.86498537499983,263.86498537499983,263.86498537499983,263.86498537499983,263.86498537499983,263.86498537499983,263.86498537499983,263.84185591633315,263.86498537499983,263.86498537499983,263.86498537499983,263.84185591633315,263.86498537499983,263.86498537499983,263.86498537499983,265.9711024579997,269.9359039159999,263.86498537499983,263.86498537499983,268.9935176250001,264.35380299999997,265.3696467499999,265.9711024579997,266.9901500000001,263.86498537499983,263.86498537499983,263.8585225829998,263.86498537499983,263.86498537499983,263.86498537499983,263.8585225829998,263.86498537499983,263.86498537499983,268.9935176250001,263.86498537499983,268.9935176250001,269.0908729160001,269.71694766599967,263.86498537499983,1,0,0.8989134579996971,reldom2_s006,001,2025-01-31_14h44.51.265,Vis-A-Scan_AC,2022.2.5,None,
22,First_Order,4.0,viswhere,stimulus/viswhere_stim/blank_white.png,stimulus/viswhere_stim/blank_white.png,stimulus/viswhere_stim/150-deg_dot-right_seagreen.png,stimulus/viswhere_stim/150-deg_dot-left_slateblue.png,stimulus/viswhere_stim/blank_white.png,stimulus/viswhere_stim/line_box.png,stimulus/viswhere_stim/line_yes.png,stimulus/viswhere_stim/line_no.png,None,Line,None,Line,1,0.0,0,5.125,0,5.125,0,5.125,0,0.0,0.625,0,0.0,0,0.0,1,0.5,1,2.125,0,0,0,0,0,0,0,0,0,,,,,0,28,28,28,,,,,,,,,269.9359039159999,269.9359039159999,269.9359039159999,269.9359039159999,269.9359039159999,269.9359039159999,269.9359039159999,269.9359039159999,269.9120246243331,269.9359039159999,269.9359039159999,269.9359039159999,269.9120246243331,269.9359039159999,269.9359039159999,269.9359039159999,272.0494088329997,276.0775100000001,269.9359039159999,269.9359039159999,275.0741733750001,270.4262438329997,271.4445080830001,272.0494088329997,273.0551049579999,269.9359039159999,269.9359039159999,269.9286912909998,269.9359039159999,269.9359039159999,269.9359039159999,269.9286912909998,269.9359039159999,269.9359039159999,275.0741733750001,269.9359039159999,275.0741733750001,275.17444620800006,275.8091838749997,269.9359039159999,1,1,0.6548671250002371,reldom2_s006,001,2025-01-31_14h44.51.265,Vis-A-Scan_AC,2022.2.5,None,
0,0.0,None,fixation,stimulus/viswhat_stim/blank_white.png,stimulus/viswhat_stim/blank_white.png,stimulus/viswhere_stim/blank_white.png,stimulus/viswhere_stim/blank_white.png,stimulus/viswhat_stim/blank_white.png,stimulus/viswhat_stim/blank_white.png,stimulus/viswhat_stim/blank_white.png,stimulus/viswhat_stim/blank_white.png,0.0,0.0,0.0,0.0,0,0.0,0,0.0,0,0.0,0,0.0,0,0.0,0.0,0,0.0,0,0.0,0,0.0,0,0.0,0,0,0,0,0,0,0,0,9,,,,,0,29,29,29,,,,,,,,,276.0775100000001,276.0775100000001,276.0775100000001,276.0775100000001,276.0775100000001,276.0775100000001,276.0775100000001,276.0775100000001,275.97609366633316,276.0775100000001,276.0775100000001,276.0775100000001,275.97609366633316,276.0775100000001,276.0775100000001,276.0775100000001,276.0775100000001,276.0775100000001,276.0775100000001,276.0775100000001,276.0775100000001,276.0775100000001,276.0775100000001,276.0775100000001,276.0775100000001,276.0775100000001,276.0775100000001,276.02609366633317,276.0775100000001,276.0775100000001,276.0775100000001,276.02609366633317,276.0775100000001,276.0775100000001,276.0775100000001,276.0775100000001,276.0775100000001,281.29017854099993,281.29017854099993,285.2163968750001,None,0,,reldom2_s006,001,2025-01-31_14h44.51.265,Vis-A-Scan_AC,2022.2.5,None,
23,Second_Order,4.0,viswhere,stimulus/viswhere_stim/90-deg_dot-right_salmon.png,stimulus/viswhere_stim/150-deg_dot-right_seagreen.png,stimulus/viswhere_stim/150-deg_dot-right_mediumslateblue.png,stimulus/viswhere_stim/150-deg_dot-left_lightsseagreen.png,stimulus/viswhat_stim/match_blank.png,stimulus/viswhat_stim/match_box.png,stimulus/viswhat_stim/match_yes.png,stimulus/viswhat_stim/match_no.png,2.0,Match,Dot,Line,2,5.125,0,5.125,0,5.125,0,5.125,0,0.75,0.75,1,0.5,1,2.125,1,0.5,1,2.125,0,0,0,0,0,0,0,0,0,,,,,0,30,30,30,,,,,,,,,285.2163968750001,290.33121274999985,285.69970654100007,286.6881711249998,287.325502875,288.3220055409997,285.2163968750001,285.2163968750001,285.22942845833325,285.2163968750001,285.2163968750001,285.2163968750001,285.22942845833325,285.2163968750001,290.33121274999985,291.1134675829999,293.1992278329999,297.0964047499997,291.1134675829999,291.1134675829999,296.23497904099986,291.5881527910001,292.5906384159998,293.1992278329999,294.20820724999976,291.1134675829999,291.1134675829999,291.0996009583332,291.1134675829999,291.1134675829999,291.1134675829999,291.0996009583332,291.1134675829999,291.1134675829999,296.23497904099986,291.1134675829999,296.23497904099986,296.320829666,297.0964047499997,291.1134675829999,2,1,0.9266447499999231,reldom2_s006,001,2025-01-31_14h44.51.265,Vis-A-Scan_AC,2022.2.5,None,
24,Second_Order,4.0,viswhere,stimulus/viswhere_stim/90-deg_dot-left_cyan.png,stimulus/viswhere_stim/60-deg_dot-left_slateblue.png,stimulus/viswhere_stim/120-deg_dot-right_goldenrod.png,stimulus/viswhere_stim/90-deg_dot-right_seagreen.png,stimulus/viswhat_stim/match_blank.png,stimulus/viswhat_stim/match_box.png,stimulus/viswhat_stim/match_yes.png,stimulus/viswhat_stim/match_no.png,1.0,Match,Dot,Dot,1,5.125,0,5.125,0,5.125,0,5.125,0,0.625,0.625,1,0.5,1,2.125,1,0.5,1,2.125,0,0,0,0,0,0,0,0,0,,,,,0,31,31,31,,,,,,,,,297.0964047499997,302.20903904099987,297.58082820799973,298.5796342079998,299.20265570799984,300.19987920799986,297.0964047499997,297.0964047499997,297.1081455409997,297.0964047499997,297.0964047499997,297.0964047499997,297.1081455409997,297.0964047499997,302.20903904099987,302.8668387079997,304.9653498329999,308.99616237500004,302.8668387079997,302.8668387079997,308.00018329099976,303.3367315830001,304.345051625,304.9653498329999,305.98051670799987,302.8668387079997,302.8668387079997,302.85578687433326,302.8668387079997,302.8668387079997,302.8668387079997,302.85578687433326,302.8668387079997,302.8668387079997,308.00018329099976,302.8668387079997,308.00018329099976,308.0835031249999,308.7123342079999,302.8668387079997,1,1,0.726024416999735,reldom2_s006,001,2025-01-31_14h44.51.265,Vis-A-Scan_AC,2022.2.5,None,
0,0.0,None,fixation,stimulus/viswhat_stim/blank_white.png,stimulus/viswhat_stim/blank_white.png,stimulus/viswhere_stim/blank_white.png,stimulus/viswhere_stim/blank_white.png,stimulus/viswhat_stim/blank_white.png,stimulus/viswhat_stim/blank_white.png,stimulus/viswhat_stim/blank_white.png,stimulus/viswhat_stim/blank_white.png,0.0,0.0,0.0,0.0,0,0.0,0,0.0,0,0.0,0,0.0,0,0.0,0.0,0,0.0,0,0.0,0,0.0,0,0.0,0,0,0,0,0,0,0,0,10,,,,,0,32,32,32,,,,,,,,,308.99616237500004,308.99616237500004,308.99616237500004,308.99616237500004,308.99616237500004,308.99616237500004,308.99616237500004,308.99616237500004,308.89299345833325,308.99616237500004,308.99616237500004,308.99616237500004,308.89299345833325,308.99616237500004,308.99616237500004,308.99616237500004,308.99616237500004,308.99616237500004,308.99616237500004,308.99616237500004,308.99616237500004,308.99616237500004,308.99616237500004,308.99616237500004,308.99616237500004,308.99616237500004,308.99616237500004,308.94299345833326,308.99616237500004,308.99616237500004,308.99616237500004,308.94299345833326,308.99616237500004,308.99616237500004,308.99616237500004,308.99616237500004,308.99616237500004,314.1845619999999,314.1845619999999,319.2163177499997,None,0,,reldom2_s006,001,2025-01-31_14h44.51.265,Vis-A-Scan_AC,2022.2.5,None,
25,First_Order,5.0,viswhat,stimulus/viswhat_stim/blank_white.png,stimulus/viswhat_stim/blank_white.png,stimulus/viswhat_stim/land_vehicle-shortbus.png,stimulus/viswhat_stim/land_animal-pig.png,stimulus/viswhat_stim/blank_white.png,stimulus/viswhat_stim/location_box.png,stimulus/viswhat_stim/location_yes.png,stimulus/viswhat_stim/location_no.png,None,Location,None,Location,1,0.0,0,5.125,0,5.125,0,5.125,0,0.0,0.625,0,0.0,0,0.0,1,0.5,1,2.125,0,0,0,0,0,0,0,0,0,,,,,0,33,33,33,,,,,,,,,319.2163177499997,319.2163177499997,319.2163177499997,319.2163177499997,319.2163177499997,319.2163177499997,319.2163177499997,319.2163177499997,319.1699518746665,319.2163177499997,319.2163177499997,319.2163177499997,319.1699518746665,319.2163177499997,319.2163177499997,319.2163177499997,321.31608316599977,325.33640608299993,319.2163177499997,319.2163177499997,324.3656609579998,319.6896349999997,320.727860125,321.31608316599977,322.3551157500001,319.2163177499997,319.2163177499997,319.1866185413332,319.2163177499997,319.2163177499997,319.2163177499997,319.1866185413332,319.2163177499997,319.2163177499997,324.3656609579998,319.2163177499997,324.3656609579998,324.4372103749997,325.0795083329999,319.2163177499997,1,1,0.8758862499998941,reldom2_s006,001,2025-01-31_14h44.51.265,Vis-A-Scan_AC,2022.2.5,None,
26,First_Order,5.0,viswhat,stimulus/viswhat_stim/blank_white.png,stimulus/viswhat_stim/blank_white.png,stimulus/viswhat_stim/land_vehicle-rv.png,stimulus/viswhat_stim/land_animal-bunny.png,stimulus/viswhat_stim/blank_white.png,stimulus/viswhat_stim/type_box.png,stimulus/viswhat_stim/type_yes.png,stimulus/viswhat_stim/type_no.png,None,Type,None,Location,2,0.0,0,5.125,0,5.125,0,5.125,0,0.0,0.625,0,0.0,0,0.0,1,0.5,1,2.125,0,0,0,0,0,0,0,0,0,,,,,0,34,34,34,,,,,,,,,325.33640608299993,325.33640608299993,325.33640608299993,325.33640608299993,325.33640608299993,325.33640608299993,325.33640608299993,325.33640608299993,325.25032225,325.33640608299993,325.33640608299993,325.33640608299993,325.25032225,325.33640608299993,325.33640608299993,325.33640608299993,327.4088725409997,,325.33640608299993,325.33640608299993,330.498453833,325.81807475000005,326.87879729099996,327.4088725409997,328.47684466600003,325.33640608299993,325.33640608299993,325.30032225,325.33640608299993,325.33640608299993,325.33640608299993,325.30032225,325.33640608299993,325.33640608299993,330.498453833,325.33640608299993,330.498453833,330.54172008299975,331.22089441599974,325.33640608299993,2,1,0.6199722499995914,reldom2_s006,001,2025-01-31_14h44.51.265,Vis-A-Scan_AC,2022.2.5,None,
27,First_Order,5.0,viswhat,stimulus/viswhat_stim/blank_white.png,stimulus/viswhat_stim/blank_white.png,stimulus/viswhat_stim/land_animal-zebra.png,stimulus/viswhat_stim/land_vehicle-oldcar.png,stimulus/viswhat_stim/blank_white.png,stimulus/viswhat_stim/location_box.png,stimulus/viswhat_stim/location_yes.png,stimulus/viswhat_stim/location_no.png,None,Location,None,Location,1,0.0,0,5.125,0,5.125,0,5.125,0,0.0,0.625,0,0.0,0,0.0,1,0.5,1,2.125,0,0,0,0,0,0,0,0,0,,,,,0,35,35,35,,,,,,,,,331.43808329099966,331.43808329099966,331.43808329099966,331.43808329099966,331.43808329099966,331.43808329099966,331.43808329099966,331.43808329099966,331.35422774933306,331.43808329099966,331.43808329099966,331.43808329099966,331.35422774933306,331.43808329099966,331.43808329099966,331.43808329099966,333.53057795799987,337.51157216599995,331.43808329099966,331.43808329099966,336.604502916,331.88337058299976,332.95311941599994,333.53057795799987,334.5594982909997,331.43808329099966,331.43808329099966,331.4042277493331,331.43808329099966,331.43808329099966,331.43808329099966,331.4042277493331,331.43808329099966,331.43808329099966,336.604502916,331.43808329099966,336.604502916,336.6435691659999,337.3016392909999,331.43808329099966,1,1,0.7142520839997815,reldom2_s006,001,2025-01-31_14h44.51.265,Vis-A-Scan_AC,2022.2.5,None,
28,First_Order,5.0,viswhat,stimulus/viswhat_stim/blank_white.png,stimulus/viswhat_stim/blank_white.png,stimulus/viswhat_stim/water_vehicle-canoe.png,stimulus/viswhat_stim/land_vehicle-trolley.png,stimulus/viswhat_stim/blank_white.png,stimulus/viswhat_stim/type_box.png,stimulus/viswhat_stim/type_yes.png,stimulus/viswhat_stim/type_no.png,None,Type,None,Type,1,0.0,0,5.125,0,5.125,0,5.125,0,0.0,0.625,0,0.0,0,0.0,1,0.5,1,2.125,0,0,0,0,0,0,0,0,0,,,,,0,36,36,36,,,,,,,,,337.51157216599995,337.51157216599995,337.51157216599995,337.51157216599995,337.51157216599995,337.51157216599995,337.51157216599995,337.51157216599995,337.47344224933306,337.51157216599995,337.51157216599995,337.51157216599995,337.47344224933306,337.51157216599995,337.51157216599995,337.51157216599995,339.6215966249997,343.6576447079997,337.51157216599995,337.51157216599995,342.64698933299996,337.9801253329997,338.99817054100004,339.6215966249997,340.6445349159999,337.51157216599995,337.51157216599995,337.4901089159997,337.51157216599995,337.51157216599995,337.51157216599995,337.4901089159997,337.51157216599995,337.51157216599995,342.64698933299996,337.51157216599995,342.64698933299996,342.72866191599996,343.35884529099985,337.51157216599995,1,1,0.542860374999691,reldom2_s006,001,2025-01-31_14h44.51.265,Vis-A-Scan_AC,2022.2.5,None,
0,0.0,None,fixation,stimulus/viswhat_stim/blank_white.png,stimulus/viswhat_stim/blank_white.png,stimulus/viswhere_stim/blank_white.png,stimulus/viswhere_stim/blank_white.png,stimulus/viswhat_stim/blank_white.png,stimulus/viswhat_stim/blank_white.png,stimulus/viswhat_stim/blank_white.png,stimulus/viswhat_stim/blank_white.png,0.0,0.0,0.0,0.0,0,0.0,0,0.0,0,0.0,0,0.0,0,0.0,0.0,0,0.0,0,0.0,0,0.0,0,0.0,0,0,0,0,0,0,0,0,9,,,,,0,37,37,37,,,,,,,,,343.6576447079997,343.6576447079997,343.6576447079997,343.6576447079997,343.6576447079997,343.6576447079997,343.6576447079997,343.6576447079997,343.55989904099994,343.6576447079997,343.6576447079997,343.6576447079997,343.55989904099994,343.6576447079997,343.6576447079997,343.6576447079997,343.6576447079997,343.6576447079997,343.6576447079997,343.6576447079997,343.6576447079997,343.6576447079997,343.6576447079997,343.6576447079997,343.6576447079997,343.6576447079997,343.6576447079997,343.60989904099995,343.6576447079997,343.6576447079997,343.6576447079997,343.60989904099995,343.6576447079997,343.6576447079997,343.6576447079997,343.6576447079997,343.6576447079997,348.869497958,348.869497958,352.79743233299996,None,0,,reldom2_s006,001,2025-01-31_14h44.51.265,Vis-A-Scan_AC,2022.2.5,None,
29,Second_Order,5.0,viswhat,stimulus/viswhat_stim/land_vehicle-schoolbus.png,stimulus/viswhat_stim/land_animal-snake.png,stimulus/viswhat_stim/water_vehicle-cruiser.png,stimulus/viswhat_stim/water_animal-whale.png,stimulus/viswhat_stim/match_blank.png,stimulus/viswhat_stim/match_box.png,stimulus/viswhat_stim/match_yes.png,stimulus/viswhat_stim/match_no.png,1.0,Match,Location,Location,1,5.125,0,5.125,0,5.125,0,5.125,0,0.75,0.75,1,0.5,1,2.125,1,0.5,1,2.125,0,0,0,0,0,0,0,0,0,,,,,0,38,38,38,,,,,,,,,352.79743233299996,357.921066375,353.2719749160001,354.2614645829999,354.89800020799976,355.8952023329998,352.79743233299996,352.79743233299996,352.80256320833325,352.79743233299996,352.79743233299996,352.79743233299996,352.80256320833325,352.79743233299996,357.921066375,358.80170708299966,360.89680729099973,,358.80170708299966,358.80170708299966,364.0375182499997,359.21893299999965,360.3385687079999,360.89680729099973,362.01722683299977,358.80170708299966,358.80170708299966,358.7383014583332,358.80170708299966,358.80170708299966,358.80170708299966,358.7383014583332,358.80170708299966,358.80170708299966,364.0375182499997,358.80170708299966,364.0375182499997,363.9734318329997,,358.80170708299966,1,1,0.43182408299981034,reldom2_s006,001,2025-01-31_14h44.51.265,Vis-A-Scan_AC,2022.2.5,None,
30,Second_Order,5.0,viswhat,stimulus/viswhat_stim/land_vehicle-tank.png,stimulus/viswhat_stim/water_vehicle-cabincruiser.png,stimulus/viswhat_stim/land_animal-pig.png,stimulus/viswhat_stim/water_animal-stingray.png,stimulus/viswhat_stim/match_blank.png,stimulus/viswhat_stim/match_box.png,stimulus/viswhat_stim/match_yes.png,stimulus/viswhat_stim/match_no.png,1.0,Match,Type,Type,1,5.125,0,5.125,0,5.125,0,5.125,0,0.625,0.625,1,0.5,1,2.125,1,0.5,1,2.125,0,0,0,0,0,0,0,0,0,,,,,0,39,39,39,,,,,,,,,364.7694417499997,369.8818269999997,365.237232166,366.2350285409998,366.8587098329999,367.8556534579998,364.7694417499997,364.7694417499997,364.78191099966637,364.7694417499997,364.7694417499997,364.7694417499997,364.78191099966637,364.7694417499997,369.8818269999997,370.54561266599967,372.63194858299994,376.6872860409999,370.54561266599967,370.54561266599967,375.67513066599986,371.01158991600005,372.0302432079998,372.63194858299994,373.65788262499973,370.54561266599967,370.54561266599967,370.52879187433336,370.54561266599967,370.54561266599967,370.54561266599967,370.52879187433336,370.54561266599967,370.54561266599967,375.67513066599986,370.54561266599967,375.67513066599986,375.7587733749997,376.39453004100005,370.54561266599967,1,1,0.7378494170002341,reldom2_s006,001,2025-01-31_14h44.51.265,Vis-A-Scan_AC,2022.2.5,None,
0,0.0,None,fixation,stimulus/viswhat_stim/blank_white.png,stimulus/viswhat_stim/blank_white.png,stimulus/viswhere_stim/blank_white.png,stimulus/viswhere_stim/blank_white.png,stimulus/viswhat_stim/blank_white.png,stimulus/viswhat_stim/blank_white.png,stimulus/viswhat_stim/blank_white.png,stimulus/viswhat_stim/blank_white.png,0.0,0.0,0.0,0.0,0,0.0,0,0.0,0,0.0,0,0.0,0,0.0,0.0,0,0.0,0,0.0,0,0.0,0,0.0,0,0,0,0,0,0,0,0,10,,,,,0,40,40,40,,,,,,,,,376.6872860409999,376.6872860409999,376.6872860409999,376.6872860409999,376.6872860409999,376.6872860409999,376.6872860409999,376.6872860409999,376.59385479100007,376.6872860409999,376.6872860409999,376.6872860409999,376.59385479100007,376.6872860409999,376.6872860409999,376.6872860409999,376.6872860409999,376.6872860409999,376.6872860409999,376.6872860409999,376.6872860409999,376.6872860409999,376.6872860409999,376.6872860409999,376.6872860409999,376.6872860409999,376.6872860409999,376.6438547910001,376.6872860409999,376.6872860409999,376.6872860409999,376.6438547910001,376.6872860409999,376.6872860409999,376.6872860409999,376.6872860409999,376.6872860409999,381.87652679099983,381.87652679099983,386.89132837499983,None,0,,reldom2_s006,001,2025-01-31_14h44.51.265,Vis-A-Scan_AC,2022.2.5,None,
31,First_Order,6.0,viswhat,stimulus/viswhat_stim/blank_white.png,stimulus/viswhat_stim/blank_white.png,stimulus/viswhat_stim/land_vehicle-rv.png,stimulus/viswhat_stim/land_animal-ostrich.png,stimulus/viswhat_stim/blank_white.png,stimulus/viswhat_stim/type_box.png,stimulus/viswhat_stim/type_yes.png,stimulus/viswhat_stim/type_no.png,None,Type,None,Location,2,0.0,0,5.125,0,5.125,0,5.125,0,0.0,0.625,0,0.0,0,0.0,1,0.5,1,2.125,0,0,0,0,0,0,0,0,0,,,,,0,41,41,41,,,,,,,,,386.89132837499983,386.89132837499983,386.89132837499983,386.89132837499983,386.89132837499983,386.89132837499983,386.89132837499983,386.89132837499983,386.8565226666666,386.89132837499983,386.89132837499983,386.89132837499983,386.8565226666666,386.89132837499983,386.89132837499983,386.89132837499983,388.98349033299974,393.04568775000007,386.89132837499983,386.89132837499983,392.02615345799995,387.37769283299986,388.40107899999975,388.98349033299974,390.011033666,386.89132837499983,386.89132837499983,386.8731893333333,386.89132837499983,386.89132837499983,386.89132837499983,386.8731893333333,386.89132837499983,386.89132837499983,392.02615345799995,386.89132837499983,392.02615345799995,392.10085249999975,392.73570970799983,386.89132837499983,2,1,0.9363277500001459,reldom2_s006,001,2025-01-31_14h44.51.265,Vis-A-Scan_AC,2022.2.5,None,
32,First_Order,6.0,viswhat,stimulus/viswhat_stim/blank_white.png,stimulus/viswhat_stim/blank_white.png,stimulus/viswhat_stim/land_animal-moose.png,stimulus/viswhat_stim/water_animal-dolphin.png,stimulus/viswhat_stim/blank_white.png,stimulus/viswhat_stim/type_box.png,stimulus/viswhat_stim/type_yes.png,stimulus/viswhat_stim/type_no.png,None,Type,None,Type,1,0.0,0,5.125,0,5.125,0,5.125,0,0.0,0.625,0,0.0,0,0.0,1,0.5,1,2.125,0,0,0,0,0,0,0,0,0,,,,,0,42,42,42,,,,,,,,,393.04568775000007,393.04568775000007,393.04568775000007,393.04568775000007,393.04568775000007,393.04568775000007,393.04568775000007,393.04568775000007,392.9469316659998,393.04568775000007,393.04568775000007,393.04568775000007,392.9469316659998,393.04568775000007,393.04568775000007,393.04568775000007,395.1214661250001,,393.04568775000007,393.04568775000007,398.2659817499998,393.5197303330001,394.58832533299983,395.1214661250001,396.18973104099996,393.04568775000007,393.04568775000007,392.9969316659998,393.04568775000007,393.04568775000007,393.04568775000007,392.9969316659998,393.04568775000007,393.04568775000007,398.2659817499998,393.04568775000007,398.2659817499998,398.2659817499998,399.1321343750001,393.04568775000007,1,1,1.2497490000000653,reldom2_s006,001,2025-01-31_14h44.51.265,Vis-A-Scan_AC,2022.2.5,None,
33,First_Order,6.0,viswhat,stimulus/viswhat_stim/blank_white.png,stimulus/viswhat_stim/blank_white.png,stimulus/viswhat_stim/land_vehicle-buldozer.png,stimulus/viswhat_stim/water_vehicle-canoe.png,stimulus/viswhat_stim/blank_white.png,stimulus/viswhat_stim/location_box.png,stimulus/viswhat_stim/location_yes.png,stimulus/viswhat_stim/location_no.png,None,Location,None,Type,2,0.0,0,5.125,0,5.125,0,5.125,0,0.0,0.625,0,0.0,0,0.0,1,0.5,1,2.125,0,0,0,0,0,0,0,0,0,,,,,0,43,43,43,,,,,,,,,399.1321343750001,399.1321343750001,399.1321343750001,399.1321343750001,399.1321343750001,399.1321343750001,399.1321343750001,399.1321343750001,399.07729958266657,399.1321343750001,399.1321343750001,399.1321343750001,399.07729958266657,399.1321343750001,399.1321343750001,399.1321343750001,401.22546562499974,405.1974472080001,399.1321343750001,399.1321343750001,404.30697033299975,399.608953166,400.63891049999984,401.22546562499974,402.25514970799986,399.1321343750001,399.1321343750001,399.11063291599993,399.1321343750001,399.1321343750001,399.1321343750001,399.11063291599993,399.1321343750001,399.1321343750001,404.30697033299975,399.1321343750001,404.30697033299975,404.3395030829997,404.9900237500001,399.1321343750001,2,1,0.7802808750002441,reldom2_s006,001,2025-01-31_14h44.51.265,Vis-A-Scan_AC,2022.2.5,None,
34,First_Order,6.0,viswhat,stimulus/viswhat_stim/blank_white.png,stimulus/viswhat_stim/blank_white.png,stimulus/viswhat_stim/land_vehicle-scooter.png,stimulus/viswhat_stim/water_vehicle-motorboatraft.png,stimulus/viswhat_stim/blank_white.png,stimulus/viswhat_stim/location_box.png,stimulus/viswhat_stim/location_yes.png,stimulus/viswhat_stim/location_no.png,None,Location,None,Type,2,0.0,0,5.125,0,5.125,0,5.125,0,0.0,0.625,0,0.0,0,0.0,1,0.5,1,2.125,0,0,0,0,0,0,0,0,0,,,,,0,44,44,44,,,,,,,,,405.1974472080001,405.1974472080001,405.1974472080001,405.1974472080001,405.1974472080001,405.1974472080001,405.1974472080001,405.1974472080001,405.16782970766633,405.1974472080001,405.1974472080001,405.1974472080001,405.16782970766633,405.1974472080001,405.1974472080001,405.1974472080001,407.2978025409998,411.34388549999994,405.1974472080001,405.1974472080001,410.32330004100004,405.6805307499999,406.69056516599994,407.2978025409998,408.310872,405.1974472080001,405.1974472080001,405.184496374333,405.1974472080001,405.1974472080001,405.1974472080001,405.184496374333,405.1974472080001,405.1974472080001,410.32330004100004,405.1974472080001,410.32330004100004,410.42187395799965,411.0568442499998,405.1974472080001,2,1,0.8994861659998605,reldom2_s006,001,2025-01-31_14h44.51.265,Vis-A-Scan_AC,2022.2.5,None,
0,0.0,None,fixation,stimulus/viswhat_stim/blank_white.png,stimulus/viswhat_stim/blank_white.png,stimulus/viswhere_stim/blank_white.png,stimulus/viswhere_stim/blank_white.png,stimulus/viswhat_stim/blank_white.png,stimulus/viswhat_stim/blank_white.png,stimulus/viswhat_stim/blank_white.png,stimulus/viswhat_stim/blank_white.png,0.0,0.0,0.0,0.0,0,0.0,0,0.0,0,0.0,0,0.0,0,0.0,0.0,0,0.0,0,0.0,0,0.0,0,0.0,0,0,0,0,0,0,0,0,8,,,,,0,45,45,45,,,,,,,,,411.34388549999994,411.34388549999994,411.34388549999994,411.34388549999994,411.34388549999994,411.34388549999994,411.34388549999994,411.34388549999994,411.2350755413334,411.34388549999994,411.34388549999994,411.34388549999994,411.2350755413334,411.34388549999994,411.34388549999994,411.34388549999994,411.34388549999994,411.34388549999994,411.34388549999994,411.34388549999994,411.34388549999994,411.34388549999994,411.34388549999994,411.34388549999994,411.34388549999994,411.34388549999994,411.34388549999994,411.30174220800006,411.34388549999994,411.34388549999994,411.34388549999994,411.30174220800006,411.34388549999994,411.34388549999994,411.34388549999994,411.34388549999994,411.34388549999994,416.5720651659999,416.5720651659999,419.4999519160001,None,0,,reldom2_s006,001,2025-01-31_14h44.51.265,Vis-A-Scan_AC,2022.2.5,None,
35,Second_Order,6.0,viswhat,stimulus/viswhat_stim/land_vehicle-train.png,stimulus/viswhat_stim/land_animal-moose.png,stimulus/viswhat_stim/land_vehicle-schoolbus.png,stimulus/viswhat_stim/water_vehicle-sailboat.png,stimulus/viswhat_stim/match_blank.png,stimulus/viswhat_stim/match_box.png,stimulus/viswhat_stim/match_yes.png,stimulus/viswhat_stim/match_no.png,2.0,Match,Location,Type,2,5.125,0,5.125,0,5.125,0,5.125,0,0.75,0.75,1,0.5,1,2.125,1,0.5,1,2.125,0,0,0,0,0,0,0,0,0,,,,,0,46,46,46,,,,,,,,,419.4999519160001,424.62435079099987,419.9460506659998,420.94486537500006,421.5696265829997,422.565255041,419.4999519160001,419.4999519160001,419.5096452076665,419.4999519160001,419.4999519160001,419.4999519160001,419.5096452076665,419.4999519160001,424.62435079099987,425.46970191599985,427.55721137499995,,425.46970191599985,425.46970191599985,430.63954883299994,425.941265208,426.98548104099973,427.55721137499995,428.6080308749997,425.46970191599985,425.46970191599985,425.42544949966674,425.46970191599985,425.46970191599985,425.46970191599985,425.42544949966674,425.46970191599985,425.46970191599985,430.63954883299994,425.46970191599985,430.63954883299994,430.63954883299994,,425.46970191599985,2,1,0.741217916000096,reldom2_s006,001,2025-01-31_14h44.51.265,Vis-A-Scan_AC,2022.2.5,None,
36,Second_Order,6.0,viswhat,stimulus/viswhat_stim/land_animal-moose.png,stimulus/viswhat_stim/land_vehicle-schoolbus.png,stimulus/viswhat_stim/land_vehicle-pickuptruck.png,stimulus/viswhat_stim/water_vehicle-canoe(1).png,stimulus/viswhat_stim/match_blank.png,stimulus/viswhat_stim/match_box.png,stimulus/viswhat_stim/match_yes.png,stimulus/viswhat_stim/match_no.png,2.0,Match,Location,Type,2,5.125,0,5.125,0,5.125,0,5.125,0,0.625,0.625,1,0.5,1,2.125,1,0.5,1,2.125,0,0,0,0,0,0,0,0,0,,,,,0,47,47,47,,,,,,,,,431.4785454160001,436.60213350000004,431.924224375,432.9225737080001,433.5451412499997,434.542537625,431.4785454160001,431.4785454160001,431.4842420829999,431.4785454160001,431.4785454160001,431.4785454160001,431.4842420829999,431.4785454160001,436.60213350000004,437.26699224999993,439.3618785409999,443.40704941600006,437.26699224999993,437.26699224999993,442.40437625000004,437.72383949999994,438.72968491599977,439.3618785409999,440.371661958,437.26699224999993,437.26699224999993,437.24910649933327,437.26699224999993,437.26699224999993,437.26699224999993,437.24910649933327,437.26699224999993,437.26699224999993,442.40437625000004,437.26699224999993,442.40437625000004,442.46905512500007,443.09742266600006,437.26699224999993,2,1,1.0461683749999793,reldom2_s006,001,2025-01-31_14h44.51.265,Vis-A-Scan_AC,2022.2.5,None,
0,0.0,None,fixation,stimulus/viswhat_stim/blank_white.png,stimulus/viswhat_stim/blank_white.png,stimulus/viswhere_stim/blank_white.png,stimulus/viswhere_stim/blank_white.png,stimulus/viswhat_stim/blank_white.png,stimulus/viswhat_stim/blank_white.png,stimulus/viswhat_stim/blank_white.png,stimulus/viswhat_stim/blank_white.png,0.0,0.0,0.0,0.0,0,0.0,0,0.0,0,0.0,0,0.0,0,0.0,0.0,0,0.0,0,0.0,0,0.0,0,0.0,0,0,0,0,0,0,0,0,8,,,,,0,48,48,48,,,,,,,,,443.40704941600006,443.40704941600006,443.40704941600006,443.40704941600006,443.40704941600006,443.40704941600006,443.40704941600006,443.40704941600006,443.31396858299973,443.40704941600006,443.40704941600006,443.40704941600006,443.31396858299973,443.40704941600006,443.40704941600006,443.40704941600006,443.40704941600006,443.40704941600006,443.40704941600006,443.40704941600006,443.40704941600006,443.40704941600006,443.40704941600006,443.40704941600006,443.40704941600006,443.40704941600006,443.40704941600006,443.36396858299975,443.40704941600006,443.40704941600006,443.40704941600006,443.36396858299975,443.40704941600006,443.40704941600006,443.40704941600006,443.40704941600006,443.40704941600006,448.59813808299987,448.59813808299987,451.601218541,None,0,,reldom2_s006,001,2025-01-31_14h44.51.265,Vis-A-Scan_AC,2022.2.5,None,
37,First_Order,7.0,viswhere,stimulus/viswhere_stim/blank_white.png,stimulus/viswhere_stim/blank_white.png,stimulus/viswhere_stim/120-deg_dot-right_turquoise.png,stimulus/viswhere_stim/120-deg_dot-left_slateblue.png,stimulus/viswhere_stim/blank_white.png,stimulus/viswhere_stim/line_box.png,stimulus/viswhere_stim/line_yes.png,stimulus/viswhere_stim/line_no.png,None,Line,None,Line,1,0.0,0,5.125,0,5.125,0,5.125,0,0.0,0.625,0,0.0,0,0.0,1,0.5,1,2.125,0,0,0,0,0,0,0,0,0,,,,,0,49,49,49,,,,,,,,,451.601218541,451.601218541,451.601218541,451.601218541,451.601218541,451.601218541,451.601218541,451.601218541,451.57784112466663,451.601218541,451.601218541,451.601218541,451.57784112466663,451.601218541,451.601218541,451.601218541,453.7051831660001,457.6703672079998,451.601218541,451.601218541,456.72930662499994,452.084122708,453.0895062079999,453.7051831660001,454.71705437499986,451.601218541,451.601218541,451.59450779133334,451.601218541,451.601218541,451.601218541,451.59450779133334,451.601218541,451.601218541,456.72930662499994,451.601218541,456.72930662499994,456.82670712499976,457.45200695799986,451.601218541,1,1,1.0024047080000855,reldom2_s006,001,2025-01-31_14h44.51.265,Vis-A-Scan_AC,2022.2.5,None,
38,First_Order,7.0,viswhere,stimulus/viswhere_stim/blank_white.png,stimulus/viswhere_stim/blank_white.png,stimulus/viswhere_stim/30-deg_dot-right_royalblue.png,stimulus/viswhere_stim/30-deg_dot-left_royalblue.png,stimulus/viswhere_stim/blank_white.png,stimulus/viswhere_stim/dot_box.png,stimulus/viswhere_stim/dot_yes.png,stimulus/viswhere_stim/dot_no.png,None,Dot,None,Line,2,0.0,0,5.125,0,5.125,0,5.125,0,0.0,0.625,0,0.0,0,0.0,1,0.5,1,2.125,0,0,0,0,0,0,0,0,0,,,,,0,50,50,50,,,,,,,,,457.6703672079998,457.6703672079998,457.6703672079998,457.6703672079998,457.6703672079998,457.6703672079998,457.6703672079998,457.6703672079998,457.64708208333315,457.6703672079998,457.6703672079998,457.6703672079998,457.64708208333315,457.6703672079998,457.6703672079998,457.6703672079998,459.7763582079997,463.73995775000003,457.6703672079998,457.6703672079998,462.7978989999997,458.1541372500001,459.1602907910001,459.7763582079997,460.7863708330001,457.6703672079998,457.6703672079998,457.6637487499998,457.6703672079998,457.6703672079998,457.6703672079998,457.6637487499998,457.6703672079998,457.6703672079998,462.7978989999997,457.6703672079998,462.7978989999997,462.895479583,463.5224465409997,457.6703672079998,2,1,1.531247957999767,reldom2_s006,001,2025-01-31_14h44.51.265,Vis-A-Scan_AC,2022.2.5,None,
39,First_Order,7.0,viswhere,stimulus/viswhere_stim/blank_white.png,stimulus/viswhere_stim/blank_white.png,stimulus/viswhere_stim/150-deg_dot-left_peru.png,stimulus/viswhere_stim/30-deg_dot-left_goldenrod.png,stimulus/viswhere_stim/blank_white.png,stimulus/viswhere_stim/line_box.png,stimulus/viswhere_stim/line_yes.png,stimulus/viswhere_stim/line_no.png,None,Line,None,Dot,2,0.0,0,5.125,0,5.125,0,5.125,0,0.0,0.625,0,0.0,0,0.0,1,0.5,1,2.125,0,0,0,0,0,0,0,0,0,,,,,0,51,51,51,,,,,,,,,463.73995775000003,463.73995775000003,463.73995775000003,463.73995775000003,463.73995775000003,463.73995775000003,463.73995775000003,463.73995775000003,463.7168520413332,463.73995775000003,463.73995775000003,463.73995775000003,463.7168520413332,463.73995775000003,463.73995775000003,463.73995775000003,465.8453838749997,469.803839833,463.73995775000003,463.73995775000003,468.887882041,464.22793995799975,465.2424529159998,465.8453838749997,466.86638841600006,463.73995775000003,463.73995775000003,463.73351870799985,463.73995775000003,463.73995775000003,463.73995775000003,463.73351870799985,463.73995775000003,463.73995775000003,468.887882041,463.73995775000003,468.887882041,468.9596757909999,469.58675774999983,463.73995775000003,2,1,0.788221374999921,reldom2_s006,001,2025-01-31_14h44.51.265,Vis-A-Scan_AC,2022.2.5,None,
40,First_Order,7.0,viswhere,stimulus/viswhere_stim/blank_white.png,stimulus/viswhere_stim/blank_white.png,stimulus/viswhere_stim/120-deg_dot-left_royalblue.png,stimulus/viswhere_stim/120-deg_dot-right_slateblue.png,stimulus/viswhere_stim/blank_white.png,stimulus/viswhere_stim/dot_box.png,stimulus/viswhere_stim/dot_yes.png,stimulus/viswhere_stim/dot_no.png,None,Dot,None,Line,2,0.0,0,5.125,0,5.125,0,5.125,0,0.0,0.625,0,0.0,0,0.0,1,0.5,1,2.125,0,0,0,0,0,0,0,0,0,,,,,0,52,52,52,,,,,,,,,469.803839833,469.803839833,469.803839833,469.803839833,469.803839833,469.803839833,469.803839833,469.803839833,469.7808347913331,469.803839833,469.803839833,469.803839833,469.7808347913331,469.803839833,469.803839833,469.803839833,471.90931279100005,475.94548454100004,469.803839833,469.803839833,474.92700045799984,470.28674141600004,471.2934033329998,471.90931279100005,472.92000870799984,469.803839833,469.803839833,469.7975014579998,469.803839833,469.803839833,469.803839833,469.7975014579998,469.803839833,469.803839833,474.92700045799984,469.803839833,474.92700045799984,475.0233009999997,475.65038245799997,469.803839833,2,1,0.7826172909999514,reldom2_s006,001,2025-01-31_14h44.51.265,Vis-A-Scan_AC,2022.2.5,None,
0,0.0,None,fixation,stimulus/viswhat_stim/blank_white.png,stimulus/viswhat_stim/blank_white.png,stimulus/viswhere_stim/blank_white.png,stimulus/viswhere_stim/blank_white.png,stimulus/viswhat_stim/blank_white.png,stimulus/viswhat_stim/blank_white.png,stimulus/viswhat_stim/blank_white.png,stimulus/viswhat_stim/blank_white.png,0.0,0.0,0.0,0.0,0,0.0,0,0.0,0,0.0,0,0.0,0,0.0,0.0,0,0.0,0,0.0,0,0.0,0,0.0,0,0,0,0,0,0,0,0,9,,,,,0,53,53,53,,,,,,,,,475.94548454100004,475.94548454100004,475.94548454100004,475.94548454100004,475.94548454100004,475.94548454100004,475.94548454100004,475.94548454100004,475.8442226243331,475.94548454100004,475.94548454100004,475.94548454100004,475.8442226243331,475.94548454100004,475.94548454100004,475.94548454100004,475.94548454100004,475.94548454100004,475.94548454100004,475.94548454100004,475.94548454100004,475.94548454100004,475.94548454100004,475.94548454100004,475.94548454100004,475.94548454100004,475.94548454100004,475.8942226243331,475.94548454100004,475.94548454100004,475.94548454100004,475.8942226243331,475.94548454100004,475.94548454100004,475.94548454100004,475.94548454100004,475.94548454100004,481.159166166,481.159166166,485.0791938749999,None,0,,reldom2_s006,001,2025-01-31_14h44.51.265,Vis-A-Scan_AC,2022.2.5,None,
41,Second_Order,7.0,viswhere,stimulus/viswhere_stim/90-deg_dot-right_seagreen.png,stimulus/viswhere_stim/90-deg_dot-left_salmon.png,stimulus/viswhere_stim/60-deg_dot-left_slateblue.png,stimulus/viswhere_stim/60-deg_dot-right_lightsseagreen.png,stimulus/viswhat_stim/match_blank.png,stimulus/viswhat_stim/match_box.png,stimulus/viswhat_stim/match_yes.png,stimulus/viswhat_stim/match_no.png,1.0,Match,Line,Line,1,5.125,0,5.125,0,5.125,0,5.125,0,0.75,0.75,1,0.5,1,2.125,1,0.5,1,2.125,0,0,0,0,0,0,0,0,0,,,,,0,54,54,54,,,,,,,,,485.0791938749999,490.1936417080001,485.56062508299965,486.54954020800005,487.1854847499999,488.183000083,485.0791938749999,485.0791938749999,485.0906124583331,485.0791938749999,485.0791938749999,485.0791938749999,485.0906124583331,485.0791938749999,490.1936417080001,490.9712749999999,493.06595508300006,496.9239272499999,490.9712749999999,490.9712749999999,496.10082658300007,491.43669624999984,492.44674745799966,493.06595508300006,494.080736291,490.9712749999999,490.9712749999999,490.960309208333,490.9712749999999,490.9712749999999,490.9712749999999,490.960309208333,490.9712749999999,490.9712749999999,496.10082658300007,490.9712749999999,496.10082658300007,496.1841267499999,496.96057354100003,490.9712749999999,1,1,0.8058162079996691,reldom2_s006,001,2025-01-31_14h44.51.265,Vis-A-Scan_AC,2022.2.5,None,
42,Second_Order,7.0,viswhere,stimulus/viswhere_stim/150-deg_dot-left_cyan.png,stimulus/viswhere_stim/60-deg_dot-left_royalblue.png,stimulus/viswhere_stim/30-deg_dot-right_mediumslateblue.png,stimulus/viswhere_stim/90-deg_dot-right_peru.png,stimulus/viswhat_stim/match_blank.png,stimulus/viswhat_stim/match_box.png,stimulus/viswhat_stim/match_yes.png,stimulus/viswhat_stim/match_no.png,1.0,Match,Dot,Dot,1,5.125,0,5.125,0,5.125,0,5.125,0,0.625,0.625,1,0.5,1,2.125,1,0.5,1,2.125,0,0,0,0,0,0,0,0,0,,,,,0,55,55,55,,,,,,,,,496.96057354100003,502.0820306659998,497.44177462499965,498.44009554099966,499.0640457909999,500.06081079099977,496.96057354100003,496.96057354100003,496.9739272499999,496.96057354100003,496.96057354100003,496.96057354100003,496.9739272499999,496.96057354100003,502.0820306659998,502.77980254099975,504.8423298749999,508.8728781249997,502.77980254099975,502.77980254099975,507.9059524999998,503.2078853329999,504.21903166599986,504.8423298749999,505.86104662499974,502.77980254099975,502.77980254099975,502.73325879133336,502.77980254099975,502.77980254099975,502.77980254099975,502.73325879133336,502.77980254099975,502.77980254099975,507.9059524999998,502.77980254099975,507.9059524999998,507.9475387909997,508.57336187500005,502.77980254099975,1,1,1.0040842919997885,reldom2_s006,001,2025-01-31_14h44.51.265,Vis-A-Scan_AC,2022.2.5,None,
0,0.0,None,fixation,stimulus/viswhat_stim/blank_white.png,stimulus/viswhat_stim/blank_white.png,stimulus/viswhere_stim/blank_white.png,stimulus/viswhere_stim/blank_white.png,stimulus/viswhat_stim/blank_white.png,stimulus/viswhat_stim/blank_white.png,stimulus/viswhat_stim/blank_white.png,stimulus/viswhat_stim/blank_white.png,0.0,0.0,0.0,0.0,0,0.0,0,0.0,0,0.0,0,0.0,0,0.0,0.0,0,0.0,0,0.0,0,0.0,0,0.0,0,0,0,0,0,0,0,0,8,,,,,0,56,56,56,,,,,,,,,508.8728781249997,508.8728781249997,508.8728781249997,508.8728781249997,508.8728781249997,508.8728781249997,508.8728781249997,508.8728781249997,508.76794583333304,508.8728781249997,508.8728781249997,508.8728781249997,508.76794583333304,508.8728781249997,508.8728781249997,508.8728781249997,508.8728781249997,508.8728781249997,508.8728781249997,508.8728781249997,508.8728781249997,508.8728781249997,508.8728781249997,508.8728781249997,508.8728781249997,508.8728781249997,508.8728781249997,508.81794583333306,508.8728781249997,508.8728781249997,508.8728781249997,508.81794583333306,508.8728781249997,508.8728781249997,508.8728781249997,508.8728781249997,508.8728781249997,514.0714254159998,514.0714254159998,517.0804722079997,None,0,,reldom2_s006,001,2025-01-31_14h44.51.265,Vis-A-Scan_AC,2022.2.5,None,
43,First_Order,8.0,viswhere,stimulus/viswhere_stim/blank_white.png,stimulus/viswhere_stim/blank_white.png,stimulus/viswhere_stim/150-deg_dot-left_lightsseagreen.png,stimulus/viswhere_stim/30-deg_dot-left_salmon.png,stimulus/viswhere_stim/blank_white.png,stimulus/viswhere_stim/dot_box.png,stimulus/viswhere_stim/dot_yes.png,stimulus/viswhere_stim/dot_no.png,None,Dot,None,Dot,1,0.0,0,5.125,0,5.125,0,5.125,0,0.0,0.625,0,0.0,0,0.0,1,0.5,1,2.125,0,0,0,0,0,0,0,0,0,,,,,0,57,57,57,,,,,,,,,517.0804722079997,517.0804722079997,517.0804722079997,517.0804722079997,517.0804722079997,517.0804722079997,517.0804722079997,517.0804722079997,517.0575414166666,517.0804722079997,517.0804722079997,517.0804722079997,517.0575414166666,517.0804722079997,517.0804722079997,517.0804722079997,519.1779029999998,523.150275125,517.0804722079997,517.0804722079997,522.2142784580001,517.5661955830001,518.5777333329997,519.1779029999998,520.1937284579999,517.0804722079997,517.0804722079997,517.0742080833332,517.0804722079997,517.0804722079997,517.0804722079997,517.0742080833332,517.0804722079997,517.0804722079997,522.2142784580001,517.0804722079997,522.2142784580001,522.302477875,522.9314709579999,517.0804722079997,1,1,0.787646749999567,reldom2_s006,001,2025-01-31_14h44.51.265,Vis-A-Scan_AC,2022.2.5,None,
44,First_Order,8.0,viswhere,stimulus/viswhere_stim/blank_white.png,stimulus/viswhere_stim/blank_white.png,stimulus/viswhere_stim/150-deg_dot-right_seagreen.png,stimulus/viswhere_stim/150-deg_dot-left_goldenrod.png,stimulus/viswhere_stim/blank_white.png,stimulus/viswhere_stim/line_box.png,stimulus/viswhere_stim/line_yes.png,stimulus/viswhere_stim/line_no.png,None,Line,None,Line,1,0.0,0,5.125,0,5.125,0,5.125,0,0.0,0.625,0,0.0,0,0.0,1,0.5,1,2.125,0,0,0,0,0,0,0,0,0,,,,,0,58,58,58,,,,,,,,,523.150275125,523.150275125,523.150275125,523.150275125,523.150275125,523.150275125,523.150275125,523.150275125,523.1265940413331,523.150275125,523.150275125,523.150275125,523.1265940413331,523.150275125,523.150275125,523.150275125,525.2665561660001,529.2142537079999,523.150275125,523.150275125,528.2880232079997,523.641381333,524.660873625,525.2665561660001,526.2704867079997,523.150275125,523.150275125,523.1432607079997,523.150275125,523.150275125,523.150275125,523.1432607079997,523.150275125,523.150275125,528.2880232079997,523.150275125,528.2880232079997,528.3919881249999,529.0185625409999,523.150275125,1,1,0.8327398749997883,reldom2_s006,001,2025-01-31_14h44.51.265,Vis-A-Scan_AC,2022.2.5,None,
45,First_Order,8.0,viswhere,stimulus/viswhere_stim/blank_white.png,stimulus/viswhere_stim/blank_white.png,stimulus/viswhere_stim/150-deg_dot-left_seagreen.png,stimulus/viswhere_stim/60-deg_dot-left_turquoise.png,stimulus/viswhere_stim/blank_white.png,stimulus/viswhere_stim/dot_box.png,stimulus/viswhere_stim/dot_yes.png,stimulus/viswhere_stim/dot_no.png,None,Dot,None,Dot,1,0.0,0,5.125,0,5.125,0,5.125,0,0.0,0.625,0,0.0,0,0.0,1,0.5,1,2.125,0,0,0,0,0,0,0,0,0,,,,,0,59,59,59,,,,,,,,,529.2142537079999,529.2142537079999,529.2142537079999,529.2142537079999,529.2142537079999,529.2142537079999,529.2142537079999,529.2142537079999,529.1906169583334,529.2142537079999,529.2142537079999,529.2142537079999,529.1906169583334,529.2142537079999,529.2142537079999,529.2142537079999,531.3140778329998,535.2741416250001,529.2142537079999,529.2142537079999,534.3460674579997,529.7003642909999,530.7120889999997,531.3140778329998,532.3284897909998,529.2142537079999,529.2142537079999,529.2072836250001,529.2142537079999,529.2142537079999,529.2142537079999,529.2072836250001,529.2142537079999,529.2142537079999,534.3460674579997,529.2142537079999,534.3460674579997,534.430742,535.0571445410001,529.2142537079999,1,1,0.9388250830002107,reldom2_s006,001,2025-01-31_14h44.51.265,Vis-A-Scan_AC,2022.2.5,None,
46,First_Order,8.0,viswhere,stimulus/viswhere_stim/blank_white.png,stimulus/viswhere_stim/blank_white.png,stimulus/viswhere_stim/150-deg_dot-left_lightsseagreen.png,stimulus/viswhere_stim/60-deg_dot-left_royalblue.png,stimulus/viswhere_stim/blank_white.png,stimulus/viswhere_stim/line_box.png,stimulus/viswhere_stim/line_yes.png,stimulus/viswhere_stim/line_no.png,None,Line,None,Dot,2,0.0,0,5.125,0,5.125,0,5.125,0,0.0,0.625,0,0.0,0,0.0,1,0.5,1,2.125,0,0,0,0,0,0,0,0,0,,,,,0,60,60,60,,,,,,,,,535.2741416250001,535.2741416250001,535.2741416250001,535.2741416250001,535.2741416250001,535.2741416250001,535.2741416250001,535.2741416250001,535.2513449993334,535.2741416250001,535.2741416250001,535.2741416250001,535.2513449993334,535.2741416250001,535.2741416250001,535.2741416250001,537.3781555830001,541.4169762500001,535.2741416250001,535.2741416250001,540.4060514580001,535.7622407909998,536.7758026659999,537.3781555830001,538.3961636659997,535.2741416250001,535.2741416250001,535.268011666,535.2741416250001,535.2741416250001,535.2741416250001,535.268011666,535.2741416250001,535.2741416250001,540.4060514580001,535.2741416250001,540.4060514580001,540.494539583,541.1211079579998,535.2741416250001,2,1,1.5151285829997505,reldom2_s006,001,2025-01-31_14h44.51.265,Vis-A-Scan_AC,2022.2.5,None,
0,0.0,None,fixation,stimulus/viswhat_stim/blank_white.png,stimulus/viswhat_stim/blank_white.png,stimulus/viswhere_stim/blank_white.png,stimulus/viswhere_stim/blank_white.png,stimulus/viswhat_stim/blank_white.png,stimulus/viswhat_stim/blank_white.png,stimulus/viswhat_stim/blank_white.png,stimulus/viswhat_stim/blank_white.png,0.0,0.0,0.0,0.0,0,0.0,0,0.0,0,0.0,0,0.0,0,0.0,0.0,0,0.0,0,0.0,0,0.0,0,0.0,0,0,0,0,0,0,0,0,9,,,,,0,61,61,61,,,,,,,,,541.4169762500001,541.4169762500001,541.4169762500001,541.4169762500001,541.4169762500001,541.4169762500001,541.4169762500001,541.4169762500001,541.3154686243332,541.4169762500001,541.4169762500001,541.4169762500001,541.3154686243332,541.4169762500001,541.4169762500001,541.4169762500001,541.4169762500001,541.4169762500001,541.4169762500001,541.4169762500001,541.4169762500001,541.4169762500001,541.4169762500001,541.4169762500001,541.4169762500001,541.4169762500001,541.4169762500001,541.3654686243332,541.4169762500001,541.4169762500001,541.4169762500001,541.3654686243332,541.4169762500001,541.4169762500001,541.4169762500001,541.4169762500001,541.4169762500001,546.6332124159999,546.6332124159999,550.557188833,None,0,,reldom2_s006,001,2025-01-31_14h44.51.265,Vis-A-Scan_AC,2022.2.5,None,
47,Second_Order,8.0,viswhere,stimulus/viswhere_stim/120-deg_dot-left_goldenrod.png,stimulus/viswhere_stim/120-deg_dot-right_seagreen.png,stimulus/viswhere_stim/90-deg_dot-left_peru.png,stimulus/viswhere_stim/90-deg_dot-right_turquoise.png,stimulus/viswhat_stim/match_blank.png,stimulus/viswhat_stim/match_box.png,stimulus/viswhat_stim/match_yes.png,stimulus/viswhat_stim/match_no.png,1.0,Match,Line,Line,1,5.125,0,5.125,0,5.125,0,5.125,0,0.75,0.75,1,0.5,1,2.125,1,0.5,1,2.125,0,0,0,0,0,0,0,0,0,,,,,0,62,62,62,,,,,,,,,550.557188833,555.6782494999998,551.0321014579999,552.0305606659999,552.6653099999999,553.6545954159997,550.557188833,550.557188833,550.5691456663332,550.557188833,550.557188833,550.557188833,550.5691456663332,550.557188833,555.6782494999998,556.4640321249999,558.570042375,562.45498125,556.4640321249999,556.4640321249999,561.6018629999999,556.931578958,557.9451503749997,558.570042375,559.58983575,556.4640321249999,556.4640321249999,556.4570725833332,556.4640321249999,556.4640321249999,556.4640321249999,556.4570725833332,556.4640321249999,556.4640321249999,561.6018629999999,556.4640321249999,561.6018629999999,561.685147833,,556.4640321249999,1,1,0.7232861669999693,reldom2_s006,001,2025-01-31_14h44.51.265,Vis-A-Scan_AC,2022.2.5,None,
48,Second_Order,8.0,viswhere,stimulus/viswhere_stim/150-deg_dot-right_salmon.png,stimulus/viswhere_stim/90-deg_dot-right_cyan.png,stimulus/viswhere_stim/60-deg_dot-left_mediumslateblue.png,stimulus/viswhere_stim/30-deg_dot-left_turquoise.png,stimulus/viswhat_stim/match_blank.png,stimulus/viswhat_stim/match_box.png,stimulus/viswhat_stim/match_yes.png,stimulus/viswhat_stim/match_no.png,1.0,Match,Dot,Dot,1,5.125,0,5.125,0,5.125,0,5.125,0,0.625,0.625,1,0.5,1,2.125,1,0.5,1,2.125,0,0,0,0,0,0,0,0,0,,,,,0,63,63,63,,,,,,,,,562.45498125,567.570838958,562.9390814999997,563.9280274580001,564.5640118329998,565.5614999159998,562.45498125,562.45498125,562.467220791,562.45498125,562.45498125,562.45498125,562.467220791,562.45498125,567.570838958,568.2290427079997,570.3237240829999,574.3604158329999,568.2290427079997,568.2290427079997,573.3645041249997,568.694838458,569.704280166,570.3237240829999,571.339922958,568.2290427079997,568.2290427079997,568.2177963333334,568.2290427079997,568.2290427079997,568.2290427079997,568.2177963333334,568.2290427079997,568.2290427079997,573.3645041249997,568.2290427079997,573.3645041249997,573.4337719159998,574.060925541,568.2290427079997,1,1,1.0663260409996838,reldom2_s006,001,2025-01-31_14h44.51.265,Vis-A-Scan_AC,2022.2.5,None,
0,0.0,None,fixation,stimulus/viswhat_stim/blank_white.png,stimulus/viswhat_stim/blank_white.png,stimulus/viswhere_stim/blank_white.png,stimulus/viswhere_stim/blank_white.png,stimulus/viswhat_stim/blank_white.png,stimulus/viswhat_stim/blank_white.png,stimulus/viswhat_stim/blank_white.png,stimulus/viswhat_stim/blank_white.png,0.0,0.0,0.0,0.0,0,0.0,0,0.0,0,0.0,0,0.0,0,0.0,0.0,0,0.0,0,0.0,0,0.0,0,0.0,0,0,0,0,0,0,0,0,16,,,,,0,64,64,64,,,,,,,,,574.3604158329999,574.3604158329999,574.3604158329999,574.3604158329999,574.3604158329999,574.3604158329999,574.3604158329999,574.3604158329999,574.2549097493333,574.3604158329999,574.3604158329999,574.3604158329999,574.2549097493333,574.3604158329999,574.3604158329999,574.3604158329999,574.3604158329999,574.3604158329999,574.3604158329999,574.3604158329999,574.3604158329999,574.3604158329999,574.3604158329999,574.3604158329999,574.3604158329999,574.3604158329999,574.3604158329999,574.3049097493332,574.3604158329999,574.3604158329999,574.3604158329999,574.3049097493332,574.3604158329999,574.3604158329999,574.3604158329999,574.3604158329999,574.3604158329999,579.56150325,579.56150325,590.488263875,None,0,,reldom2_s006,001,2025-01-31_14h44.51.265,Vis-A-Scan_AC,2022.2.5,None,
