Trial,Order,Block,Type,Stimuli_File1,Stimuli_File2,Stimuli_File3,Stimuli_File4,Cue_File1,Cue_File2,Response_File_Yes,Response_File_No,Match,Cue_Dimension,Pair1_Dimension,Pair2_Dimension,Key,Cue1_Duration,Cue1_Onset,Cue2_Duration,Cue2_Onset,ResponseYes_Duration,ResponseYes_Onset,ResponseNo_Duration,ResponseNo_Onset,ITI_Within,ITI_Between,Image1_Duration,Image1_Onset,Image2_Duration,Image2_Onset,Image3_Duration,Image3_Onset,Image4_Duration,Image4_Onset,Sound1_Duration,Sound1_Onset,Sound2_Duration,Sound2_Onset,Sound3_Duration,Sound3_Onset,Sound4_Duration,Sound4_Onset,Fixation_Duration,trials_2.thisRepN,trials_2.thisTrialN,trials_2.thisN,trials_2.thisIndex,trials.thisRepN,trials.thisTrialN,trials.thisN,trials.thisIndex,text_start.started,key_resp_start.started,key_resp_start.keys,key_resp_start.rt,text2.started,key_resp_2.started,key_resp_2.keys,key_resp_2.rt,cue_file1.started,cue_file1.stopped,image_1.started,image_1.stopped,image_2.started,image_2.stopped,sound_icon1.started,sound_icon1.stopped,sound_1.started,sound_1.stopped,sound_icon2.started,sound_icon2.stopped,sound_2.started,sound_2.stopped,image_blank_1.started,image_blank_1.stopped,key_press.started,key_press.stopped,fixation_text.started,cue_file2.started,cue_file2.stopped,image_3.started,image_3.stopped,image_4.started,image_4.stopped,sound_icon3.started,sound_icon3.stopped,sound_3.started,sound_3.stopped,sound_icon4.started,sound_icon4.stopped,sound_4.started,sound_4.stopped,response_yes.started,response_yes.stopped,response_no.started,response_no.stopped,iti_blank.started,iti_blank.stopped,fixation_text.stopped,key_press.keys,key_press.corr,key_press.rt,participant,session,date,expName,psychopyVersion,frameRate,
,,,,,,,,,,,,,,,,,,,,,,,,,,,,,,,,,,,,,,,,,,,,,,,,,,,,11.716920416999983,11.716920416999983,2,0.8637989159999506,,,,,,,,,,,,,,,,,,,,,,,,,,,,,,,,,,,,,,,,,,,,,,,,reldom2_s006,001,2025-01-31_14h33.41.478,Aud-A-Scan_AC,2022.2.5,None,
,,,,,,,,,,,,,,,,,,,,,,,,,,,,,,,,,,,,,,,,,,,,0,0,0,0,,,,,,,,,12.601081709000027,12.601081709000027,5,26.899615541000003,,,,,,,,,,,,,,,,,,,,,,,,,,,,,,,,,,,,,,,,,,,,reldom2_s006,001,2025-01-31_14h33.41.478,Aud-A-Scan_AC,2022.2.5,None,
,,,,,,,,,,,,,,,,,,,,,,,,,,,,,,,,,,,,,,,,,,,,1,0,1,0,,,,,,,,,39.51292145899993,39.51292145899993,5,1.9871428330000072,,,,,,,,,,,,,,,,,,,,,,,,,,,,,,,,,,,,,,,,,,,,reldom2_s006,001,2025-01-31_14h33.41.478,Aud-A-Scan_AC,2022.2.5,None,
,,,,,,,,,,,,,,,,,,,,,,,,,,,,,,,,,,,,,,,,,,,,2,0,2,0,,,,,,,,,41.51657779199991,41.51657779199991,5,1.983891665999863,,,,,,,,,,,,,,,,,,,,,,,,,,,,,,,,,,,,,,,,,,,,reldom2_s006,001,2025-01-31_14h33.41.478,Aud-A-Scan_AC,2022.2.5,None,
,,,,,,,,,,,,,,,,,,,,,,,,,,,,,,,,,,,,,,,,,,,,3,0,3,0,,,,,,,,,43.51494783399994,43.51494783399994,5,1.985386748999872,,,,,,,,,,,,,,,,,,,,,,,,,,,,,,,,,,,,,,,,,,,,reldom2_s006,001,2025-01-31_14h33.41.478,Aud-A-Scan_AC,2022.2.5,None,
0,0.0,None,fixation,stimulus/audwhere_stim/blank_white.png,stimulus/audwhere_stim/blank_white.png,stimulus/audwhat_stim/blank_white.png,stimulus/audwhat_stim/blank_white.png,stimulus/audwhere_stim/blank_white.png,stimulus/audwhere_stim/blank_white.png,stimulus/audwhere_stim/blank_white.png,stimulus/audwhere_stim/blank_white.png,0.0,0.0,0.0,0.0,0,0.0,0,0.0,0,0.0,0,0.0,0,0.0,0.0,0,0,0,0,0,0,0,0,0,0.0,0,0.0,0,0.0,0,0.0,16,,,,,0,0,0,0,,,,,,,,,45.69303954199995,45.69303954199995,45.69303954199995,45.69303954199995,45.69303954199995,45.69303954199995,45.69303954199995,45.69303954199995,45.60263608399996,45.69303954199995,45.69303954199995,45.69303954199995,45.60263608399996,45.69303954199995,45.69303954199995,45.69303954199995,45.69303954199995,45.69303954199995,45.69303954199995,45.69303954199995,45.69303954199995,45.69303954199995,45.69303954199995,45.69303954199995,45.69303954199995,45.69303954199995,45.69303954199995,45.65263608399996,45.69303954199995,45.69303954199995,45.69303954199995,45.65263608399996,45.69303954199995,45.69303954199995,45.69303954199995,45.69303954199995,45.69303954199995,50.87559962499995,50.87559962499995,61.93723416700004,None,0,,reldom2_s006,001,2025-01-31_14h33.41.478,Aud-A-Scan_AC,2022.2.5,None,
1,First_Order,1.0,audwhere,stimulus/audwhere_stim/dummy.wav,stimulus/audwhere_stim/dummy.wav,stimulus/audwhere_stim/left_away_280h.wav,stimulus/audwhere_stim/right_away_290h.wav,stimulus/audwhere_stim/blank_white.png,stimulus/audwhere_stim/direction_box.png,stimulus/audwhere_stim/direction_yes.png,stimulus/audwhere_stim/direction_no.png,None,Direction,None,Direction,1,0.0,0,5.125,0,5.125,0,5.125,0,0.0,0.625,0,0,0,0,0,0,0,0,0,0.0,0,0.0,1,0.5,1,2.125,0,,,,,0,1,1,1,,,,,,,,,61.93723416700004,61.93723416700004,61.93723416700004,61.93723416700004,61.93723416700004,61.93723416700004,61.93723416700004,61.93723416700004,61.86494712499998,61.93723416700004,61.93723416700004,61.93723416700004,61.86494712499998,61.93723416700004,61.93723416700004,61.93723416700004,64.03761104199998,68.05527616699987,61.93723416700004,61.93723416700004,67.08507216699991,61.93723416700004,61.93723416700004,61.93723416700004,61.93723416700004,62.39462795899999,63.44426904199986,62.365528375666614,63.39906220900002,64.03761104199998,65.09095558399986,64.00876670866661,65.045316792,61.93723416700004,67.08507216699991,61.93723416700004,67.08507216699991,67.16482795899992,67.84344662500007,61.93723416700004,1,1,1.3498262909999994,reldom2_s006,001,2025-01-31_14h33.41.478,Aud-A-Scan_AC,2022.2.5,None,
2,First_Order,1.0,audwhere,stimulus/audwhere_stim/dummy.wav,stimulus/audwhere_stim/dummy.wav,stimulus/audwhere_stim/left_away_270h.wav,stimulus/audwhere_stim/left_toward_270h.wav,stimulus/audwhere_stim/blank_white.png,stimulus/audwhere_stim/direction_box.png,stimulus/audwhere_stim/direction_yes.png,stimulus/audwhere_stim/direction_no.png,None,Direction,None,Side,2,0.0,0,5.125,0,5.125,0,5.125,0,0.0,0.625,0,0,0,0,0,0,0,0,0,0.0,0,0.0,1,0.5,1,2.125,0,,,,,0,2,2,2,,,,,,,,,68.05527616699987,68.05527616699987,68.05527616699987,68.05527616699987,68.05527616699987,68.05527616699987,68.05527616699987,68.05527616699987,67.9767799583334,68.05527616699987,68.05527616699987,68.05527616699987,67.9767799583334,68.05527616699987,68.05527616699987,68.05527616699987,70.15939808400003,74.16436308399989,68.05527616699987,68.05527616699987,73.22933179200004,68.05527616699987,68.05527616699987,68.05527616699987,68.05527616699987,68.51124174999995,69.56674691700005,68.48218245866657,69.52094412499991,70.15939808400003,71.2156849999999,70.12974054166672,,68.05527616699987,73.22933179200004,68.05527616699987,73.22933179200004,73.269906042,73.95625295900004,68.05527616699987,2,1,1.3783899990000918,reldom2_s006,001,2025-01-31_14h33.41.478,Aud-A-Scan_AC,2022.2.5,None,
3,First_Order,1.0,audwhere,stimulus/audwhere_stim/dummy.wav,stimulus/audwhere_stim/dummy.wav,stimulus/audwhere_stim/left_toward_300h.wav,stimulus/audwhere_stim/left_away_280h.wav,stimulus/audwhere_stim/blank_white.png,stimulus/audwhere_stim/direction_box.png,stimulus/audwhere_stim/direction_yes.png,stimulus/audwhere_stim/direction_no.png,None,Direction,None,Side,2,0.0,0,5.125,0,5.125,0,5.125,0,0.0,0.625,0,0,0,0,0,0,0,0,0,0.0,0,0.0,1,0.5,1,2.125,0,,,,,0,3,3,3,,,,,,,,,74.16436308399989,74.16436308399989,74.16436308399989,74.16436308399989,74.16436308399989,74.16436308399989,74.16436308399989,74.16436308399989,74.08958629233337,74.16436308399989,74.16436308399989,74.16436308399989,74.08958629233337,74.16436308399989,74.16436308399989,74.16436308399989,76.27710295899988,,74.16436308399989,74.16436308399989,79.3211712499999,74.16436308399989,74.16436308399989,74.16436308399989,74.16436308399989,74.62196733399992,75.67896937499995,74.59267712566658,,76.27710295899988,77.34132429200008,76.24795675066663,,74.16436308399989,79.3211712499999,74.16436308399989,79.3211712499999,79.36196949999999,80.04805829199995,74.16436308399989,2,1,1.0404252079999878,reldom2_s006,001,2025-01-31_14h33.41.478,Aud-A-Scan_AC,2022.2.5,None,
4,First_Order,1.0,audwhere,stimulus/audwhere_stim/dummy.wav,stimulus/audwhere_stim/dummy.wav,stimulus/audwhere_stim/left_away_270h.wav,stimulus/audwhere_stim/left_toward_290h.wav,stimulus/audwhere_stim/blank_white.png,stimulus/audwhere_stim/side_box.png,stimulus/audwhere_stim/side_yes.png,stimulus/audwhere_stim/side_no.png,None,Side,None,Side,1,0.0,0,5.125,0,5.125,0,5.125,0,0.0,0.625,0,0,0,0,0,0,0,0,0,0.0,0,0.0,1,0.5,1,2.125,0,,,,,0,4,4,4,,,,,,,,,80.258834084,80.258834084,80.258834084,80.258834084,80.258834084,80.258834084,80.258834084,80.258834084,80.18139162533328,80.258834084,80.258834084,80.258834084,80.18139162533328,80.258834084,80.258834084,80.258834084,82.3447101669999,,80.258834084,80.258834084,85.42038604200002,80.258834084,80.258834084,80.258834084,80.258834084,80.72036991699997,81.78758524999989,80.6904841666667,,82.3447101669999,83.4049561249999,82.31484229166655,,80.258834084,85.42038604200002,80.258834084,85.42038604200002,85.46109724999997,86.14856508399998,80.258834084,1,1,0.8627850410000519,reldom2_s006,001,2025-01-31_14h33.41.478,Aud-A-Scan_AC,2022.2.5,None,
0,0.0,None,fixation,stimulus/audwhere_stim/blank_white.png,stimulus/audwhere_stim/blank_white.png,stimulus/audwhat_stim/blank_white.png,stimulus/audwhat_stim/blank_white.png,stimulus/audwhere_stim/blank_white.png,stimulus/audwhere_stim/blank_white.png,stimulus/audwhere_stim/blank_white.png,stimulus/audwhere_stim/blank_white.png,0.0,0.0,0.0,0.0,0,0.0,0,0.0,0,0.0,0,0.0,0,0.0,0.0,0,0,0,0,0,0,0,0,0,0.0,0,0.0,0,0.0,0,0.0,9,,,,,0,5,5,5,,,,,,,,,86.3816455839999,86.3816455839999,86.3816455839999,86.3816455839999,86.3816455839999,86.3816455839999,86.3816455839999,86.3816455839999,86.28189841733331,86.3816455839999,86.3816455839999,86.3816455839999,86.28189841733331,86.3816455839999,86.3816455839999,86.3816455839999,86.3816455839999,86.3816455839999,86.3816455839999,86.3816455839999,86.3816455839999,86.3816455839999,86.3816455839999,86.3816455839999,86.3816455839999,86.3816455839999,86.3816455839999,86.33189841733332,86.3816455839999,86.3816455839999,86.3816455839999,86.33189841733332,86.3816455839999,86.3816455839999,86.3816455839999,86.3816455839999,86.3816455839999,91.60689483400006,91.60689483400006,95.56311266700004,None,0,,reldom2_s006,001,2025-01-31_14h33.41.478,Aud-A-Scan_AC,2022.2.5,None,
5,Second_Order,1.0,audwhere,stimulus/audwhere_stim/left_away_290h.wav,stimulus/audwhere_stim/right_away_300h.wav,stimulus/audwhere_stim/right_toward_290h.wav,stimulus/audwhere_stim/left_toward_300h.wav,stimulus/audwhere_stim/match_blank.png,stimulus/audwhere_stim/match_box.png,stimulus/audwhere_stim/match_yes.png,stimulus/audwhere_stim/match_no.png,1.0,Match,Direction,Direction,1,5.125,0,5.125,0,5.125,0,5.125,0,0.75,0.75,0,0,0,0,0,0,0,0,1,0.5,1,2.125,1,0.5,1,2.125,0,,,,,0,6,6,6,,,,,,,,,95.56311266700004,100.68515524999998,95.56311266700004,95.56311266700004,95.56311266700004,95.56311266700004,96.01919558400004,97.00800574999994,96.0227128756667,97.02129987500007,97.64437620900003,98.64207975,97.65631245866668,98.65000329200006,100.68515524999998,101.512905542,103.58062779199986,,101.512905542,101.512905542,106.66373570899987,101.512905542,101.512905542,101.512905542,101.512905542,101.97228966700004,103.02848225000002,101.94283566666674,,103.58062779199986,104.64027262500008,103.5511363336666,,101.512905542,106.66373570899987,101.512905542,106.66373570899987,106.70465945899991,,101.512905542,1,1,1.6318340410000474,reldom2_s006,001,2025-01-31_14h33.41.478,Aud-A-Scan_AC,2022.2.5,None,
6,Second_Order,1.0,audwhere,stimulus/audwhere_stim/left_away_280h.wav,stimulus/audwhere_stim/right_away_280h.wav,stimulus/audwhere_stim/left_away_300h.wav,stimulus/audwhere_stim/left_toward_280h.wav,stimulus/audwhere_stim/match_blank.png,stimulus/audwhere_stim/match_box.png,stimulus/audwhere_stim/match_yes.png,stimulus/audwhere_stim/match_no.png,2.0,Match,Direction,Side,2,5.125,0,5.125,0,5.125,0,5.125,0,0.625,0.625,0,0,0,0,0,0,0,0,1,0.5,1,2.125,1,0.5,1,2.125,0,,,,,0,7,7,7,,,,,,,,,107.50770595900008,112.62949249999997,107.50770595900008,107.50770595900008,107.50770595900008,107.50770595900008,107.96778637500006,108.96563079199996,107.98023245866672,108.97415666699999,109.58819908400005,110.5857941249999,109.60053558366668,110.59368245899987,112.62949249999997,113.33934062499998,115.40156970899989,,113.33934062499998,113.33934062499998,118.52455787500003,113.33934062499998,113.33934062499998,113.33934062499998,113.33934062499998,113.79716916699999,114.8528732499999,113.76809258366667,114.80723074999992,115.40156970899989,116.458355084,115.37188962566667,,113.33934062499998,118.52455787500003,113.33934062499998,118.52455787500003,118.52455787500003,119.20909299999994,113.33934062499998,2,1,1.218064124999728,reldom2_s006,001,2025-01-31_14h33.41.478,Aud-A-Scan_AC,2022.2.5,None,
0,0.0,None,fixation,stimulus/audwhere_stim/blank_white.png,stimulus/audwhere_stim/blank_white.png,stimulus/audwhat_stim/blank_white.png,stimulus/audwhat_stim/blank_white.png,stimulus/audwhere_stim/blank_white.png,stimulus/audwhere_stim/blank_white.png,stimulus/audwhere_stim/blank_white.png,stimulus/audwhere_stim/blank_white.png,0.0,0.0,0.0,0.0,0,0.0,0,0.0,0,0.0,0,0.0,0,0.0,0.0,0,0,0,0,0,0,0,0,0,0.0,0,0.0,0,0.0,0,0.0,10,,,,,0,8,8,8,,,,,,,,,119.44234925,119.44234925,119.44234925,119.44234925,119.44234925,119.44234925,119.44234925,119.44234925,119.34242633333326,119.44234925,119.44234925,119.44234925,119.34242633333326,119.44234925,119.44234925,119.44234925,119.44234925,119.44234925,119.44234925,119.44234925,119.44234925,119.44234925,119.44234925,119.44234925,119.44234925,119.44234925,119.44234925,119.39242633333328,119.44234925,119.44234925,119.44234925,119.39242633333328,119.44234925,119.44234925,119.44234925,119.44234925,119.44234925,124.67212779200008,124.67212779200008,129.67266008399997,None,0,,reldom2_s006,001,2025-01-31_14h33.41.478,Aud-A-Scan_AC,2022.2.5,None,
7,First_Order,2.0,audwhere,stimulus/audwhere_stim/dummy.wav,stimulus/audwhere_stim/dummy.wav,stimulus/audwhere_stim/left_away_300h.wav,stimulus/audwhere_stim/right_away_300h.wav,stimulus/audwhere_stim/blank_white.png,stimulus/audwhere_stim/side_box.png,stimulus/audwhere_stim/side_yes.png,stimulus/audwhere_stim/side_no.png,None,Side,None,Direction,2,0.0,0,5.125,0,5.125,0,5.125,0,0.0,0.625,0,0,0,0,0,0,0,0,0,0.0,0,0.0,1,0.5,1,2.125,0,,,,,0,9,9,9,,,,,,,,,129.67266008399997,129.67266008399997,129.67266008399997,129.67266008399997,129.67266008399997,129.67266008399997,129.67266008399997,129.67266008399997,129.60159208366662,129.67266008399997,129.67266008399997,129.67266008399997,129.60159208366662,129.67266008399997,129.67266008399997,129.67266008399997,131.753307209,,129.67266008399997,129.67266008399997,134.85669595900004,129.67266008399997,129.67266008399997,129.67266008399997,129.67266008399997,130.13631725000005,131.19753558399998,130.1063970006667,,131.753307209,132.81802854199987,131.7235392086666,,129.67266008399997,134.85669595900004,129.67266008399997,134.85669595900004,134.89722612499986,135.54944695900008,129.67266008399997,2,1,1.0024757069998032,reldom2_s006,001,2025-01-31_14h33.41.478,Aud-A-Scan_AC,2022.2.5,None,
8,First_Order,2.0,audwhere,stimulus/audwhere_stim/dummy.wav,stimulus/audwhere_stim/dummy.wav,stimulus/audwhere_stim/left_away_280h.wav,stimulus/audwhere_stim/right_away_270h.wav,stimulus/audwhere_stim/blank_white.png,stimulus/audwhere_stim/side_box.png,stimulus/audwhere_stim/side_yes.png,stimulus/audwhere_stim/side_no.png,None,Side,None,Direction,2,0.0,0,5.125,0,5.125,0,5.125,0,0.0,0.625,0,0,0,0,0,0,0,0,0,0.0,0,0.0,1,0.5,1,2.125,0,,,,,0,10,10,10,,,,,,,,,135.76213949999988,135.76213949999988,135.76213949999988,135.76213949999988,135.76213949999988,135.76213949999988,135.76213949999988,135.76213949999988,135.68278029233343,135.76213949999988,135.76213949999988,135.76213949999988,135.68278029233343,135.76213949999988,135.76213949999988,135.76213949999988,137.85091024999997,,135.76213949999988,135.76213949999988,140.91363779199992,135.76213949999988,135.76213949999988,135.76213949999988,135.76213949999988,136.2267630419999,137.29337870900008,136.19602275066657,,137.85091024999997,138.92014704200005,137.82063441666676,,135.76213949999988,140.91363779199992,135.76213949999988,140.91363779199992,140.9550187089999,141.60912295899993,135.76213949999988,2,1,0.6781224579999616,reldom2_s006,001,2025-01-31_14h33.41.478,Aud-A-Scan_AC,2022.2.5,None,
9,First_Order,2.0,audwhere,stimulus/audwhere_stim/dummy.wav,stimulus/audwhere_stim/dummy.wav,stimulus/audwhere_stim/left_away_280h.wav,stimulus/audwhere_stim/right_away_300h.wav,stimulus/audwhere_stim/blank_white.png,stimulus/audwhere_stim/direction_box.png,stimulus/audwhere_stim/direction_yes.png,stimulus/audwhere_stim/direction_no.png,None,Direction,None,Direction,1,0.0,0,5.125,0,5.125,0,5.125,0,0.0,0.625,0,0,0,0,0,0,0,0,0,0.0,0,0.0,1,0.5,1,2.125,0,,,,,0,11,11,11,,,,,,,,,141.862128709,141.862128709,141.862128709,141.862128709,141.862128709,141.862128709,141.862128709,141.862128709,141.78366825033336,141.862128709,141.862128709,141.862128709,141.78366825033336,141.862128709,141.862128709,141.862128709,143.96904045899987,,141.862128709,141.862128709,147.0134022919999,141.862128709,141.862128709,141.862128709,141.862128709,142.33250558400005,143.40649033399995,142.30201062566655,,143.96904045899987,145.04442737499994,143.93837979166668,,141.862128709,147.0134022919999,141.862128709,147.0134022919999,147.05512875,147.71575424999992,141.862128709,1,1,1.1530888740001046,reldom2_s006,001,2025-01-31_14h33.41.478,Aud-A-Scan_AC,2022.2.5,None,
10,First_Order,2.0,audwhere,stimulus/audwhere_stim/dummy.wav,stimulus/audwhere_stim/dummy.wav,stimulus/audwhere_stim/right_away_270h.wav,stimulus/audwhere_stim/right_toward_300h.wav,stimulus/audwhere_stim/blank_white.png,stimulus/audwhere_stim/side_box.png,stimulus/audwhere_stim/side_yes.png,stimulus/audwhere_stim/side_no.png,None,Side,None,Side,1,0.0,0,5.125,0,5.125,0,5.125,0,0.0,0.625,0,0,0,0,0,0,0,0,0,0.0,0,0.0,1,0.5,1,2.125,0,,,,,0,12,12,12,,,,,,,,,147.97352762499986,147.97352762499986,147.97352762499986,147.97352762499986,147.97352762499986,147.97352762499986,147.97352762499986,147.97352762499986,147.89007925033334,147.97352762499986,147.97352762499986,147.97352762499986,147.89007925033334,147.97352762499986,147.97352762499986,147.97352762499986,150.06900558400002,154.12031791699997,147.97352762499986,147.97352762499986,153.14564933399993,147.97352762499986,147.97352762499986,147.97352762499986,147.97352762499986,148.44132124999987,149.511067917,148.41094425066674,,150.06900558400002,151.14477725000006,150.03906150066658,,147.97352762499986,153.14564933399993,147.97352762499986,153.14564933399993,153.18674262500008,153.84355887499987,147.97352762499986,1,1,0.8530187500000466,reldom2_s006,001,2025-01-31_14h33.41.478,Aud-A-Scan_AC,2022.2.5,None,
0,0.0,None,fixation,stimulus/audwhere_stim/blank_white.png,stimulus/audwhere_stim/blank_white.png,stimulus/audwhat_stim/blank_white.png,stimulus/audwhat_stim/blank_white.png,stimulus/audwhere_stim/blank_white.png,stimulus/audwhere_stim/blank_white.png,stimulus/audwhere_stim/blank_white.png,stimulus/audwhere_stim/blank_white.png,0.0,0.0,0.0,0.0,0,0.0,0,0.0,0,0.0,0,0.0,0,0.0,0.0,0,0,0,0,0,0,0,0,0,0.0,0,0.0,0,0.0,0,0.0,8,,,,,0,13,13,13,,,,,,,,,154.12031791699997,154.12031791699997,154.12031791699997,154.12031791699997,154.12031791699997,154.12031791699997,154.12031791699997,154.12031791699997,154.01745254233325,154.12031791699997,154.12031791699997,154.12031791699997,154.01745254233325,154.12031791699997,154.12031791699997,154.12031791699997,154.12031791699997,154.12031791699997,154.12031791699997,154.12031791699997,154.12031791699997,154.12031791699997,154.12031791699997,154.12031791699997,154.12031791699997,154.12031791699997,154.12031791699997,154.06745254233323,154.12031791699997,154.12031791699997,154.12031791699997,154.06745254233323,154.12031791699997,154.12031791699997,154.12031791699997,154.12031791699997,154.12031791699997,159.32744991699997,159.32744991699997,162.25844974999995,None,0,,reldom2_s006,001,2025-01-31_14h33.41.478,Aud-A-Scan_AC,2022.2.5,None,
11,Second_Order,2.0,audwhere,stimulus/audwhere_stim/left_away_280h.wav,stimulus/audwhere_stim/left_toward_280h.wav,stimulus/audwhere_stim/right_toward_280h.wav,stimulus/audwhere_stim/left_toward_270h.wav,stimulus/audwhere_stim/match_blank.png,stimulus/audwhere_stim/match_box.png,stimulus/audwhere_stim/match_yes.png,stimulus/audwhere_stim/match_no.png,2.0,Match,Side,Direction,2,5.125,0,5.125,0,5.125,0,5.125,0,0.75,0.75,0,0,0,0,0,0,0,0,1,0.5,1,2.125,1,0.5,1,2.125,0,,,,,0,14,14,14,,,,,,,,,162.25844974999995,167.3716489589999,162.25844974999995,162.25844974999995,162.25844974999995,162.25844974999995,162.71018574999994,163.70876708399987,162.72275329166658,163.71664062500008,164.3313351249999,165.32933258399999,164.34347875066672,165.3370017919999,167.3716489589999,168.20236416700004,170.28845095899987,,168.20236416700004,168.20236416700004,173.35337366699991,168.20236416700004,168.20236416700004,168.20236416700004,168.20236416700004,168.665362125,169.732798042,168.63546529166663,,170.28845095899987,171.35952475,170.25841720866654,,168.20236416700004,173.35337366699991,168.20236416700004,173.35337366699991,173.39394549999997,,168.20236416700004,2,1,0.9857702489998701,reldom2_s006,001,2025-01-31_14h33.41.478,Aud-A-Scan_AC,2022.2.5,None,
12,Second_Order,2.0,audwhere,stimulus/audwhere_stim/left_away_300h.wav,stimulus/audwhere_stim/right_away_270h.wav,stimulus/audwhere_stim/left_toward_280h.wav,stimulus/audwhere_stim/right_toward_280h.wav,stimulus/audwhere_stim/match_blank.png,stimulus/audwhere_stim/match_box.png,stimulus/audwhere_stim/match_yes.png,stimulus/audwhere_stim/match_no.png,1.0,Match,Direction,Direction,1,5.125,0,5.125,0,5.125,0,5.125,0,0.625,0.625,0,0,0,0,0,0,0,0,1,0.5,1,2.125,1,0.5,1,2.125,0,,,,,0,15,15,15,,,,,,,,,174.204022292,179.32798350000007,174.204022292,174.204022292,174.204022292,174.204022292,174.6548574169999,175.65240508400007,174.66734833366675,175.66021966699986,176.28791816700004,177.27667625000004,176.29191962566668,177.28962287500008,179.32798350000007,180.0442425419999,182.11757395900008,,180.0442425419999,180.0442425419999,185.21619854200003,180.0442425419999,180.0442425419999,180.0442425419999,180.0442425419999,180.50228825,181.563675417,180.4734387506667,,182.11757395900008,183.183248542,182.08740650066673,,180.0442425419999,185.21619854200003,180.0442425419999,185.21619854200003,185.25650691700002,185.90836758399996,180.0442425419999,1,1,1.0608178749998842,reldom2_s006,001,2025-01-31_14h33.41.478,Aud-A-Scan_AC,2022.2.5,None,
0,0.0,None,fixation,stimulus/audwhere_stim/blank_white.png,stimulus/audwhere_stim/blank_white.png,stimulus/audwhat_stim/blank_white.png,stimulus/audwhat_stim/blank_white.png,stimulus/audwhere_stim/blank_white.png,stimulus/audwhere_stim/blank_white.png,stimulus/audwhere_stim/blank_white.png,stimulus/audwhere_stim/blank_white.png,0.0,0.0,0.0,0.0,0,0.0,0,0.0,0,0.0,0,0.0,0,0.0,0.0,0,0,0,0,0,0,0,0,0,0.0,0,0.0,0,0.0,0,0.0,8,,,,,0,16,16,16,,,,,,,,,186.14156695899987,186.14156695899987,186.14156695899987,186.14156695899987,186.14156695899987,186.14156695899987,186.14156695899987,186.14156695899987,186.04170091733332,186.14156695899987,186.14156695899987,186.14156695899987,186.04170091733332,186.14156695899987,186.14156695899987,186.14156695899987,186.14156695899987,186.14156695899987,186.14156695899987,186.14156695899987,186.14156695899987,186.14156695899987,186.14156695899987,186.14156695899987,186.14156695899987,186.14156695899987,186.14156695899987,186.0917009173333,186.14156695899987,186.14156695899987,186.14156695899987,186.0917009173333,186.14156695899987,186.14156695899987,186.14156695899987,186.14156695899987,186.14156695899987,191.34630741699993,191.34630741699993,194.4125509999999,None,0,,reldom2_s006,001,2025-01-31_14h33.41.478,Aud-A-Scan_AC,2022.2.5,None,
13,First_Order,3.0,audwhat,stimulus/audwhat_stim/dummy.wav,stimulus/audwhat_stim/dummy.wav,stimulus/audwhat_stim/percussion xylophone_high-pitch_F_loud.wav,stimulus/audwhat_stim/percussion mallet_low-pitch_Dtri_loud.wav,stimulus/audwhat_stim/blank_white.png,stimulus/audwhat_stim/category_box.png,stimulus/audwhat_stim/category_yes.png,stimulus/audwhat_stim/category_no.png,None,Category,None,Category,1,0.0,0,5.125,0,5.125,0,5.125,0,0.0,0.625,0,0,0,0,0,0,0,0,0,0.0,0,0.0,1,0.5,1,2.125,0,,,,,0,17,17,17,,,,,,,,,194.4125509999999,194.4125509999999,194.4125509999999,194.4125509999999,194.4125509999999,194.4125509999999,194.4125509999999,194.4125509999999,194.33908154166664,194.4125509999999,194.4125509999999,194.4125509999999,194.33908154166664,194.4125509999999,194.4125509999999,194.4125509999999,196.52573141699986,,194.4125509999999,194.4125509999999,199.56588904199998,194.4125509999999,194.4125509999999,194.4125509999999,194.4125509999999,194.88149120899993,195.91738470899986,194.85073700066667,195.91738470899986,196.52573141699986,197.557057709,196.49498208366666,,194.4125509999999,199.56588904199998,194.4125509999999,199.56588904199998,199.60671420900007,200.26225933399996,194.4125509999999,2,0,0.9615786249999019,reldom2_s006,001,2025-01-31_14h33.41.478,Aud-A-Scan_AC,2022.2.5,None,
14,First_Order,3.0,audwhat,stimulus/audwhat_stim/dummy.wav,stimulus/audwhat_stim/dummy.wav,stimulus/audwhat_stim/string cello_low-pitch_Ftri_loud.wav,stimulus/audwhat_stim/string viola_high-pitch_F_loud.wav,stimulus/audwhat_stim/blank_white.png,stimulus/audwhat_stim/category_box.png,stimulus/audwhat_stim/category_yes.png,stimulus/audwhat_stim/category_no.png,None,Category,None,Category,1,0.0,0,5.125,0,5.125,0,5.125,0,0.0,0.625,0,0,0,0,0,0,0,0,0,0.0,0,0.0,1,0.5,1,2.125,0,,,,,0,18,18,18,,,,,,,,,200.5172614999999,200.5172614999999,200.5172614999999,200.5172614999999,200.5172614999999,200.5172614999999,200.5172614999999,200.5172614999999,200.43649258333326,200.5172614999999,200.5172614999999,200.5172614999999,200.43649258333326,200.5172614999999,200.5172614999999,200.5172614999999,202.62424904199997,206.6297602919999,200.5172614999999,200.5172614999999,205.67156920899993,200.5172614999999,200.5172614999999,200.5172614999999,200.5172614999999,200.984176209,202.01629562499988,200.9538248336667,,202.62424904199997,203.66234375,202.59393450066662,,200.5172614999999,205.67156920899993,200.5172614999999,205.67156920899993,205.7127526669999,206.374416375,200.5172614999999,1,1,0.6582661659997484,reldom2_s006,001,2025-01-31_14h33.41.478,Aud-A-Scan_AC,2022.2.5,None,
15,First_Order,3.0,audwhat,stimulus/audwhat_stim/dummy.wav,stimulus/audwhat_stim/dummy.wav,stimulus/audwhat_stim/string viola_low-pitch_D_loud.wav,stimulus/audwhat_stim/percussion mallet_low-pitch_D_loud.wav,stimulus/audwhat_stim/blank_white.png,stimulus/audwhat_stim/pitch_box.png,stimulus/audwhat_stim/pitch_yes.png,stimulus/audwhat_stim/pitch_no.png,None,Pitch,None,Pitch,1,0.0,0,5.125,0,5.125,0,5.125,0,0.0,0.625,0,0,0,0,0,0,0,0,0,0.0,0,0.0,1,0.5,1,2.125,0,,,,,0,19,19,19,,,,,,,,,206.6297602919999,206.6297602919999,206.6297602919999,206.6297602919999,206.6297602919999,206.6297602919999,206.6297602919999,206.6297602919999,206.54870795833327,206.6297602919999,206.6297602919999,206.6297602919999,206.54870795833327,206.6297602919999,206.6297602919999,206.6297602919999,208.73546537499988,,206.6297602919999,206.6297602919999,211.8204680839999,206.6297602919999,206.6297602919999,206.6297602919999,206.6297602919999,207.09767149999993,208.128618834,207.06779245866667,,208.73546537499988,209.76726537500008,208.70485766666664,,206.6297602919999,211.8204680839999,206.6297602919999,211.8204680839999,211.8204680839999,212.477805042,206.6297602919999,2,0,0.8645445829999971,reldom2_s006,001,2025-01-31_14h33.41.478,Aud-A-Scan_AC,2022.2.5,None,
16,First_Order,3.0,audwhat,stimulus/audwhat_stim/dummy.wav,stimulus/audwhat_stim/dummy.wav,stimulus/audwhat_stim/string cello_low-pitch_D_loud.wav,stimulus/audwhat_stim/string viola_high-pitch_Dtri_loud.wav,stimulus/audwhat_stim/blank_white.png,stimulus/audwhat_stim/pitch_box.png,stimulus/audwhat_stim/pitch_yes.png,stimulus/audwhat_stim/pitch_no.png,None,Pitch,None,Category,2,0.0,0,5.125,0,5.125,0,5.125,0,0.0,0.625,0,0,0,0,0,0,0,0,0,0.0,0,0.0,1,0.5,1,2.125,0,,,,,0,20,20,20,,,,,,,,,212.73264474999996,212.73264474999996,212.73264474999996,212.73264474999996,212.73264474999996,212.73264474999996,212.73264474999996,212.73264474999996,212.65174637533337,212.73264474999996,212.73264474999996,212.73264474999996,212.65174637533337,212.73264474999996,212.73264474999996,212.73264474999996,214.83521025000005,,212.73264474999996,212.73264474999996,217.88282983399995,212.73264474999996,212.73264474999996,212.73264474999996,212.73264474999996,213.20007833399995,214.23054337500002,213.1695293756666,,214.83521025000005,215.871841334,214.80511283366675,,212.73264474999996,217.88282983399995,212.73264474999996,217.88282983399995,217.92427170899987,218.58555825000008,212.73264474999996,2,1,0.9678114579999146,reldom2_s006,001,2025-01-31_14h33.41.478,Aud-A-Scan_AC,2022.2.5,None,
0,0.0,None,fixation,stimulus/audwhere_stim/blank_white.png,stimulus/audwhere_stim/blank_white.png,stimulus/audwhat_stim/blank_white.png,stimulus/audwhat_stim/blank_white.png,stimulus/audwhere_stim/blank_white.png,stimulus/audwhere_stim/blank_white.png,stimulus/audwhere_stim/blank_white.png,stimulus/audwhere_stim/blank_white.png,0.0,0.0,0.0,0.0,0,0.0,0,0.0,0,0.0,0,0.0,0,0.0,0.0,0,0,0,0,0,0,0,0,0,0.0,0,0.0,0,0.0,0,0.0,8,,,,,0,21,21,21,,,,,,,,,218.862579417,218.862579417,218.862579417,218.862579417,218.862579417,218.862579417,218.862579417,218.862579417,218.75991725033342,218.862579417,218.862579417,218.862579417,218.75991725033342,218.862579417,218.862579417,218.862579417,218.862579417,218.862579417,218.862579417,218.862579417,218.862579417,218.862579417,218.862579417,218.862579417,218.862579417,218.862579417,218.862579417,218.8099172503334,218.862579417,218.862579417,218.862579417,218.8099172503334,218.862579417,218.862579417,218.862579417,218.862579417,218.862579417,224.088172709,224.088172709,227.03825591700001,None,0,,reldom2_s006,001,2025-01-31_14h33.41.478,Aud-A-Scan_AC,2022.2.5,None,
17,Second_Order,3.0,audwhat,stimulus/audwhat_stim/percussion mallet_high-pitch_F_loud.wav,stimulus/audwhat_stim/string viola_high-pitch_F_loud.wav,stimulus/audwhat_stim/string cello_low-pitch_Ftri_loud.wav,stimulus/audwhat_stim/string cello_high-pitch_Dtri_loud.wav,stimulus/audwhere_stim/match_blank.png,stimulus/audwhat_stim/match_box.png,stimulus/audwhere_stim/match_yes.png,stimulus/audwhere_stim/match_no.png,2.0,Match,Pitch,Category,2,5.125,0,5.125,0,5.125,0,5.125,0,0.75,0.75,0,0,0,0,0,0,0,0,1,0.5,1,2.125,1,0.5,1,2.125,0,,,,,0,22,22,22,,,,,,,,,227.03825591700001,232.15548620899995,227.03825591700001,227.03825591700001,227.03825591700001,227.03825591700001,227.494704792,228.49144745900003,227.50575066666673,228.49913320899987,229.11468504200002,230.11183729200002,229.12618658366662,,232.15548620899995,232.98567083400008,235.0811349999999,,232.98567083400008,232.98567083400008,238.1656667919999,232.98567083400008,232.98567083400008,232.98567083400008,232.98567083400008,233.447793584,234.52236337499994,233.41775208366656,,235.0811349999999,236.15693525000006,235.05144345866668,,232.98567083400008,238.1656667919999,232.98567083400008,238.1656667919999,238.1656667919999,,232.98567083400008,2,1,1.136869458000092,reldom2_s006,001,2025-01-31_14h33.41.478,Aud-A-Scan_AC,2022.2.5,None,
18,Second_Order,3.0,audwhat,stimulus/audwhat_stim/string viola_low-pitch_F_loud.wav,stimulus/audwhat_stim/percussion mallet_low-pitch_F_loud.wav,stimulus/audwhat_stim/percussion mallet_high-pitch_Ftri_loud.wav,stimulus/audwhat_stim/string cello_high-pitch_Ftri_loud.wav,stimulus/audwhere_stim/match_blank.png,stimulus/audwhat_stim/match_box.png,stimulus/audwhere_stim/match_yes.png,stimulus/audwhere_stim/match_no.png,1.0,Match,Pitch,Pitch,1,5.125,0,5.125,0,5.125,0,5.125,0,0.625,0.625,0,0,0,0,0,0,0,0,1,0.5,1,2.125,1,0.5,1,2.125,0,,,,,0,23,23,23,,,,,,,,,238.98222554199992,244.09946008399993,238.98222554199992,238.98222554199992,238.98222554199992,238.98222554199992,239.437670625,240.43555108400005,239.4500643336667,,241.05848941699992,242.05599745900008,241.07062512566657,242.06395016700003,244.09946008399993,244.8099031669999,246.89185620900003,,244.8099031669999,244.8099031669999,249.95843516700006,244.8099031669999,244.8099031669999,244.8099031669999,244.8099031669999,245.27268741700004,246.33756208399996,245.24272675066666,,246.89185620900003,247.96478279200005,246.86235450066673,,244.8099031669999,249.95843516700006,244.8099031669999,249.95843516700006,249.99945208400004,250.65081691699993,244.8099031669999,1,1,0.8337254579998898,reldom2_s006,001,2025-01-31_14h33.41.478,Aud-A-Scan_AC,2022.2.5,None,
0,0.0,None,fixation,stimulus/audwhere_stim/blank_white.png,stimulus/audwhere_stim/blank_white.png,stimulus/audwhat_stim/blank_white.png,stimulus/audwhat_stim/blank_white.png,stimulus/audwhere_stim/blank_white.png,stimulus/audwhere_stim/blank_white.png,stimulus/audwhere_stim/blank_white.png,stimulus/audwhere_stim/blank_white.png,0.0,0.0,0.0,0.0,0,0.0,0,0.0,0,0.0,0,0.0,0,0.0,0.0,0,0,0,0,0,0,0,0,0,0.0,0,0.0,0,0.0,0,0.0,9,,,,,0,24,24,24,,,,,,,,,250.93193025000005,250.93193025000005,250.93193025000005,250.93193025000005,250.93193025000005,250.93193025000005,250.93193025000005,250.93193025000005,250.8251051253334,250.93193025000005,250.93193025000005,250.93193025000005,250.8251051253334,250.93193025000005,250.93193025000005,250.93193025000005,250.93193025000005,250.93193025000005,250.93193025000005,250.93193025000005,250.93193025000005,250.93193025000005,250.93193025000005,250.93193025000005,250.93193025000005,250.93193025000005,250.93193025000005,250.89177179200007,250.93193025000005,250.93193025000005,250.93193025000005,250.89177179200007,250.93193025000005,250.93193025000005,250.93193025000005,250.93193025000005,250.93193025000005,256.114092625,256.114092625,260.20750254199993,None,0,,reldom2_s006,001,2025-01-31_14h33.41.478,Aud-A-Scan_AC,2022.2.5,None,
19,First_Order,4.0,audwhat,stimulus/audwhat_stim/dummy.wav,stimulus/audwhat_stim/dummy.wav,stimulus/audwhat_stim/percussion mallet_low-pitch_D_loud.wav,stimulus/audwhat_stim/string viola_low-pitch_D_loud.wav,stimulus/audwhat_stim/blank_white.png,stimulus/audwhat_stim/category_box.png,stimulus/audwhat_stim/category_yes.png,stimulus/audwhat_stim/category_no.png,None,Category,None,Pitch,2,0.0,0,5.125,0,5.125,0,5.125,0,0.0,0.625,0,0,0,0,0,0,0,0,0,0.0,0,0.0,1,0.5,1,2.125,0,,,,,0,25,25,25,,,,,,,,,260.20750254199993,260.20750254199993,260.20750254199993,260.20750254199993,260.20750254199993,260.20750254199993,260.20750254199993,260.20750254199993,260.1330452916667,260.20750254199993,260.20750254199993,260.20750254199993,260.1330452916667,260.20750254199993,260.20750254199993,260.20750254199993,262.3225407499999,,260.20750254199993,260.20750254199993,265.3784862499999,260.20750254199993,260.20750254199993,260.20750254199993,260.20750254199993,260.67755533399986,261.71388716699994,260.6471689166667,,262.3225407499999,263.35672216700004,262.29255362566664,,260.20750254199993,265.3784862499999,260.20750254199993,265.3784862499999,265.41975691699986,266.0831928749999,260.20750254199993,2,1,1.3390618329997324,reldom2_s006,001,2025-01-31_14h33.41.478,Aud-A-Scan_AC,2022.2.5,None,
20,First_Order,4.0,audwhat,stimulus/audwhat_stim/dummy.wav,stimulus/audwhat_stim/dummy.wav,stimulus/audwhat_stim/percussion xylophone_high-pitch_Dtri_loud.wav,stimulus/audwhat_stim/string cello_high-pitch_Dtri_loud.wav,stimulus/audwhat_stim/blank_white.png,stimulus/audwhat_stim/pitch_box.png,stimulus/audwhat_stim/pitch_yes.png,stimulus/audwhat_stim/pitch_no.png,None,Pitch,None,Pitch,1,0.0,0,5.125,0,5.125,0,5.125,0,0.0,0.625,0,0,0,0,0,0,0,0,0,0.0,0,0.0,1,0.5,1,2.125,0,,,,,0,26,26,26,,,,,,,,,266.29813687499995,266.29813687499995,266.29813687499995,266.29813687499995,266.29813687499995,266.29813687499995,266.29813687499995,266.29813687499995,266.2165262083332,266.29813687499995,266.29813687499995,266.29813687499995,266.2165262083332,266.29813687499995,266.29813687499995,266.29813687499995,268.4071241669999,,266.29813687499995,266.29813687499995,271.45023387499987,266.29813687499995,266.29813687499995,266.29813687499995,266.29813687499995,266.76668766700004,267.8005230419999,266.7361395836667,267.8005230419999,268.4071241669999,269.438729084,268.37702395866654,,266.29813687499995,271.45023387499987,266.29813687499995,271.45023387499987,271.49155470899996,272.1526717500001,266.29813687499995,1,1,0.9384699160000309,reldom2_s006,001,2025-01-31_14h33.41.478,Aud-A-Scan_AC,2022.2.5,None,
21,First_Order,4.0,audwhat,stimulus/audwhat_stim/dummy.wav,stimulus/audwhat_stim/dummy.wav,stimulus/audwhat_stim/string viola_low-pitch_D_loud.wav,stimulus/audwhat_stim/percussion mallet_low-pitch_D_loud.wav,stimulus/audwhat_stim/blank_white.png,stimulus/audwhat_stim/category_box.png,stimulus/audwhat_stim/category_yes.png,stimulus/audwhat_stim/category_no.png,None,Category,None,Pitch,2,0.0,0,5.125,0,5.125,0,5.125,0,0.0,0.625,0,0,0,0,0,0,0,0,0,0.0,0,0.0,1,0.5,1,2.125,0,,,,,0,27,27,27,,,,,,,,,272.40881575000003,272.40881575000003,272.40881575000003,272.40881575000003,272.40881575000003,272.40881575000003,272.40881575000003,272.40881575000003,272.32702800033337,272.40881575000003,272.40881575000003,272.40881575000003,272.32702800033337,272.40881575000003,272.40881575000003,272.40881575000003,274.4805254170001,,272.40881575000003,272.40881575000003,277.5900791249999,272.40881575000003,272.40881575000003,272.40881575000003,272.40881575000003,272.878912375,273.9175137089999,272.84841654166667,,274.4805254170001,275.521966709,274.4500757916667,,272.40881575000003,277.5900791249999,272.40881575000003,277.5900791249999,277.63191741700007,278.2947682920001,272.40881575000003,2,1,0.6041927909998321,reldom2_s006,001,2025-01-31_14h33.41.478,Aud-A-Scan_AC,2022.2.5,None,
22,First_Order,4.0,audwhat,stimulus/audwhat_stim/dummy.wav,stimulus/audwhat_stim/dummy.wav,stimulus/audwhat_stim/string viola_low-pitch_Ftri_loud.wav,stimulus/audwhat_stim/string cello_high-pitch_D_loud.wav,stimulus/audwhat_stim/blank_white.png,stimulus/audwhat_stim/pitch_box.png,stimulus/audwhat_stim/pitch_yes.png,stimulus/audwhat_stim/pitch_no.png,None,Pitch,None,Category,2,0.0,0,5.125,0,5.125,0,5.125,0,0.0,0.625,0,0,0,0,0,0,0,0,0,0.0,0,0.0,1,0.5,1,2.125,0,,,,,0,28,28,28,,,,,,,,,278.5104685419999,278.5104685419999,278.5104685419999,278.5104685419999,278.5104685419999,278.5104685419999,278.5104685419999,278.5104685419999,278.4281016253334,278.5104685419999,278.5104685419999,278.5104685419999,278.4281016253334,278.5104685419999,278.5104685419999,278.5104685419999,280.62123970900006,284.65261195900007,278.5104685419999,278.5104685419999,283.67561654199994,278.5104685419999,278.5104685419999,278.5104685419999,278.5104685419999,278.9804457089999,280.01304170899994,278.9502190836665,,280.62123970900006,281.6571040419999,280.5909645836666,,278.5104685419999,283.67561654199994,278.5104685419999,283.67561654199994,283.716621542,284.374034792,278.5104685419999,1,0,1.2297237489999588,reldom2_s006,001,2025-01-31_14h33.41.478,Aud-A-Scan_AC,2022.2.5,None,
0,0.0,None,fixation,stimulus/audwhere_stim/blank_white.png,stimulus/audwhere_stim/blank_white.png,stimulus/audwhat_stim/blank_white.png,stimulus/audwhat_stim/blank_white.png,stimulus/audwhere_stim/blank_white.png,stimulus/audwhere_stim/blank_white.png,stimulus/audwhere_stim/blank_white.png,stimulus/audwhere_stim/blank_white.png,0.0,0.0,0.0,0.0,0,0.0,0,0.0,0,0.0,0,0.0,0,0.0,0.0,0,0,0,0,0,0,0,0,0,0.0,0,0.0,0,0.0,0,0.0,10,,,,,0,29,29,29,,,,,,,,,284.65261195900007,284.65261195900007,284.65261195900007,284.65261195900007,284.65261195900007,284.65261195900007,284.65261195900007,284.65261195900007,284.5483028333332,284.65261195900007,284.65261195900007,284.65261195900007,284.5483028333332,284.65261195900007,284.65261195900007,284.65261195900007,284.65261195900007,284.65261195900007,284.65261195900007,284.65261195900007,284.65261195900007,284.65261195900007,284.65261195900007,284.65261195900007,284.65261195900007,284.65261195900007,284.65261195900007,284.5983028333332,284.65261195900007,284.65261195900007,284.65261195900007,284.5983028333332,284.65261195900007,284.65261195900007,284.65261195900007,284.65261195900007,284.65261195900007,289.83469108400004,289.83469108400004,294.8339539169999,None,0,,reldom2_s006,001,2025-01-31_14h33.41.478,Aud-A-Scan_AC,2022.2.5,None,
23,Second_Order,4.0,audwhat,stimulus/audwhat_stim/string cello_low-pitch_F_loud.wav,stimulus/audwhat_stim/string cello_high-pitch_Ftri_loud.wav,stimulus/audwhat_stim/percussion mallet_high-pitch_Ftri_loud.wav,stimulus/audwhat_stim/percussion mallet_low-pitch_F_loud.wav,stimulus/audwhere_stim/match_blank.png,stimulus/audwhat_stim/match_box.png,stimulus/audwhere_stim/match_yes.png,stimulus/audwhere_stim/match_no.png,1.0,Match,Category,Category,1,5.125,0,5.125,0,5.125,0,5.125,0,0.75,0.75,0,0,0,0,0,0,0,0,1,0.5,1,2.125,1,0.5,1,2.125,0,,,,,0,30,30,30,,,,,,,,,294.8339539169999,299.9563215840001,294.8339539169999,294.8339539169999,294.8339539169999,294.8339539169999,295.28309595899987,296.2809521249999,295.2955970416667,,296.9160474999999,297.904695125,296.9199082916666,,299.9563215840001,300.79002549999996,302.846823417,306.79635908399996,300.79002549999996,300.79002549999996,305.9792152089999,300.79002549999996,300.79002549999996,300.79002549999996,300.79002549999996,301.25563533399986,302.287525792,301.2254242506667,,302.846823417,303.881010542,302.81687841666667,,300.79002549999996,305.9792152089999,300.79002549999996,305.9792152089999,305.9792152089999,,300.79002549999996,1,1,0.7479000410000936,reldom2_s006,001,2025-01-31_14h33.41.478,Aud-A-Scan_AC,2022.2.5,None,
24,Second_Order,4.0,audwhat,stimulus/audwhat_stim/percussion xylophone_high-pitch_Dtri_loud.wav,stimulus/audwhat_stim/percussion mallet_low-pitch_D_loud.wav,stimulus/audwhat_stim/string cello_low-pitch_Ftri_loud.wav,stimulus/audwhat_stim/string viola_high-pitch_D_loud.wav,stimulus/audwhere_stim/match_blank.png,stimulus/audwhat_stim/match_box.png,stimulus/audwhere_stim/match_yes.png,stimulus/audwhere_stim/match_no.png,1.0,Match,Category,Category,1,5.125,0,5.125,0,5.125,0,5.125,0,0.625,0.625,0,0,0,0,0,0,0,0,1,0.5,1,2.125,1,0.5,1,2.125,0,,,,,0,31,31,31,,,,,,,,,306.79635908399996,311.917375709,306.79635908399996,306.79635908399996,306.79635908399996,306.79635908399996,307.2437613750001,308.24203620899993,307.25626862566673,308.2497807919999,308.87691629200003,309.866073209,308.8810634166666,309.8790711249999,311.917375709,312.63081895899995,314.72009750000007,318.76165104200004,312.63081895899995,312.63081895899995,317.791935792,312.63081895899995,312.63081895899995,312.63081895899995,312.63081895899995,313.09371258400006,314.15982325000004,313.06368245866656,,314.72009750000007,315.79299245900006,314.68973683366653,,312.63081895899995,317.791935792,312.63081895899995,317.791935792,317.833169084,318.48595558400007,312.63081895899995,1,1,0.7308025830000133,reldom2_s006,001,2025-01-31_14h33.41.478,Aud-A-Scan_AC,2022.2.5,None,
0,0.0,None,fixation,stimulus/audwhere_stim/blank_white.png,stimulus/audwhere_stim/blank_white.png,stimulus/audwhat_stim/blank_white.png,stimulus/audwhat_stim/blank_white.png,stimulus/audwhere_stim/blank_white.png,stimulus/audwhere_stim/blank_white.png,stimulus/audwhere_stim/blank_white.png,stimulus/audwhere_stim/blank_white.png,0.0,0.0,0.0,0.0,0,0.0,0,0.0,0,0.0,0,0.0,0,0.0,0.0,0,0,0,0,0,0,0,0,0,0.0,0,0.0,0,0.0,0,0.0,9,,,,,0,32,32,32,,,,,,,,,318.76165104200004,318.76165104200004,318.76165104200004,318.76165104200004,318.76165104200004,318.76165104200004,318.76165104200004,318.76165104200004,318.6601513333334,318.76165104200004,318.76165104200004,318.76165104200004,318.6601513333334,318.76165104200004,318.76165104200004,318.76165104200004,318.76165104200004,318.76165104200004,318.76165104200004,318.76165104200004,318.76165104200004,318.76165104200004,318.76165104200004,318.76165104200004,318.76165104200004,318.76165104200004,318.76165104200004,318.7101513333334,318.76165104200004,318.76165104200004,318.76165104200004,318.7101513333334,318.76165104200004,318.76165104200004,318.76165104200004,318.76165104200004,318.76165104200004,323.95109541700003,323.95109541700003,328.00848700000006,None,0,,reldom2_s006,001,2025-01-31_14h33.41.478,Aud-A-Scan_AC,2022.2.5,None,
25,First_Order,5.0,audwhere,stimulus/audwhere_stim/dummy.wav,stimulus/audwhere_stim/dummy.wav,stimulus/audwhere_stim/right_away_300h.wav,stimulus/audwhere_stim/right_toward_300h.wav,stimulus/audwhere_stim/blank_white.png,stimulus/audwhere_stim/direction_box.png,stimulus/audwhere_stim/direction_yes.png,stimulus/audwhere_stim/direction_no.png,None,Direction,None,Side,2,0.0,0,5.125,0,5.125,0,5.125,0,0.0,0.625,0,0,0,0,0,0,0,0,0,0.0,0,0.0,1,0.5,1,2.125,0,,,,,0,33,33,33,,,,,,,,,328.00848700000006,328.00848700000006,328.00848700000006,328.00848700000006,328.00848700000006,328.00848700000006,328.00848700000006,328.00848700000006,327.93492825066653,328.00848700000006,328.00848700000006,328.00848700000006,327.93492825066653,328.00848700000006,328.00848700000006,328.00848700000006,330.12300108399995,334.136625417,328.00848700000006,328.00848700000006,333.17944866699986,328.00848700000006,328.00848700000006,328.00848700000006,328.00848700000006,328.47941341699993,329.51286341700006,328.4487500006667,,330.12300108399995,331.15856133400007,330.09270529166656,,328.00848700000006,333.17944866699986,328.00848700000006,333.17944866699986,333.22051895899995,333.8802559169999,328.00848700000006,2,1,1.4957745819999673,reldom2_s006,001,2025-01-31_14h33.41.478,Aud-A-Scan_AC,2022.2.5,None,
26,First_Order,5.0,audwhere,stimulus/audwhere_stim/dummy.wav,stimulus/audwhere_stim/dummy.wav,stimulus/audwhere_stim/right_away_280h.wav,stimulus/audwhere_stim/left_away_270h.wav,stimulus/audwhere_stim/blank_white.png,stimulus/audwhere_stim/side_box.png,stimulus/audwhere_stim/side_yes.png,stimulus/audwhere_stim/side_no.png,None,Side,None,Direction,2,0.0,0,5.125,0,5.125,0,5.125,0,0.0,0.625,0,0,0,0,0,0,0,0,0,0.0,0,0.0,1,0.5,1,2.125,0,,,,,0,34,34,34,,,,,,,,,334.136625417,334.136625417,334.136625417,334.136625417,334.136625417,334.136625417,334.136625417,334.136625417,334.0550201673333,334.136625417,334.136625417,334.136625417,334.0550201673333,334.136625417,334.136625417,334.136625417,336.24915162499997,340.260181334,334.136625417,334.136625417,339.299956417,334.136625417,334.136625417,334.136625417,334.136625417,334.60692229200004,335.641033417,334.5761229586667,,336.24915162499997,337.28548683400004,336.2194542916666,,334.136625417,339.299956417,334.136625417,339.299956417,339.3416636249999,340.00295466700004,334.136625417,2,1,0.7082077079999181,reldom2_s006,001,2025-01-31_14h33.41.478,Aud-A-Scan_AC,2022.2.5,None,
27,First_Order,5.0,audwhere,stimulus/audwhere_stim/dummy.wav,stimulus/audwhere_stim/dummy.wav,stimulus/audwhere_stim/left_away_300h.wav,stimulus/audwhere_stim/right_away_290h.wav,stimulus/audwhere_stim/blank_white.png,stimulus/audwhere_stim/direction_box.png,stimulus/audwhere_stim/direction_yes.png,stimulus/audwhere_stim/direction_no.png,None,Direction,None,Direction,1,0.0,0,5.125,0,5.125,0,5.125,0,0.0,0.625,0,0,0,0,0,0,0,0,0,0.0,0,0.0,1,0.5,1,2.125,0,,,,,0,35,35,35,,,,,,,,,340.260181334,340.260181334,340.260181334,340.260181334,340.260181334,340.260181334,340.260181334,340.260181334,340.17726566733324,340.260181334,340.260181334,340.260181334,340.17726566733324,340.260181334,340.260181334,340.260181334,342.334342334,,340.260181334,340.260181334,345.44864474999986,340.260181334,340.260181334,340.260181334,340.260181334,340.73126254199997,341.76983541699997,340.7009792506667,,342.334342334,343.37343729200006,342.3039316666666,,340.260181334,345.44864474999986,340.260181334,345.44864474999986,345.4899955000001,346.1532320419999,340.260181334,1,1,1.4696321239998724,reldom2_s006,001,2025-01-31_14h33.41.478,Aud-A-Scan_AC,2022.2.5,None,
28,First_Order,5.0,audwhere,stimulus/audwhere_stim/dummy.wav,stimulus/audwhere_stim/dummy.wav,stimulus/audwhere_stim/left_away_290h.wav,stimulus/audwhere_stim/right_away_280h.wav,stimulus/audwhere_stim/blank_white.png,stimulus/audwhere_stim/direction_box.png,stimulus/audwhere_stim/direction_yes.png,stimulus/audwhere_stim/direction_no.png,None,Direction,None,Direction,1,0.0,0,5.125,0,5.125,0,5.125,0,0.0,0.625,0,0,0,0,0,0,0,0,0,0.0,0,0.0,1,0.5,1,2.125,0,,,,,0,36,36,36,,,,,,,,,346.37256249999996,346.37256249999996,346.37256249999996,346.37256249999996,346.37256249999996,346.37256249999996,346.37256249999996,346.37256249999996,346.2865653753332,346.37256249999996,346.37256249999996,346.37256249999996,346.2865653753332,346.37256249999996,346.37256249999996,346.37256249999996,348.4522066669999,,346.37256249999996,346.37256249999996,351.52381920900007,346.37256249999996,346.37256249999996,346.37256249999996,346.37256249999996,346.8443279999999,347.8858144999999,346.8134555836666,,348.4522066669999,349.49309937499993,348.42181829166657,,346.37256249999996,351.52381920900007,346.37256249999996,351.52381920900007,351.56602129199996,352.229534584,346.37256249999996,1,1,1.2460674579999704,reldom2_s006,001,2025-01-31_14h33.41.478,Aud-A-Scan_AC,2022.2.5,None,
0,0.0,None,fixation,stimulus/audwhere_stim/blank_white.png,stimulus/audwhere_stim/blank_white.png,stimulus/audwhat_stim/blank_white.png,stimulus/audwhat_stim/blank_white.png,stimulus/audwhere_stim/blank_white.png,stimulus/audwhere_stim/blank_white.png,stimulus/audwhere_stim/blank_white.png,stimulus/audwhere_stim/blank_white.png,0.0,0.0,0.0,0.0,0,0.0,0,0.0,0,0.0,0,0.0,0,0.0,0.0,0,0,0,0,0,0,0,0,0,0.0,0,0.0,0,0.0,0,0.0,9,,,,,0,37,37,37,,,,,,,,,352.50822975000005,352.50822975000005,352.50822975000005,352.50822975000005,352.50822975000005,352.50822975000005,352.50822975000005,352.50822975000005,352.4038373753334,352.50822975000005,352.50822975000005,352.50822975000005,352.4038373753334,352.50822975000005,352.50822975000005,352.50822975000005,352.50822975000005,352.50822975000005,352.50822975000005,352.50822975000005,352.50822975000005,352.50822975000005,352.50822975000005,352.50822975000005,352.50822975000005,352.50822975000005,352.50822975000005,352.4538373753334,352.50822975000005,352.50822975000005,352.50822975000005,352.4538373753334,352.50822975000005,352.50822975000005,352.50822975000005,352.50822975000005,352.50822975000005,357.70173183399993,357.70173183399993,361.6861395839999,None,0,,reldom2_s006,001,2025-01-31_14h33.41.478,Aud-A-Scan_AC,2022.2.5,None,
29,Second_Order,5.0,audwhere,stimulus/audwhere_stim/right_toward_270h.wav,stimulus/audwhere_stim/right_away_280h.wav,stimulus/audwhere_stim/left_toward_290h.wav,stimulus/audwhere_stim/left_away_290h.wav,stimulus/audwhere_stim/match_blank.png,stimulus/audwhere_stim/match_box.png,stimulus/audwhere_stim/match_yes.png,stimulus/audwhere_stim/match_no.png,1.0,Match,Side,Side,1,5.125,0,5.125,0,5.125,0,5.125,0,0.75,0.75,0,0,0,0,0,0,0,0,1,0.5,1,2.125,1,0.5,1,2.125,0,,,,,0,38,38,38,,,,,,,,,361.6861395839999,366.7984750840001,361.6861395839999,361.6861395839999,361.6861395839999,361.6861395839999,362.1372321250001,363.135190084,362.14964800066673,363.14314483399994,363.75940179200006,364.75563895899995,363.7707807506665,364.76383387500005,366.7984750840001,367.6277317920001,369.7344135000001,373.64350349999995,367.6277317920001,367.6277317920001,372.822465042,367.6277317920001,367.6277317920001,367.6277317920001,367.6277317920001,368.0942467919999,369.1248714999999,368.06414341666664,,369.7344135000001,370.76784150000003,369.70358037566666,,367.6277317920001,372.822465042,367.6277317920001,372.822465042,372.822465042,,367.6277317920001,1,1,0.9285922489998484,reldom2_s006,001,2025-01-31_14h33.41.478,Aud-A-Scan_AC,2022.2.5,None,
30,Second_Order,5.0,audwhere,stimulus/audwhere_stim/left_toward_300h.wav,stimulus/audwhere_stim/left_away_290h.wav,stimulus/audwhere_stim/right_away_290h.wav,stimulus/audwhere_stim/right_toward_280h.wav,stimulus/audwhere_stim/match_blank.png,stimulus/audwhere_stim/match_box.png,stimulus/audwhere_stim/match_yes.png,stimulus/audwhere_stim/match_no.png,1.0,Match,Side,Side,1,5.125,0,5.125,0,5.125,0,5.125,0,0.625,0.625,0,0,0,0,0,0,0,0,1,0.5,1,2.125,1,0.5,1,2.125,0,,,,,0,39,39,39,,,,,,,,,373.64350349999995,378.7590084589999,373.64350349999995,373.64350349999995,373.64350349999995,373.64350349999995,374.09845270899996,375.0962097920001,374.1108984166667,375.1040943339999,375.7186515839999,376.7339105419999,375.7307725006667,376.7339105419999,378.7590084589999,379.4689881669999,381.56419979199995,,379.4689881669999,379.4689881669999,384.64362099999994,379.4689881669999,379.4689881669999,379.4689881669999,379.4689881669999,379.9338425000001,381.00295525,379.9038483336667,,381.56419979199995,382.638675917,381.5334310006667,,379.4689881669999,384.64362099999994,379.4689881669999,384.64362099999994,384.6845579589999,385.339781917,379.4689881669999,1,1,0.8420618330001162,reldom2_s006,001,2025-01-31_14h33.41.478,Aud-A-Scan_AC,2022.2.5,None,
0,0.0,None,fixation,stimulus/audwhere_stim/blank_white.png,stimulus/audwhere_stim/blank_white.png,stimulus/audwhat_stim/blank_white.png,stimulus/audwhat_stim/blank_white.png,stimulus/audwhere_stim/blank_white.png,stimulus/audwhere_stim/blank_white.png,stimulus/audwhere_stim/blank_white.png,stimulus/audwhere_stim/blank_white.png,0.0,0.0,0.0,0.0,0,0.0,0,0.0,0,0.0,0,0.0,0,0.0,0.0,0,0,0,0,0,0,0,0,0,0.0,0,0.0,0,0.0,0,0.0,9,,,,,0,40,40,40,,,,,,,,,385.5776680839999,385.5776680839999,385.5776680839999,385.5776680839999,385.5776680839999,385.5776680839999,385.5776680839999,385.5776680839999,385.4731152503333,385.5776680839999,385.5776680839999,385.5776680839999,385.4731152503333,385.5776680839999,385.5776680839999,385.5776680839999,385.5776680839999,385.5776680839999,385.5776680839999,385.5776680839999,385.5776680839999,385.5776680839999,385.5776680839999,385.5776680839999,385.5776680839999,385.5776680839999,385.5776680839999,385.5231152503333,385.5776680839999,385.5776680839999,385.5776680839999,385.5231152503333,385.5776680839999,385.5776680839999,385.5776680839999,385.5776680839999,385.5776680839999,390.7917909590001,390.7917909590001,394.854204,None,0,,reldom2_s006,001,2025-01-31_14h33.41.478,Aud-A-Scan_AC,2022.2.5,None,
31,First_Order,6.0,audwhere,stimulus/audwhere_stim/dummy.wav,stimulus/audwhere_stim/dummy.wav,stimulus/audwhere_stim/left_away_300h.wav,stimulus/audwhere_stim/left_toward_300h.wav,stimulus/audwhere_stim/blank_white.png,stimulus/audwhere_stim/side_box.png,stimulus/audwhere_stim/side_yes.png,stimulus/audwhere_stim/side_no.png,None,Side,None,Side,1,0.0,0,5.125,0,5.125,0,5.125,0,0.0,0.625,0,0,0,0,0,0,0,0,0,0.0,0,0.0,1,0.5,1,2.125,0,,,,,0,41,41,41,,,,,,,,,394.854204,394.854204,394.854204,394.854204,394.854204,394.854204,394.854204,394.854204,394.77975320866665,394.854204,394.854204,394.854204,394.77975320866665,394.854204,394.854204,394.854204,396.96468149999987,400.98219583399987,394.854204,394.854204,400.01905495899996,394.854204,394.854204,394.854204,394.854204,395.3224728339999,396.3569762919999,395.29271450066653,,396.96468149999987,398.00371300000006,396.9340795006667,,394.854204,400.01905495899996,394.854204,400.01905495899996,400.0602112920001,400.720952917,394.854204,1,1,0.7545269159998043,reldom2_s006,001,2025-01-31_14h33.41.478,Aud-A-Scan_AC,2022.2.5,None,
32,First_Order,6.0,audwhere,stimulus/audwhere_stim/dummy.wav,stimulus/audwhere_stim/dummy.wav,stimulus/audwhere_stim/right_away_270h.wav,stimulus/audwhere_stim/left_away_280h.wav,stimulus/audwhere_stim/blank_white.png,stimulus/audwhere_stim/side_box.png,stimulus/audwhere_stim/side_yes.png,stimulus/audwhere_stim/side_no.png,None,Side,None,Direction,2,0.0,0,5.125,0,5.125,0,5.125,0,0.0,0.625,0,0,0,0,0,0,0,0,0,0.0,0,0.0,1,0.5,1,2.125,0,,,,,0,42,42,42,,,,,,,,,400.98219583399987,400.98219583399987,400.98219583399987,400.98219583399987,400.98219583399987,400.98219583399987,400.98219583399987,400.98219583399987,400.8956137503334,400.98219583399987,400.98219583399987,400.98219583399987,400.8956137503334,400.98219583399987,400.98219583399987,400.98219583399987,403.0935595000001,407.1028155839999,400.98219583399987,400.98219583399987,406.14463187499996,400.98219583399987,400.98219583399987,400.98219583399987,400.98219583399987,401.45059479199995,402.483661667,401.4203537916667,,403.0935595000001,404.13041704199986,403.0629427916667,,400.98219583399987,406.14463187499996,400.98219583399987,406.14463187499996,406.18571529199994,406.84538462499995,400.98219583399987,2,1,0.7436338330001036,reldom2_s006,001,2025-01-31_14h33.41.478,Aud-A-Scan_AC,2022.2.5,None,
33,First_Order,6.0,audwhere,stimulus/audwhere_stim/dummy.wav,stimulus/audwhere_stim/dummy.wav,stimulus/audwhere_stim/left_toward_270h.wav,stimulus/audwhere_stim/left_away_270h.wav,stimulus/audwhere_stim/blank_white.png,stimulus/audwhere_stim/direction_box.png,stimulus/audwhere_stim/direction_yes.png,stimulus/audwhere_stim/direction_no.png,None,Direction,None,Side,2,0.0,0,5.125,0,5.125,0,5.125,0,0.0,0.625,0,0,0,0,0,0,0,0,0,0.0,0,0.0,1,0.5,1,2.125,0,,,,,0,43,43,43,,,,,,,,,407.1028155839999,407.1028155839999,407.1028155839999,407.1028155839999,407.1028155839999,407.1028155839999,407.1028155839999,407.1028155839999,407.0197937503334,407.1028155839999,407.1028155839999,407.1028155839999,407.0197937503334,407.1028155839999,407.1028155839999,407.1028155839999,409.185334584,413.2277637919999,407.1028155839999,407.1028155839999,412.2639839169999,407.1028155839999,407.1028155839999,407.1028155839999,407.1028155839999,407.57742395900004,408.61789620900004,407.5457917916667,,409.185334584,410.23102479199997,409.1543792506666,,407.1028155839999,412.2639839169999,407.1028155839999,412.2639839169999,412.305862209,412.9700083339999,407.1028155839999,2,1,1.3288719579998087,reldom2_s006,001,2025-01-31_14h33.41.478,Aud-A-Scan_AC,2022.2.5,None,
34,First_Order,6.0,audwhere,stimulus/audwhere_stim/dummy.wav,stimulus/audwhere_stim/dummy.wav,stimulus/audwhere_stim/left_toward_300h.wav,stimulus/audwhere_stim/left_away_300h.wav,stimulus/audwhere_stim/blank_white.png,stimulus/audwhere_stim/side_box.png,stimulus/audwhere_stim/side_yes.png,stimulus/audwhere_stim/side_no.png,None,Side,None,Side,1,0.0,0,5.125,0,5.125,0,5.125,0,0.0,0.625,0,0,0,0,0,0,0,0,0,0.0,0,0.0,1,0.5,1,2.125,0,,,,,0,44,44,44,,,,,,,,,413.2277637919999,413.2277637919999,413.2277637919999,413.2277637919999,413.2277637919999,413.2277637919999,413.2277637919999,413.2277637919999,413.1445432503332,413.2277637919999,413.2277637919999,413.2277637919999,413.1445432503332,413.2277637919999,413.2277637919999,413.2277637919999,415.3415884169999,,413.2277637919999,413.2277637919999,418.4003338749999,413.2277637919999,413.2277637919999,413.2277637919999,413.2277637919999,413.69810266700006,414.732077417,413.6679175416666,,415.3415884169999,416.377477042,415.31117212566664,,413.2277637919999,418.4003338749999,413.2277637919999,418.4003338749999,418.44211970900005,419.10428358399986,413.2277637919999,1,1,1.0095547910000278,reldom2_s006,001,2025-01-31_14h33.41.478,Aud-A-Scan_AC,2022.2.5,None,
0,0.0,None,fixation,stimulus/audwhere_stim/blank_white.png,stimulus/audwhere_stim/blank_white.png,stimulus/audwhat_stim/blank_white.png,stimulus/audwhat_stim/blank_white.png,stimulus/audwhere_stim/blank_white.png,stimulus/audwhere_stim/blank_white.png,stimulus/audwhere_stim/blank_white.png,stimulus/audwhere_stim/blank_white.png,0.0,0.0,0.0,0.0,0,0.0,0,0.0,0,0.0,0,0.0,0,0.0,0.0,0,0,0,0,0,0,0,0,0,0.0,0,0.0,0,0.0,0,0.0,10,,,,,0,45,45,45,,,,,,,,,419.341285042,419.341285042,419.341285042,419.341285042,419.341285042,419.341285042,419.341285042,419.341285042,419.2376169173332,419.341285042,419.341285042,419.341285042,419.2376169173332,419.341285042,419.341285042,419.341285042,419.341285042,419.341285042,419.341285042,419.341285042,419.341285042,419.341285042,419.341285042,419.341285042,419.341285042,419.341285042,419.341285042,419.2876169173332,419.341285042,419.341285042,419.341285042,419.2876169173332,419.341285042,419.341285042,419.341285042,419.341285042,419.341285042,424.53755091699986,424.53755091699986,429.49888775,None,0,,reldom2_s006,001,2025-01-31_14h33.41.478,Aud-A-Scan_AC,2022.2.5,None,
35,Second_Order,6.0,audwhere,stimulus/audwhere_stim/left_away_280h.wav,stimulus/audwhere_stim/left_toward_300h.wav,stimulus/audwhere_stim/right_away_280h.wav,stimulus/audwhere_stim/right_toward_300h.wav,stimulus/audwhere_stim/match_blank.png,stimulus/audwhere_stim/match_box.png,stimulus/audwhere_stim/match_yes.png,stimulus/audwhere_stim/match_no.png,1.0,Match,Side,Side,1,5.125,0,5.125,0,5.125,0,5.125,0,0.75,0.75,0,0,0,0,0,0,0,0,1,0.5,1,2.125,1,0.5,1,2.125,0,,,,,0,46,46,46,,,,,,,,,429.49888775,434.62234587500006,429.49888775,429.49888775,429.49888775,429.49888775,429.95611708399997,430.94501316700007,429.95966804166665,430.9582600839999,431.58084874999986,432.57870283400007,431.5929757086667,432.58639837500004,434.62234587500006,435.450616375,437.55821074999994,441.46894487500003,435.450616375,435.450616375,440.61009412499993,435.450616375,435.450616375,435.450616375,435.450616375,435.91936462500007,436.9941779169999,435.88899491666666,,437.55821074999994,438.594821917,437.5274687506667,,435.450616375,440.61009412499993,435.450616375,440.61009412499993,440.65154125000004,,435.450616375,1,1,0.6938750409999557,reldom2_s006,001,2025-01-31_14h33.41.478,Aud-A-Scan_AC,2022.2.5,None,
36,Second_Order,6.0,audwhere,stimulus/audwhere_stim/left_away_290h.wav,stimulus/audwhere_stim/left_toward_270h.wav,stimulus/audwhere_stim/left_toward_290h.wav,stimulus/audwhere_stim/right_toward_270h.wav,stimulus/audwhere_stim/match_blank.png,stimulus/audwhere_stim/match_box.png,stimulus/audwhere_stim/match_yes.png,stimulus/audwhere_stim/match_no.png,2.0,Match,Side,Direction,2,5.125,0,5.125,0,5.125,0,5.125,0,0.625,0.625,0,0,0,0,0,0,0,0,1,0.5,1,2.125,1,0.5,1,2.125,0,,,,,0,47,47,47,,,,,,,,,441.46894487500003,446.582805625,441.46894487500003,441.46894487500003,441.46894487500003,441.46894487500003,441.920799,442.91962529199986,441.9333030416667,442.9280409589999,443.542692709,444.5397452499999,443.5541235006667,444.5473616669999,446.582805625,447.29602950000003,449.354189292,453.42440562499996,447.29602950000003,447.29602950000003,452.48875058399994,447.29602950000003,447.29602950000003,447.29602950000003,447.29602950000003,447.76440325,448.8387359169999,447.7339499166667,,449.354189292,450.38595699999996,449.32358508366656,,447.29602950000003,452.48875058399994,447.29602950000003,452.48875058399994,452.48875058399994,453.143664875,447.29602950000003,2,1,0.5255422909999652,reldom2_s006,001,2025-01-31_14h33.41.478,Aud-A-Scan_AC,2022.2.5,None,
0,0.0,None,fixation,stimulus/audwhere_stim/blank_white.png,stimulus/audwhere_stim/blank_white.png,stimulus/audwhat_stim/blank_white.png,stimulus/audwhat_stim/blank_white.png,stimulus/audwhere_stim/blank_white.png,stimulus/audwhere_stim/blank_white.png,stimulus/audwhere_stim/blank_white.png,stimulus/audwhere_stim/blank_white.png,0.0,0.0,0.0,0.0,0,0.0,0,0.0,0,0.0,0,0.0,0,0.0,0.0,0,0,0,0,0,0,0,0,0,0.0,0,0.0,0,0.0,0,0.0,9,,,,,0,48,48,48,,,,,,,,,453.42440562499996,453.42440562499996,453.42440562499996,453.42440562499996,453.42440562499996,453.42440562499996,453.42440562499996,453.42440562499996,453.3180775003333,453.42440562499996,453.42440562499996,453.42440562499996,453.3180775003333,453.42440562499996,453.42440562499996,453.42440562499996,453.42440562499996,453.42440562499996,453.42440562499996,453.42440562499996,453.42440562499996,453.42440562499996,453.42440562499996,453.42440562499996,453.42440562499996,453.42440562499996,453.42440562499996,453.38474416699995,453.42440562499996,453.42440562499996,453.42440562499996,453.38474416699995,453.42440562499996,453.42440562499996,453.42440562499996,453.42440562499996,453.42440562499996,458.6340255,458.6340255,462.694865875,None,0,,reldom2_s006,001,2025-01-31_14h33.41.478,Aud-A-Scan_AC,2022.2.5,None,
37,First_Order,7.0,audwhat,stimulus/audwhat_stim/dummy.wav,stimulus/audwhat_stim/dummy.wav,stimulus/audwhat_stim/string cello_low-pitch_Ftri_loud.wav,stimulus/audwhat_stim/string cello_high-pitch_D_loud.wav,stimulus/audwhat_stim/blank_white.png,stimulus/audwhat_stim/pitch_box.png,stimulus/audwhat_stim/pitch_yes.png,stimulus/audwhat_stim/pitch_no.png,None,Pitch,None,Category,2,0.0,0,5.125,0,5.125,0,5.125,0,0.0,0.625,0,0,0,0,0,0,0,0,0,0.0,0,0.0,1,0.5,1,2.125,0,,,,,0,49,49,49,,,,,,,,,462.694865875,462.694865875,462.694865875,462.694865875,462.694865875,462.694865875,462.694865875,462.694865875,462.61920004166666,462.694865875,462.694865875,462.694865875,462.61920004166666,462.694865875,462.694865875,462.694865875,464.807643334,468.8233452090001,462.694865875,462.694865875,467.86545687500006,462.694865875,462.694865875,462.694865875,462.694865875,463.1624670839999,464.196849875,463.13273320866665,,464.807643334,465.84749654200004,464.7771517916667,,462.694865875,467.86545687500006,462.694865875,467.86545687500006,467.90727883399995,468.5665973749999,462.694865875,1,0,1.006646456999988,reldom2_s006,001,2025-01-31_14h33.41.478,Aud-A-Scan_AC,2022.2.5,None,
38,First_Order,7.0,audwhat,stimulus/audwhat_stim/dummy.wav,stimulus/audwhat_stim/dummy.wav,stimulus/audwhat_stim/string cello_low-pitch_D_loud.wav,stimulus/audwhat_stim/string cello_high-pitch_Ftri_loud.wav,stimulus/audwhat_stim/blank_white.png,stimulus/audwhat_stim/pitch_box.png,stimulus/audwhat_stim/pitch_yes.png,stimulus/audwhat_stim/pitch_no.png,None,Pitch,None,Category,2,0.0,0,5.125,0,5.125,0,5.125,0,0.0,0.625,0,0,0,0,0,0,0,0,0,0.0,0,0.0,1,0.5,1,2.125,0,,,,,0,50,50,50,,,,,,,,,468.8233452090001,468.8233452090001,468.8233452090001,468.8233452090001,468.8233452090001,468.8233452090001,468.8233452090001,468.8233452090001,468.74128587533335,468.8233452090001,468.8233452090001,468.8233452090001,468.74128587533335,468.8233452090001,468.8233452090001,468.8233452090001,470.93513499999995,474.94924658399987,468.8233452090001,468.8233452090001,473.98743354199996,468.8233452090001,468.8233452090001,468.8233452090001,468.8233452090001,469.29239270900007,470.32605050000006,469.2619119166666,,470.93513499999995,471.97146570899986,470.9047768756666,,468.8233452090001,473.98743354199996,468.8233452090001,473.98743354199996,474.02918924999994,474.690931417,468.8233452090001,1,0,1.1777636239999083,reldom2_s006,001,2025-01-31_14h33.41.478,Aud-A-Scan_AC,2022.2.5,None,
39,First_Order,7.0,audwhat,stimulus/audwhat_stim/dummy.wav,stimulus/audwhat_stim/dummy.wav,stimulus/audwhat_stim/percussion xylophone_high-pitch_Dtri_loud.wav,stimulus/audwhat_stim/string cello_high-pitch_Dtri_loud.wav,stimulus/audwhat_stim/blank_white.png,stimulus/audwhat_stim/pitch_box.png,stimulus/audwhat_stim/pitch_yes.png,stimulus/audwhat_stim/pitch_no.png,None,Pitch,None,Pitch,1,0.0,0,5.125,0,5.125,0,5.125,0,0.0,0.625,0,0,0,0,0,0,0,0,0,0.0,0,0.0,1,0.5,1,2.125,0,,,,,0,51,51,51,,,,,,,,,474.94924658399987,474.94924658399987,474.94924658399987,474.94924658399987,474.94924658399987,474.94924658399987,474.94924658399987,474.94924658399987,474.8655832923333,474.94924658399987,474.94924658399987,474.94924658399987,474.8655832923333,474.94924658399987,474.94924658399987,474.94924658399987,477.0211293340001,,474.94924658399987,474.94924658399987,480.125225625,474.94924658399987,474.94924658399987,474.94924658399987,474.94924658399987,475.41829133400006,476.45944391700004,475.38780170866653,476.45944391700004,477.0211293340001,478.059086667,476.9905065416667,,474.94924658399987,480.125225625,474.94924658399987,480.125225625,480.1670072919999,480.82723995900005,474.94924658399987,1,1,1.0218913319999956,reldom2_s006,001,2025-01-31_14h33.41.478,Aud-A-Scan_AC,2022.2.5,None,
40,First_Order,7.0,audwhat,stimulus/audwhat_stim/dummy.wav,stimulus/audwhat_stim/dummy.wav,stimulus/audwhat_stim/string cello_low-pitch_D_loud.wav,stimulus/audwhat_stim/percussion mallet_low-pitch_D_loud.wav,stimulus/audwhat_stim/blank_white.png,stimulus/audwhat_stim/pitch_box.png,stimulus/audwhat_stim/pitch_yes.png,stimulus/audwhat_stim/pitch_no.png,None,Pitch,None,Pitch,1,0.0,0,5.125,0,5.125,0,5.125,0,0.0,0.625,0,0,0,0,0,0,0,0,0,0.0,0,0.0,1,0.5,1,2.125,0,,,,,0,52,52,52,,,,,,,,,481.04376516699995,481.04376516699995,481.04376516699995,481.04376516699995,481.04376516699995,481.04376516699995,481.04376516699995,481.04376516699995,480.9605732923334,481.04376516699995,481.04376516699995,481.04376516699995,480.9605732923334,481.04376516699995,481.04376516699995,481.04376516699995,483.1138760419999,,481.04376516699995,481.04376516699995,486.224300459,481.04376516699995,481.04376516699995,481.04376516699995,481.04376516699995,481.513163375,482.54970070900004,481.48121112566673,,483.1138760419999,484.15607958400005,483.0832826256667,,481.04376516699995,486.224300459,481.04376516699995,486.224300459,486.26558275,486.926792084,481.04376516699995,2,0,0.9030952499997511,reldom2_s006,001,2025-01-31_14h33.41.478,Aud-A-Scan_AC,2022.2.5,None,
0,0.0,None,fixation,stimulus/audwhere_stim/blank_white.png,stimulus/audwhere_stim/blank_white.png,stimulus/audwhat_stim/blank_white.png,stimulus/audwhat_stim/blank_white.png,stimulus/audwhere_stim/blank_white.png,stimulus/audwhere_stim/blank_white.png,stimulus/audwhere_stim/blank_white.png,stimulus/audwhere_stim/blank_white.png,0.0,0.0,0.0,0.0,0,0.0,0,0.0,0,0.0,0,0.0,0,0.0,0.0,0,0,0,0,0,0,0,0,0,0.0,0,0.0,0,0.0,0,0.0,10,,,,,0,53,53,53,,,,,,,,,487.16426383399994,487.16426383399994,487.16426383399994,487.16426383399994,487.16426383399994,487.16426383399994,487.16426383399994,487.16426383399994,487.0601254173333,487.16426383399994,487.16426383399994,487.16426383399994,487.0601254173333,487.16426383399994,487.16426383399994,487.16426383399994,487.16426383399994,487.16426383399994,487.16426383399994,487.16426383399994,487.16426383399994,487.16426383399994,487.16426383399994,487.16426383399994,487.16426383399994,487.16426383399994,487.16426383399994,487.11012541733334,487.16426383399994,487.16426383399994,487.16426383399994,487.11012541733334,487.16426383399994,487.16426383399994,487.16426383399994,487.16426383399994,487.16426383399994,492.36510599999997,492.36510599999997,497.3315273750002,None,0,,reldom2_s006,001,2025-01-31_14h33.41.478,Aud-A-Scan_AC,2022.2.5,None,
41,Second_Order,7.0,audwhat,stimulus/audwhat_stim/percussion xylophone_high-pitch_Ftri_loud.wav,stimulus/audwhat_stim/percussion mallet_low-pitch_Dtri_loud.wav,stimulus/audwhat_stim/string viola_low-pitch_Ftri_loud.wav,stimulus/audwhat_stim/percussion mallet_low-pitch_Ftri_loud.wav,stimulus/audwhere_stim/match_blank.png,stimulus/audwhat_stim/match_box.png,stimulus/audwhere_stim/match_yes.png,stimulus/audwhere_stim/match_no.png,2.0,Match,Category,Pitch,2,5.125,0,5.125,0,5.125,0,5.125,0,0.75,0.75,0,0,0,0,0,0,0,0,1,0.5,1,2.125,1,0.5,1,2.125,0,,,,,0,54,54,54,,,,,,,,,497.3315273750002,502.44543366699986,497.3315273750002,497.3315273750002,497.3315273750002,497.3315273750002,497.78319750000014,498.7814999589998,497.7956750006665,498.78948404200014,499.4047196670001,500.4020053749998,499.41633258366664,500.40974725,502.44543366699986,503.2737723339999,505.335684292,509.296726584,503.2737723339999,503.2737723339999,508.4347345839999,503.2737723339999,503.2737723339999,503.2737723339999,503.2737723339999,503.7442336249999,504.77416820899975,503.71280433366655,,505.335684292,506.3738249999999,505.3053847086667,,503.2737723339999,508.4347345839999,503.2737723339999,508.4347345839999,508.47617808400014,,503.2737723339999,2,1,0.6702533330001188,reldom2_s006,001,2025-01-31_14h33.41.478,Aud-A-Scan_AC,2022.2.5,None,
42,Second_Order,7.0,audwhat,stimulus/audwhat_stim/string cello_high-pitch_Dtri_loud.wav,stimulus/audwhat_stim/percussion mallet_high-pitch_Dtri_loud.wav,stimulus/audwhat_stim/percussion mallet_low-pitch_D_loud.wav,stimulus/audwhat_stim/string cello_low-pitch_D_loud.wav,stimulus/audwhere_stim/match_blank.png,stimulus/audwhat_stim/match_box.png,stimulus/audwhere_stim/match_yes.png,stimulus/audwhere_stim/match_no.png,1.0,Match,Pitch,Pitch,1,5.125,0,5.125,0,5.125,0,5.125,0,0.625,0.625,0,0,0,0,0,0,0,0,1,0.5,1,2.125,1,0.5,1,2.125,0,,,,,0,55,55,55,,,,,,,,,509.296726584,514.4174149590001,509.296726584,509.296726584,509.296726584,509.296726584,509.74401562499975,510.7421524590002,509.7568362916668,,511.38182837499994,512.3794345839999,511.39394354166643,512.3870527500001,514.4174149590001,515.1311437920001,517.2290529999998,,515.1311437920001,515.1311437920001,520.3179080839998,515.1311437920001,515.1311437920001,515.1311437920001,515.1311437920001,515.5977976249999,516.6694589589999,515.5677176256668,,517.2290529999998,518.2592953750002,517.1984033756667,,515.1311437920001,520.3179080839998,515.1311437920001,520.3179080839998,520.3179080839998,520.9772686670001,515.1311437920001,1,1,1.1758503329995165,reldom2_s006,001,2025-01-31_14h33.41.478,Aud-A-Scan_AC,2022.2.5,None,
0,0.0,None,fixation,stimulus/audwhere_stim/blank_white.png,stimulus/audwhere_stim/blank_white.png,stimulus/audwhat_stim/blank_white.png,stimulus/audwhat_stim/blank_white.png,stimulus/audwhere_stim/blank_white.png,stimulus/audwhere_stim/blank_white.png,stimulus/audwhere_stim/blank_white.png,stimulus/audwhere_stim/blank_white.png,0.0,0.0,0.0,0.0,0,0.0,0,0.0,0,0.0,0,0.0,0,0.0,0.0,0,0,0,0,0,0,0,0,0,0.0,0,0.0,0,0.0,0,0.0,9,,,,,0,56,56,56,,,,,,,,,521.2563701249999,521.2563701249999,521.2563701249999,521.2563701249999,521.2563701249999,521.2563701249999,521.2563701249999,521.2563701249999,521.1516530833331,521.2563701249999,521.2563701249999,521.2563701249999,521.1516530833331,521.2563701249999,521.2563701249999,521.2563701249999,521.2563701249999,521.2563701249999,521.2563701249999,521.2563701249999,521.2563701249999,521.2563701249999,521.2563701249999,521.2563701249999,521.2563701249999,521.2563701249999,521.2563701249999,521.2016530833331,521.2563701249999,521.2563701249999,521.2563701249999,521.2016530833331,521.2563701249999,521.2563701249999,521.2563701249999,521.2563701249999,521.2563701249999,526.480326917,526.480326917,530.496618375,None,0,,reldom2_s006,001,2025-01-31_14h33.41.478,Aud-A-Scan_AC,2022.2.5,None,
43,First_Order,8.0,audwhat,stimulus/audwhat_stim/dummy.wav,stimulus/audwhat_stim/dummy.wav,stimulus/audwhat_stim/string viola_low-pitch_F_loud.wav,stimulus/audwhat_stim/percussion mallet_low-pitch_F_loud.wav,stimulus/audwhat_stim/blank_white.png,stimulus/audwhat_stim/category_box.png,stimulus/audwhat_stim/category_yes.png,stimulus/audwhat_stim/category_no.png,None,Category,None,Pitch,2,0.0,0,5.125,0,5.125,0,5.125,0,0.0,0.625,0,0,0,0,0,0,0,0,0,0.0,0,0.0,1,0.5,1,2.125,0,,,,,0,57,57,57,,,,,,,,,530.496618375,530.496618375,530.496618375,530.496618375,530.496618375,530.496618375,530.496618375,530.496618375,530.4212968336668,530.496618375,530.496618375,530.496618375,530.4212968336668,530.496618375,530.496618375,530.496618375,532.5723995000001,536.6111847919999,530.496618375,530.496618375,535.689435,530.496618375,530.496618375,530.496618375,530.496618375,530.9705295840001,532.0081036250001,530.9394977916668,,532.5723995000001,533.6141373749999,532.5421701256664,,530.496618375,535.689435,530.496618375,535.689435,535.689435,536.353344417,530.496618375,2,1,1.4373483739998392,reldom2_s006,001,2025-01-31_14h33.41.478,Aud-A-Scan_AC,2022.2.5,None,
44,First_Order,8.0,audwhat,stimulus/audwhat_stim/dummy.wav,stimulus/audwhat_stim/dummy.wav,stimulus/audwhat_stim/percussion mallet_low-pitch_Dtri_loud.wav,stimulus/audwhat_stim/percussion xylophone_high-pitch_F_loud.wav,stimulus/audwhat_stim/blank_white.png,stimulus/audwhat_stim/category_box.png,stimulus/audwhat_stim/category_yes.png,stimulus/audwhat_stim/category_no.png,None,Category,None,Category,1,0.0,0,5.125,0,5.125,0,5.125,0,0.0,0.625,0,0,0,0,0,0,0,0,0,0.0,0,0.0,1,0.5,1,2.125,0,,,,,0,58,58,58,,,,,,,,,536.6111847919999,536.6111847919999,536.6111847919999,536.6111847919999,536.6111847919999,536.6111847919999,536.6111847919999,536.6111847919999,536.5278797083332,536.6111847919999,536.6111847919999,536.6111847919999,536.5278797083332,536.6111847919999,536.6111847919999,536.6111847919999,538.691725417,542.7326681669999,536.6111847919999,536.6111847919999,541.7672284170001,536.6111847919999,536.6111847919999,536.6111847919999,536.6111847919999,537.082318209,538.124737375,537.0515998336668,,538.691725417,539.7403554589998,538.6608487506664,539.7403554589998,536.6111847919999,541.7672284170001,536.6111847919999,541.7672284170001,541.8085853750001,542.474318625,536.6111847919999,2,0,0.5847982070001763,reldom2_s006,001,2025-01-31_14h33.41.478,Aud-A-Scan_AC,2022.2.5,None,
45,First_Order,8.0,audwhat,stimulus/audwhat_stim/dummy.wav,stimulus/audwhat_stim/dummy.wav,stimulus/audwhat_stim/string cello_high-pitch_Dtri_loud.wav,stimulus/audwhat_stim/percussion xylophone_high-pitch_Dtri_loud.wav,stimulus/audwhat_stim/blank_white.png,stimulus/audwhat_stim/category_box.png,stimulus/audwhat_stim/category_yes.png,stimulus/audwhat_stim/category_no.png,None,Category,None,Pitch,2,0.0,0,5.125,0,5.125,0,5.125,0,0.0,0.625,0,0,0,0,0,0,0,0,0,0.0,0,0.0,1,0.5,1,2.125,0,,,,,0,59,59,59,,,,,,,,,542.7326681669999,542.7326681669999,542.7326681669999,542.7326681669999,542.7326681669999,542.7326681669999,542.7326681669999,542.7326681669999,542.6492647923332,542.7326681669999,542.7326681669999,542.7326681669999,542.6492647923332,542.7326681669999,542.7326681669999,542.7326681669999,544.814602875,548.856391,542.7326681669999,542.7326681669999,547.8904911249999,542.7326681669999,542.7326681669999,542.7326681669999,542.7326681669999,543.2058513750001,544.2497420839998,543.1752352916665,,544.814602875,545.8650272090001,544.7840172916667,545.8650272090001,542.7326681669999,547.8904911249999,542.7326681669999,547.8904911249999,547.9319565419999,548.5968257090001,542.7326681669999,1,0,0.3271655410001131,reldom2_s006,001,2025-01-31_14h33.41.478,Aud-A-Scan_AC,2022.2.5,None,
46,First_Order,8.0,audwhat,stimulus/audwhat_stim/dummy.wav,stimulus/audwhat_stim/dummy.wav,stimulus/audwhat_stim/percussion mallet_low-pitch_Ftri_loud.wav,stimulus/audwhat_stim/percussion mallet_high-pitch_F_loud.wav,stimulus/audwhat_stim/blank_white.png,stimulus/audwhat_stim/category_box.png,stimulus/audwhat_stim/category_yes.png,stimulus/audwhat_stim/category_no.png,None,Category,None,Category,1,0.0,0,5.125,0,5.125,0,5.125,0,0.0,0.625,0,0,0,0,0,0,0,0,0,0.0,0,0.0,1,0.5,1,2.125,0,,,,,0,60,60,60,,,,,,,,,548.856391,548.856391,548.856391,548.856391,548.856391,548.856391,548.856391,548.856391,548.7718977503331,548.856391,548.856391,548.856391,548.7718977503331,548.856391,548.856391,548.856391,550.9389277500002,555.0033768340002,548.856391,548.856391,554.0132316669999,548.856391,548.856391,548.856391,548.856391,549.3295694999999,550.3726717500001,549.2988269586667,,550.9389277500002,551.9831005419999,550.9083866666665,,548.856391,554.0132316669999,548.856391,554.0132316669999,554.055098042,554.7205665839999,548.856391,1,1,0.9386640409995834,reldom2_s006,001,2025-01-31_14h33.41.478,Aud-A-Scan_AC,2022.2.5,None,
0,0.0,None,fixation,stimulus/audwhere_stim/blank_white.png,stimulus/audwhere_stim/blank_white.png,stimulus/audwhat_stim/blank_white.png,stimulus/audwhat_stim/blank_white.png,stimulus/audwhere_stim/blank_white.png,stimulus/audwhere_stim/blank_white.png,stimulus/audwhere_stim/blank_white.png,stimulus/audwhere_stim/blank_white.png,0.0,0.0,0.0,0.0,0,0.0,0,0.0,0,0.0,0,0.0,0,0.0,0.0,0,0,0,0,0,0,0,0,0,0.0,0,0.0,0,0.0,0,0.0,8,,,,,0,61,61,61,,,,,,,,,555.0033768340002,555.0033768340002,555.0033768340002,555.0033768340002,555.0033768340002,555.0033768340002,555.0033768340002,555.0033768340002,554.8952389583332,555.0033768340002,555.0033768340002,555.0033768340002,554.8952389583332,555.0033768340002,555.0033768340002,555.0033768340002,555.0033768340002,555.0033768340002,555.0033768340002,555.0033768340002,555.0033768340002,555.0033768340002,555.0033768340002,555.0033768340002,555.0033768340002,555.0033768340002,555.0033768340002,554.9619056249998,555.0033768340002,555.0033768340002,555.0033768340002,554.9619056249998,555.0033768340002,555.0033768340002,555.0033768340002,555.0033768340002,555.0033768340002,560.2178194999999,560.2178194999999,563.1857339169999,None,0,,reldom2_s006,001,2025-01-31_14h33.41.478,Aud-A-Scan_AC,2022.2.5,None,
47,Second_Order,8.0,audwhat,stimulus/audwhat_stim/string cello_high-pitch_F_loud.wav,stimulus/audwhat_stim/string viola_low-pitch_D_loud.wav,stimulus/audwhat_stim/percussion mallet_low-pitch_Ftri_loud.wav,stimulus/audwhat_stim/percussion xylophone_high-pitch_F_loud.wav,stimulus/audwhere_stim/match_blank.png,stimulus/audwhat_stim/match_box.png,stimulus/audwhere_stim/match_yes.png,stimulus/audwhere_stim/match_no.png,1.0,Match,Category,Category,1,5.125,0,5.125,0,5.125,0,5.125,0,0.75,0.75,0,0,0,0,0,0,0,0,1,0.5,1,2.125,1,0.5,1,2.125,0,,,,,0,62,62,62,,,,,,,,,563.1857339169999,568.3084093340001,563.1857339169999,563.1857339169999,563.1857339169999,563.1857339169999,563.6348949999999,564.6332716250001,563.6475359166666,,565.2684324999998,566.2574837499999,565.2720425836665,,568.3084093340001,569.1418444170001,571.205321959,,569.1418444170001,569.1418444170001,574.3180506249998,569.1418444170001,569.1418444170001,569.1418444170001,569.1418444170001,569.6098870839999,570.6435989589997,569.5793611256668,,571.205321959,572.2485034590002,571.1751907916664,572.2485034590002,569.1418444170001,574.3180506249998,569.1418444170001,574.3180506249998,574.3592443750001,,569.1418444170001,1,1,0.9535324579999269,reldom2_s006,001,2025-01-31_14h33.41.478,Aud-A-Scan_AC,2022.2.5,None,
48,Second_Order,8.0,audwhat,stimulus/audwhat_stim/percussion mallet_high-pitch_Ftri_loud.wav,stimulus/audwhat_stim/percussion mallet_low-pitch_D_loud.wav,stimulus/audwhat_stim/string cello_high-pitch_Ftri_loud.wav,stimulus/audwhat_stim/percussion xylophone_high-pitch_Ftri_loud.wav,stimulus/audwhere_stim/match_blank.png,stimulus/audwhat_stim/match_box.png,stimulus/audwhere_stim/match_yes.png,stimulus/audwhere_stim/match_no.png,2.0,Match,Category,Pitch,2,5.125,0,5.125,0,5.125,0,5.125,0,0.625,0.625,0,0,0,0,0,0,0,0,1,0.5,1,2.125,1,0.5,1,2.125,0,,,,,0,63,63,63,,,,,,,,,575.1402460000002,580.2583900419997,575.1402460000002,575.1402460000002,575.1402460000002,575.1402460000002,575.5963342090001,576.5941566670001,575.6083444166666,576.6021356250001,577.2167782919998,578.214769084,577.2288145006664,578.2229232090001,580.2583900419997,580.9673378750001,583.0679605419998,587.0932277499999,580.9673378750001,580.9673378750001,586.1167563749998,580.9673378750001,580.9673378750001,580.9673378750001,580.9673378750001,581.4322530840002,582.461732125,581.4021451256667,,583.0679605419998,584.1052191249998,583.0381436256666,584.1052191249998,580.9673378750001,586.1167563749998,580.9673378750001,586.1167563749998,586.1579332499998,586.8144512920001,580.9673378750001,2,1,1.154562832000238,reldom2_s006,001,2025-01-31_14h33.41.478,Aud-A-Scan_AC,2022.2.5,None,
0,0.0,None,fixation,stimulus/audwhere_stim/blank_white.png,stimulus/audwhere_stim/blank_white.png,stimulus/audwhat_stim/blank_white.png,stimulus/audwhat_stim/blank_white.png,stimulus/audwhere_stim/blank_white.png,stimulus/audwhere_stim/blank_white.png,stimulus/audwhere_stim/blank_white.png,stimulus/audwhere_stim/blank_white.png,0.0,0.0,0.0,0.0,0,0.0,0,0.0,0,0.0,0,0.0,0,0.0,0.0,0,0,0,0,0,0,0,0,0,0.0,0,0.0,0,0.0,0,0.0,16,,,,,0,64,64,64,,,,,,,,,587.0932277499999,587.0932277499999,587.0932277499999,587.0932277499999,587.0932277499999,587.0932277499999,587.0932277499999,587.0932277499999,586.9892541253333,587.0932277499999,587.0932277499999,587.0932277499999,586.9892541253333,587.0932277499999,587.0932277499999,587.0932277499999,587.0932277499999,587.0932277499999,587.0932277499999,587.0932277499999,587.0932277499999,587.0932277499999,587.0932277499999,587.0932277499999,587.0932277499999,587.0932277499999,587.0932277499999,587.0392541253333,587.0932277499999,587.0932277499999,587.0932277499999,587.0392541253333,587.0932277499999,587.0932277499999,587.0932277499999,587.0932277499999,587.0932277499999,592.3190940420002,592.3190940420002,603.2559402499999,None,0,,reldom2_s006,001,2025-01-31_14h33.41.478,Aud-A-Scan_AC,2022.2.5,None,
