Trial,Order,Block,Type,Stimuli_File1,Stimuli_File2,Stimuli_File3,Stimuli_File4,Cue_File1,Cue_File2,Response_File_Yes,Response_File_No,Match,Cue_Dimension,Pair1_Dimension,Pair2_Dimension,Key,Cue1_Duration,Cue1_Onset,Cue2_Duration,Cue2_Onset,ResponseYes_Duration,ResponseYes_Onset,ResponseNo_Duration,ResponseNo_Onset,ITI_Within,ITI_Between,Image1_Duration,Image1_Onset,Image2_Duration,Image2_Onset,Image3_Duration,Image3_Onset,Image4_Duration,Image4_Onset,Sound1_Duration,Sound1_Onset,Sound2_Duration,Sound2_Onset,Sound3_Duration,Sound3_Onset,Sound4_Duration,Sound4_Onset,Fixation_Duration,trials_2.thisRepN,trials_2.thisTrialN,trials_2.thisN,trials_2.thisIndex,trials.thisRepN,trials.thisTrialN,trials.thisN,trials.thisIndex,text_start.started,key_resp_start.started,key_resp_start.keys,key_resp_start.rt,text2.started,key_resp_2.started,key_resp_2.keys,key_resp_2.rt,cue_file1.started,cue_file1.stopped,image_1.started,image_1.stopped,image_2.started,image_2.stopped,sound_icon1.started,sound_icon1.stopped,sound_1.started,sound_1.stopped,sound_icon2.started,sound_icon2.stopped,sound_2.started,sound_2.stopped,image_blank_1.started,image_blank_1.stopped,key_press.started,key_press.stopped,fixation_text.started,cue_file2.started,cue_file2.stopped,image_3.started,image_3.stopped,image_4.started,image_4.stopped,sound_icon3.started,sound_icon3.stopped,sound_3.started,sound_3.stopped,sound_icon4.started,sound_icon4.stopped,sound_4.started,sound_4.stopped,response_yes.started,response_yes.stopped,response_no.started,response_no.stopped,iti_blank.started,iti_blank.stopped,fixation_text.stopped,key_press.keys,key_press.corr,key_press.rt,participant,session,date,expName,psychopyVersion,frameRate,
,,,,,,,,,,,,,,,,,,,,,,,,,,,,,,,,,,,,,,,,,,,,,,,,,,,,7.563709541999742,7.563709541999742,2,4.530590457000471,,,,,,,,,,,,,,,,,,,,,,,,,,,,,,,,,,,,,,,,,,,,,,,,reldom2_s006,001,2025-01-31_14h56.08.417,What-A-Scan_AC,2022.2.5,None,
,,,,,,,,,,,,,,,,,,,,,,,,,,,,,,,,,,,,,,,,,,,,0,0,0,0,,,,,,,,,12.122556583999994,12.122556583999994,5,17.707058791000236,,,,,,,,,,,,,,,,,,,,,,,,,,,,,,,,,,,,,,,,,,,,reldom2_s006,001,2025-01-31_14h56.08.417,What-A-Scan_AC,2022.2.5,None,
,,,,,,,,,,,,,,,,,,,,,,,,,,,,,,,,,,,,,,,,,,,,1,0,1,0,,,,,,,,,29.84313474999999,29.84313474999999,5,1.98630995800022,,,,,,,,,,,,,,,,,,,,,,,,,,,,,,,,,,,,,,,,,,,,reldom2_s006,001,2025-01-31_14h56.08.417,What-A-Scan_AC,2022.2.5,None,
,,,,,,,,,,,,,,,,,,,,,,,,,,,,,,,,,,,,,,,,,,,,2,0,2,0,,,,,,,,,31.841330499999913,31.841330499999913,5,1.991598748999877,,,,,,,,,,,,,,,,,,,,,,,,,,,,,,,,,,,,,,,,,,,,reldom2_s006,001,2025-01-31_14h56.08.417,What-A-Scan_AC,2022.2.5,None,
,,,,,,,,,,,,,,,,,,,,,,,,,,,,,,,,,,,,,,,,,,,,3,0,3,0,,,,,,,,,33.84638379199987,33.84638379199987,5,1.9838275819997762,,,,,,,,,,,,,,,,,,,,,,,,,,,,,,,,,,,,,,,,,,,,reldom2_s006,001,2025-01-31_14h56.08.417,What-A-Scan_AC,2022.2.5,None,
0,0.0,None,fixation,stimulus/audwhat_stim/blank_white.png,stimulus/audwhat_stim/blank_white.png,stimulus/viswhat_stim/blank_white.png,stimulus/viswhat_stim/blank_white.png,stimulus/audwhat_stim/blank_white.png,stimulus/audwhat_stim/blank_white.png,stimulus/audwhat_stim/blank_white.png,stimulus/audwhat_stim/blank_white.png,0.0,0.0,0.0,0.0,0,0.0,0,0.0,0,0.0,0,0.0,0,0.0,0.0,0,0.0,0,0.0,0,0.0,0,0.0,0,0.0,0,0.0,0,0.0,0,0.0,16,,,,,0,0,0,0,,,,,,,,,36.02888679199987,36.02888679199987,36.02888679199987,36.02888679199987,36.02888679199987,36.02888679199987,36.02888679199987,36.02888679199987,35.934715250000046,36.02888679199987,36.02888679199987,36.02888679199987,35.934715250000046,36.02888679199987,36.02888679199987,36.02888679199987,36.02888679199987,36.02888679199987,36.02888679199987,36.02888679199987,36.02888679199987,36.02888679199987,36.02888679199987,36.02888679199987,36.02888679199987,36.02888679199987,36.02888679199987,35.98471525000004,36.02888679199987,36.02888679199987,36.02888679199987,35.98471525000004,36.02888679199987,36.02888679199987,36.02888679199987,36.02888679199987,36.02888679199987,41.208510166999986,41.208510166999986,52.27385420900009,None,0,,reldom2_s006,001,2025-01-31_14h56.08.417,What-A-Scan_AC,2022.2.5,None,
1,First_Order,1.0,audwhat,stimulus/audwhat_stim/dummy.wav,stimulus/audwhat_stim/dummy.wav,stimulus/audwhat_stim/percussion mallet_low-pitch_Dtri_loud.wav,stimulus/audwhat_stim/percussion xylophone_high-pitch_F_loud.wav,stimulus/audwhat_stim/blank_white.png,stimulus/audwhat_stim/pitch_box.png,stimulus/audwhat_stim/pitch_yes.png,stimulus/audwhat_stim/pitch_no.png,None,Pitch,None,Category,2,0.0,0,5.125,0,5.125,0,5.125,0,0.0,0.625,0,0.0,0,0.0,0,0.0,0,0.0,0,0.0,0,0.0,1,0.5,1,2.125,0,,,,,0,1,1,1,,,,,,,,,52.27385420900009,52.27385420900009,52.27385420900009,52.27385420900009,52.27385420900009,52.27385420900009,52.27385420900009,52.27385420900009,52.19382774999976,52.27385420900009,52.27385420900009,52.27385420900009,52.19382774999976,52.27385420900009,52.27385420900009,52.27385420900009,54.34841937500005,58.38510120899991,52.27385420900009,52.27385420900009,57.43819066700007,52.27385420900009,52.27385420900009,52.27385420900009,52.27385420900009,52.73363091700003,53.79407349999974,52.704048083666535,,54.34841937500005,55.41403516699984,54.318292041666396,55.36807233399986,52.27385420900009,57.43819066700007,52.27385420900009,57.43819066700007,57.47913158399979,58.1325213340001,52.27385420900009,2,1,1.0840673330003483,reldom2_s006,001,2025-01-31_14h56.08.417,What-A-Scan_AC,2022.2.5,None,
2,First_Order,1.0,audwhat,stimulus/audwhat_stim/dummy.wav,stimulus/audwhat_stim/dummy.wav,stimulus/audwhat_stim/percussion xylophone_high-pitch_Dtri_loud.wav,stimulus/audwhat_stim/percussion mallet_low-pitch_D_loud.wav,stimulus/audwhat_stim/blank_white.png,stimulus/audwhat_stim/pitch_box.png,stimulus/audwhat_stim/pitch_yes.png,stimulus/audwhat_stim/pitch_no.png,None,Pitch,None,Category,2,0.0,0,5.125,0,5.125,0,5.125,0,0.0,0.625,0,0.0,0,0.0,0,0.0,0,0.0,0,0.0,0,0.0,1,0.5,1,2.125,0,,,,,0,2,2,2,,,,,,,,,58.38510120899991,58.38510120899991,58.38510120899991,58.38510120899991,58.38510120899991,58.38510120899991,58.38510120899991,58.38510120899991,58.30682454233341,58.38510120899991,58.38510120899991,58.38510120899991,58.30682454233341,58.38510120899991,58.38510120899991,58.38510120899991,60.47413616699987,,58.38510120899991,58.38510120899991,63.53909316699992,58.38510120899991,58.38510120899991,58.38510120899991,58.38510120899991,58.85040395899978,59.918365042000005,58.82084737566653,59.871910083999865,60.47413616699987,61.54553991700004,60.443687166666464,,58.38510120899991,63.53909316699992,58.38510120899991,63.53909316699992,63.580588374999934,64.23338383400005,58.38510120899991,2,1,0.7966041660001792,reldom2_s006,001,2025-01-31_14h56.08.417,What-A-Scan_AC,2022.2.5,None,
3,First_Order,1.0,audwhat,stimulus/audwhat_stim/dummy.wav,stimulus/audwhat_stim/dummy.wav,stimulus/audwhat_stim/percussion mallet_low-pitch_F_loud.wav,stimulus/audwhat_stim/percussion xylophone_high-pitch_Ftri_loud.wav,stimulus/audwhat_stim/blank_white.png,stimulus/audwhat_stim/category_box.png,stimulus/audwhat_stim/category_yes.png,stimulus/audwhat_stim/category_no.png,None,Category,None,Category,1,0.0,0,5.125,0,5.125,0,5.125,0,0.0,0.625,0,0.0,0,0.0,0,0.0,0,0.0,0,0.0,0,0.0,1,0.5,1,2.125,0,,,,,0,3,3,3,,,,,,,,,64.48776891699981,64.48776891699981,64.48776891699981,64.48776891699981,64.48776891699981,64.48776891699981,64.48776891699981,64.48776891699981,64.40706366733332,64.48776891699981,64.48776891699981,64.48776891699981,64.40706366733332,64.48776891699981,64.48776891699981,64.48776891699981,66.59317216699992,,64.48776891699981,64.48776891699981,69.68319116700013,64.48776891699981,64.48776891699981,64.48776891699981,64.48776891699981,64.95535012499977,65.98597391700014,64.92486287566659,,66.59317216699992,67.630201167,66.56259162566654,67.630201167,64.48776891699981,69.68319116700013,64.48776891699981,69.68319116700013,69.68319116700013,70.34275995899998,64.48776891699981,1,1,1.013331166000171,reldom2_s006,001,2025-01-31_14h56.08.417,What-A-Scan_AC,2022.2.5,None,
4,First_Order,1.0,audwhat,stimulus/audwhat_stim/dummy.wav,stimulus/audwhat_stim/dummy.wav,stimulus/audwhat_stim/percussion mallet_low-pitch_Dtri_loud.wav,stimulus/audwhat_stim/percussion mallet_high-pitch_F_loud.wav,stimulus/audwhat_stim/blank_white.png,stimulus/audwhat_stim/category_box.png,stimulus/audwhat_stim/category_yes.png,stimulus/audwhat_stim/category_no.png,None,Category,None,Category,1,0.0,0,5.125,0,5.125,0,5.125,0,0.0,0.625,0,0.0,0,0.0,0,0.0,0,0.0,0,0.0,0,0.0,1,0.5,1,2.125,0,,,,,0,4,4,4,,,,,,,,,70.59893345899991,70.59893345899991,70.59893345899991,70.59893345899991,70.59893345899991,70.59893345899991,70.59893345899991,70.59893345899991,70.51725258333329,70.59893345899991,70.59893345899991,70.59893345899991,70.51725258333329,70.59893345899991,70.59893345899991,70.59893345899991,72.70811700000013,76.73940208399972,70.59893345899991,70.59893345899991,75.75509254200006,70.59893345899991,70.59893345899991,70.59893345899991,70.59893345899991,71.06740512499982,72.09788416699985,71.03713604166639,,72.70811700000013,73.74022058399987,72.67754283366664,,70.59893345899991,75.75509254200006,70.59893345899991,75.75509254200006,75.79606491699997,76.45863699999973,70.59893345899991,1,1,0.6798056659999929,reldom2_s006,001,2025-01-31_14h56.08.417,What-A-Scan_AC,2022.2.5,None,
0,0.0,None,fixation,stimulus/audwhat_stim/blank_white.png,stimulus/audwhat_stim/blank_white.png,stimulus/viswhat_stim/blank_white.png,stimulus/viswhat_stim/blank_white.png,stimulus/audwhat_stim/blank_white.png,stimulus/audwhat_stim/blank_white.png,stimulus/audwhat_stim/blank_white.png,stimulus/audwhat_stim/blank_white.png,0.0,0.0,0.0,0.0,0,0.0,0,0.0,0,0.0,0,0.0,0,0.0,0.0,0,0.0,0,0.0,0,0.0,0,0.0,0,0.0,0,0.0,0,0.0,0,0.0,10,,,,,0,5,5,5,,,,,,,,,76.73940208399972,76.73940208399972,76.73940208399972,76.73940208399972,76.73940208399972,76.73940208399972,76.73940208399972,76.73940208399972,76.65010504200009,76.73940208399972,76.73940208399972,76.73940208399972,76.65010504200009,76.73940208399972,76.73940208399972,76.73940208399972,76.73940208399972,76.73940208399972,76.73940208399972,76.73940208399972,76.73940208399972,76.73940208399972,76.73940208399972,76.73940208399972,76.73940208399972,76.73940208399972,76.73940208399972,76.70010504200009,76.73940208399972,76.73940208399972,76.73940208399972,76.70010504200009,76.73940208399972,76.73940208399972,76.73940208399972,76.73940208399972,76.73940208399972,81.95783799999981,81.95783799999981,86.90588645900016,None,0,,reldom2_s006,001,2025-01-31_14h56.08.417,What-A-Scan_AC,2022.2.5,None,
5,Second_Order,1.0,audwhat,stimulus/audwhat_stim/string cello_low-pitch_D_loud.wav,stimulus/audwhat_stim/string viola_high-pitch_Dtri_loud.wav,stimulus/audwhat_stim/percussion mallet_low-pitch_D_loud.wav,stimulus/audwhat_stim/string viola_low-pitch_D_loud.wav,stimulus/audwhat_stim/match_blank.png,stimulus/audwhat_stim/match_box.png,stimulus/audwhat_stim/match_yes.png,stimulus/audwhat_stim/match_no.png,2.0,Match,Category,Pitch,2,5.125,0,5.125,0,5.125,0,5.125,0,0.75,0.75,0,0.0,0,0.0,0,0.0,0,0.0,1,0.5,1,2.125,1,0.5,1,2.125,0,,,,,0,6,6,6,,,,,,,,,86.90588645900016,92.01874187500016,86.90588645900016,86.90588645900016,86.90588645900016,86.90588645900016,87.35791470899994,88.35566320899989,87.37023533366643,,88.97919241699992,89.9761148749999,88.99081679166672,,92.01874187500016,92.85080854199987,94.94873408400008,,92.85080854199987,92.85080854199987,98.02731700000004,92.85080854199987,92.85080854199987,92.85080854199987,92.85080854199987,93.31726362500012,94.39027970899997,93.28673616666653,,94.94873408400008,95.97799795899982,94.91899504166646,,92.85080854199987,98.02731700000004,92.85080854199987,98.02731700000004,98.06853825000007,,92.85080854199987,2,1,0.9568159569998897,reldom2_s006,001,2025-01-31_14h56.08.417,What-A-Scan_AC,2022.2.5,None,
6,Second_Order,1.0,audwhat,stimulus/audwhat_stim/string cello_high-pitch_Dtri_loud.wav,stimulus/audwhat_stim/percussion mallet_high-pitch_Dtri_loud.wav,stimulus/audwhat_stim/percussion mallet_low-pitch_Ftri_loud.wav,stimulus/audwhat_stim/string cello_low-pitch_Ftri_loud.wav,stimulus/audwhat_stim/match_blank.png,stimulus/audwhat_stim/match_box.png,stimulus/audwhat_stim/match_yes.png,stimulus/audwhat_stim/match_no.png,1.0,Match,Pitch,Pitch,1,5.125,0,5.125,0,5.125,0,5.125,0,0.625,0.625,0,0.0,0,0.0,0,0.0,0,0.0,1,0.5,1,2.125,1,0.5,1,2.125,0,,,,,0,7,7,7,,,,,,,,,98.84493799999973,103.9629460000001,98.84493799999973,98.84493799999973,98.84493799999973,98.84493799999973,99.30201441700001,100.30028025000001,99.31433979166674,,100.92141704200003,101.90741187499998,100.93443279166674,101.92912524999974,103.9629460000001,104.67400079199979,106.76444133399991,110.81510616700007,104.67400079199979,104.67400079199979,109.8387654170001,104.67400079199979,104.67400079199979,104.67400079199979,104.67400079199979,105.13769616699983,106.20889108399979,105.10806495866679,,106.76444133399991,107.8382509590001,106.73385525066648,,104.67400079199979,109.8387654170001,104.67400079199979,109.8387654170001,109.88042695900003,110.53619437499992,104.67400079199979,1,1,1.1838522490002106,reldom2_s006,001,2025-01-31_14h56.08.417,What-A-Scan_AC,2022.2.5,None,
0,0.0,None,fixation,stimulus/audwhat_stim/blank_white.png,stimulus/audwhat_stim/blank_white.png,stimulus/viswhat_stim/blank_white.png,stimulus/viswhat_stim/blank_white.png,stimulus/audwhat_stim/blank_white.png,stimulus/audwhat_stim/blank_white.png,stimulus/audwhat_stim/blank_white.png,stimulus/audwhat_stim/blank_white.png,0.0,0.0,0.0,0.0,0,0.0,0,0.0,0,0.0,0,0.0,0,0.0,0.0,0,0.0,0,0.0,0,0.0,0,0.0,0,0.0,0,0.0,0,0.0,0,0.0,9,,,,,0,8,8,8,,,,,,,,,110.81510616700007,110.81510616700007,110.81510616700007,110.81510616700007,110.81510616700007,110.81510616700007,110.81510616700007,110.81510616700007,110.70988420833339,110.81510616700007,110.81510616700007,110.81510616700007,110.70988420833339,110.81510616700007,110.81510616700007,110.81510616700007,110.81510616700007,110.81510616700007,110.81510616700007,110.81510616700007,110.81510616700007,110.81510616700007,110.81510616700007,110.81510616700007,110.81510616700007,110.81510616700007,110.81510616700007,110.7598842083334,110.81510616700007,110.81510616700007,110.81510616700007,110.7598842083334,110.81510616700007,110.81510616700007,110.81510616700007,110.81510616700007,110.81510616700007,116.01393504199996,116.01393504199996,120.0770753339998,None,0,,reldom2_s006,001,2025-01-31_14h56.08.417,What-A-Scan_AC,2022.2.5,None,
7,First_Order,2.0,audwhat,stimulus/audwhat_stim/dummy.wav,stimulus/audwhat_stim/dummy.wav,stimulus/audwhat_stim/string cello_low-pitch_F_loud.wav,stimulus/audwhat_stim/percussion mallet_low-pitch_F_loud.wav,stimulus/audwhat_stim/blank_white.png,stimulus/audwhat_stim/pitch_box.png,stimulus/audwhat_stim/pitch_yes.png,stimulus/audwhat_stim/pitch_no.png,None,Pitch,None,Pitch,1,0.0,0,5.125,0,5.125,0,5.125,0,0.0,0.625,0,0.0,0,0.0,0,0.0,0,0.0,0,0.0,0,0.0,1,0.5,1,2.125,0,,,,,0,9,9,9,,,,,,,,,120.0770753339998,120.0770753339998,120.0770753339998,120.0770753339998,120.0770753339998,120.0770753339998,120.0770753339998,120.0770753339998,119.99978454166664,120.0770753339998,120.0770753339998,120.0770753339998,119.99978454166664,120.0770753339998,120.0770753339998,120.0770753339998,122.18169987500005,,120.0770753339998,120.0770753339998,125.26958687499973,120.0770753339998,120.0770753339998,120.0770753339998,120.0770753339998,120.54489470899989,121.61871958399979,120.51421270866673,,122.18169987500005,123.21252441699971,122.15142545866662,,120.0770753339998,125.26958687499973,120.0770753339998,125.26958687499973,125.26958687499973,125.92953924999983,120.0770753339998,1,1,1.7962635409999166,reldom2_s006,001,2025-01-31_14h56.08.417,What-A-Scan_AC,2022.2.5,None,
8,First_Order,2.0,audwhat,stimulus/audwhat_stim/dummy.wav,stimulus/audwhat_stim/dummy.wav,stimulus/audwhat_stim/string cello_low-pitch_Dtri_loud.wav,stimulus/audwhat_stim/percussion mallet_low-pitch_Dtri_loud.wav,stimulus/audwhat_stim/blank_white.png,stimulus/audwhat_stim/category_box.png,stimulus/audwhat_stim/category_yes.png,stimulus/audwhat_stim/category_no.png,None,Category,None,Pitch,2,0.0,0,5.125,0,5.125,0,5.125,0,0.0,0.625,0,0.0,0,0.0,0,0.0,0,0.0,0,0.0,0,0.0,1,0.5,1,2.125,0,,,,,0,10,10,10,,,,,,,,,126.18667312499974,126.18667312499974,126.18667312499974,126.18667312499974,126.18667312499974,126.18667312499974,126.18667312499974,126.18667312499974,126.10440887533343,126.18667312499974,126.18667312499974,126.18667312499974,126.10440887533343,126.18667312499974,126.18667312499974,126.18667312499974,128.25678108400007,,126.18667312499974,126.18667312499974,131.3588301249997,126.18667312499974,126.18667312499974,126.18667312499974,126.18667312499974,126.65775699999995,127.69104308399983,126.6269982086667,,128.25678108400007,129.29189199999973,128.22590479166664,,126.18667312499974,131.3588301249997,126.18667312499974,131.3588301249997,131.4003648339999,132.06473574999973,126.18667312499974,2,1,1.7042014999997264,reldom2_s006,001,2025-01-31_14h56.08.417,What-A-Scan_AC,2022.2.5,None,
9,First_Order,2.0,audwhat,stimulus/audwhat_stim/dummy.wav,stimulus/audwhat_stim/dummy.wav,stimulus/audwhat_stim/string cello_high-pitch_F_loud.wav,stimulus/audwhat_stim/percussion mallet_high-pitch_F_loud.wav,stimulus/audwhat_stim/blank_white.png,stimulus/audwhat_stim/pitch_box.png,stimulus/audwhat_stim/pitch_yes.png,stimulus/audwhat_stim/pitch_no.png,None,Pitch,None,Pitch,1,0.0,0,5.125,0,5.125,0,5.125,0,0.0,0.625,0,0.0,0,0.0,0,0.0,0,0.0,0,0.0,0,0.0,1,0.5,1,2.125,0,,,,,0,11,11,11,,,,,,,,,132.28196016699985,132.28196016699985,132.28196016699985,132.28196016699985,132.28196016699985,132.28196016699985,132.28196016699985,132.28196016699985,132.19806908333308,132.28196016699985,132.28196016699985,132.28196016699985,132.19806908333308,132.28196016699985,132.28196016699985,132.28196016699985,134.39468970899998,138.4077525419998,132.28196016699985,132.28196016699985,137.44753645899982,132.28196016699985,132.28196016699985,132.28196016699985,132.28196016699985,132.7506226669998,133.782231959,132.71984700066676,,134.39468970899998,135.43097754200016,134.36391929166646,,132.28196016699985,137.44753645899982,132.28196016699985,137.44753645899982,137.4888864999998,138.15075754200006,132.28196016699985,1,1,0.9731895410000106,reldom2_s006,001,2025-01-31_14h56.08.417,What-A-Scan_AC,2022.2.5,None,
10,First_Order,2.0,audwhat,stimulus/audwhat_stim/dummy.wav,stimulus/audwhat_stim/dummy.wav,stimulus/audwhat_stim/percussion xylophone_high-pitch_D_loud.wav,stimulus/audwhat_stim/string cello_high-pitch_D_loud.wav,stimulus/audwhat_stim/blank_white.png,stimulus/audwhat_stim/category_box.png,stimulus/audwhat_stim/category_yes.png,stimulus/audwhat_stim/category_no.png,None,Category,None,Pitch,2,0.0,0,5.125,0,5.125,0,5.125,0,0.0,0.625,0,0.0,0,0.0,0,0.0,0,0.0,0,0.0,0,0.0,1,0.5,1,2.125,0,,,,,0,12,12,12,,,,,,,,,138.4077525419998,138.4077525419998,138.4077525419998,138.4077525419998,138.4077525419998,138.4077525419998,138.4077525419998,138.4077525419998,138.32521162533308,138.4077525419998,138.4077525419998,138.4077525419998,138.32521162533308,138.4077525419998,138.4077525419998,138.4077525419998,140.4907639590001,144.54574645899993,138.4077525419998,138.4077525419998,143.55970070900003,138.4077525419998,138.4077525419998,138.4077525419998,138.4077525419998,138.88060770899983,139.9244914589999,138.8497242506667,139.9244914589999,140.4907639590001,141.53117162499984,140.45993275066647,,138.4077525419998,143.55970070900003,138.4077525419998,143.55970070900003,143.60133395899993,144.2673824999997,138.4077525419998,2,1,0.9261515830003191,reldom2_s006,001,2025-01-31_14h56.08.417,What-A-Scan_AC,2022.2.5,None,
0,0.0,None,fixation,stimulus/audwhat_stim/blank_white.png,stimulus/audwhat_stim/blank_white.png,stimulus/viswhat_stim/blank_white.png,stimulus/viswhat_stim/blank_white.png,stimulus/audwhat_stim/blank_white.png,stimulus/audwhat_stim/blank_white.png,stimulus/audwhat_stim/blank_white.png,stimulus/audwhat_stim/blank_white.png,0.0,0.0,0.0,0.0,0,0.0,0,0.0,0,0.0,0,0.0,0,0.0,0.0,0,0.0,0,0.0,0,0.0,0,0.0,0,0.0,0,0.0,0,0.0,0,0.0,10,,,,,0,13,13,13,,,,,,,,,144.54574645899993,144.54574645899993,144.54574645899993,144.54574645899993,144.54574645899993,144.54574645899993,144.54574645899993,144.54574645899993,144.44152191733352,144.54574645899993,144.54574645899993,144.54574645899993,144.44152191733352,144.54574645899993,144.54574645899993,144.54574645899993,144.54574645899993,144.54574645899993,144.54574645899993,144.54574645899993,144.54574645899993,144.54574645899993,144.54574645899993,144.54574645899993,144.54574645899993,144.54574645899993,144.54574645899993,144.4915219173335,144.54574645899993,144.54574645899993,144.54574645899993,144.4915219173335,144.54574645899993,144.54574645899993,144.54574645899993,144.54574645899993,144.54574645899993,149.75476475000005,149.75476475000005,154.67811779199974,None,0,,reldom2_s006,001,2025-01-31_14h56.08.417,What-A-Scan_AC,2022.2.5,None,
11,Second_Order,2.0,audwhat,stimulus/audwhat_stim/string viola_high-pitch_D_loud.wav,stimulus/audwhat_stim/percussion xylophone_high-pitch_D_loud.wav,stimulus/audwhat_stim/percussion mallet_low-pitch_F_loud.wav,stimulus/audwhat_stim/string viola_low-pitch_F_loud.wav,stimulus/audwhat_stim/match_blank.png,stimulus/audwhat_stim/match_box.png,stimulus/audwhat_stim/match_yes.png,stimulus/audwhat_stim/match_no.png,1.0,Match,Pitch,Pitch,1,5.125,0,5.125,0,5.125,0,5.125,0,0.75,0.75,0,0.0,0,0.0,0,0.0,0,0.0,1,0.5,1,2.125,1,0.5,1,2.125,0,,,,,0,14,14,14,,,,,,,,,154.67811779199974,159.79292495899972,154.67811779199974,154.67811779199974,154.67811779199974,154.67811779199974,155.13037029199995,156.12892216699993,155.14299250066668,,156.75128512499987,157.74931958399975,156.76352204166668,157.75739470899998,159.79292495899972,160.62480704200016,162.687745792,166.64578504199972,160.62480704200016,160.62480704200016,165.77960054200003,160.62480704200016,160.62480704200016,160.62480704200016,160.62480704200016,161.0930820839999,162.1254131249998,161.06255350066684,,162.687745792,163.71931604199972,162.65707475066645,,160.62480704200016,165.77960054200003,160.62480704200016,165.77960054200003,165.8212938749998,,160.62480704200016,1,1,3.1964202909998676,reldom2_s006,001,2025-01-31_14h56.08.417,What-A-Scan_AC,2022.2.5,None,
12,Second_Order,2.0,audwhat,stimulus/audwhat_stim/percussion mallet_high-pitch_Dtri_loud.wav,stimulus/audwhat_stim/string viola_high-pitch_Dtri_loud.wav,stimulus/audwhat_stim/string viola_low-pitch_Dtri_loud.wav,stimulus/audwhat_stim/percussion mallet_low-pitch_Dtri_loud.wav,stimulus/audwhat_stim/match_blank.png,stimulus/audwhat_stim/match_box.png,stimulus/audwhat_stim/match_yes.png,stimulus/audwhat_stim/match_no.png,1.0,Match,Pitch,Pitch,1,5.125,0,5.125,0,5.125,0,5.125,0,0.625,0.625,0,0.0,0,0.0,0,0.0,0,0.0,1,0.5,1,2.125,1,0.5,1,2.125,0,,,,,0,15,15,15,,,,,,,,,166.64578504199972,171.76945858399995,166.64578504199972,166.64578504199972,166.64578504199972,166.64578504199972,167.1040808749999,168.0928805839999,167.1074773756666,168.105999334,168.72943795899982,169.72681412500015,168.74135250066664,,171.76945858399995,172.48072304200014,174.53900970899986,178.61064050000004,172.48072304200014,172.48072304200014,177.67230720899988,172.48072304200014,172.48072304200014,172.48072304200014,172.48072304200014,172.95034612500012,174.02610712499973,172.91971066666682,,174.53900970899986,175.61398699999972,174.5086682506665,,172.48072304200014,177.67230720899988,172.48072304200014,177.67230720899988,177.67230720899988,178.33200895899972,172.48072304200014,2,0,1.138908499000081,reldom2_s006,001,2025-01-31_14h56.08.417,What-A-Scan_AC,2022.2.5,None,
0,0.0,None,fixation,stimulus/audwhat_stim/blank_white.png,stimulus/audwhat_stim/blank_white.png,stimulus/viswhat_stim/blank_white.png,stimulus/viswhat_stim/blank_white.png,stimulus/audwhat_stim/blank_white.png,stimulus/audwhat_stim/blank_white.png,stimulus/audwhat_stim/blank_white.png,stimulus/audwhat_stim/blank_white.png,0.0,0.0,0.0,0.0,0,0.0,0,0.0,0,0.0,0,0.0,0,0.0,0.0,0,0.0,0,0.0,0,0.0,0,0.0,0,0.0,0,0.0,0,0.0,0,0.0,8,,,,,0,16,16,16,,,,,,,,,178.61064050000004,178.61064050000004,178.61064050000004,178.61064050000004,178.61064050000004,178.61064050000004,178.61064050000004,178.61064050000004,178.50617162533322,178.61064050000004,178.61064050000004,178.61064050000004,178.50617162533322,178.61064050000004,178.61064050000004,178.61064050000004,178.61064050000004,178.61064050000004,178.61064050000004,178.61064050000004,178.61064050000004,178.61064050000004,178.61064050000004,178.61064050000004,178.61064050000004,178.61064050000004,178.61064050000004,178.5561716253332,178.61064050000004,178.61064050000004,178.61064050000004,178.5561716253332,178.61064050000004,178.61064050000004,178.61064050000004,178.61064050000004,178.61064050000004,183.83988562500008,183.83988562500008,187.00353987500011,None,0,,reldom2_s006,001,2025-01-31_14h56.08.417,What-A-Scan_AC,2022.2.5,None,
13,First_Order,3.0,viswhat,stimulus/viswhat_stim/blank_white.png,stimulus/viswhat_stim/blank_white.png,stimulus/viswhat_stim/water_vehicle-cruiseship.png,stimulus/viswhat_stim/land_vehicle-pickuptruck.png,stimulus/viswhat_stim/blank_white.png,stimulus/viswhat_stim/type_box.png,stimulus/viswhat_stim/type_yes.png,stimulus/viswhat_stim/type_no.png,None,Type,None,Type,1,0.0,0,5.125,0,5.125,0,5.125,0,0.0,0.625,0,0.0,0,0.0,1,0.5,1,2.125,0,0.0,0,0.0,0,0.0,0,0.0,0,,,,,0,17,17,17,,,,,,,,,187.00353987500011,187.00353987500011,187.00353987500011,187.00353987500011,187.00353987500011,187.00353987500011,187.00353987500011,187.00353987500011,186.80547254166657,187.00353987500011,187.00353987500011,187.00353987500011,186.80547254166657,187.00353987500011,187.00353987500011,187.00353987500011,189.0653117500001,,187.00353987500011,187.00353987500011,192.29821012499997,187.39577425000016,188.4776925000001,189.0653117500001,190.14629158399975,187.00353987500011,187.00353987500011,186.90547254166657,187.00353987500011,187.00353987500011,187.00353987500011,186.90547254166657,187.00353987500011,187.00353987500011,192.29821012499997,187.00353987500011,192.29821012499997,192.20491741700016,,187.00353987500011,1,1,0.972903290999966,reldom2_s006,001,2025-01-31_14h56.08.417,What-A-Scan_AC,2022.2.5,None,
14,First_Order,3.0,viswhat,stimulus/viswhat_stim/blank_white.png,stimulus/viswhat_stim/blank_white.png,stimulus/viswhat_stim/water_animal-lobster.png,stimulus/viswhat_stim/water_vehicle-cruiseship.png,stimulus/viswhat_stim/blank_white.png,stimulus/viswhat_stim/location_box.png,stimulus/viswhat_stim/location_yes.png,stimulus/viswhat_stim/location_no.png,None,Location,None,Location,1,0.0,0,5.125,0,5.125,0,5.125,0,0.0,0.625,0,0.0,0,0.0,1,0.5,1,2.125,0,0.0,0,0.0,0,0.0,0,0.0,0,,,,,0,18,18,18,,,,,,,,,193.4451785000001,193.4451785000001,193.4451785000001,193.4451785000001,193.4451785000001,193.4451785000001,193.4451785000001,193.4451785000001,193.00842550000016,193.4451785000001,193.4451785000001,193.4451785000001,193.00842550000016,193.4451785000001,193.4451785000001,193.4451785000001,195.47055445900014,,193.4451785000001,193.4451785000001,198.83595945900015,193.89751887500006,195.24622724999972,195.47055445900014,196.81918454200013,193.4451785000001,193.4451785000001,193.22509216666683,193.4451785000001,193.4451785000001,193.4451785000001,193.22509216666683,193.4451785000001,193.4451785000001,198.83595945900015,193.4451785000001,198.83595945900015,198.61460404199988,,193.4451785000001,1,1,0.5298276240000632,reldom2_s006,001,2025-01-31_14h56.08.417,What-A-Scan_AC,2022.2.5,None,
15,First_Order,3.0,viswhat,stimulus/viswhat_stim/blank_white.png,stimulus/viswhat_stim/blank_white.png,stimulus/viswhat_stim/water_vehicle-cruiseship.png,stimulus/viswhat_stim/land_vehicle-bus.png,stimulus/viswhat_stim/blank_white.png,stimulus/viswhat_stim/location_box.png,stimulus/viswhat_stim/location_yes.png,stimulus/viswhat_stim/location_no.png,None,Location,None,Type,2,0.0,0,5.125,0,5.125,0,5.125,0,0.0,0.625,0,0.0,0,0.0,1,0.5,1,2.125,0,0.0,0,0.0,0,0.0,0,0.0,0,,,,,0,19,19,19,,,,,,,,,199.52855933399997,199.52855933399997,199.52855933399997,199.52855933399997,199.52855933399997,199.52855933399997,199.52855933399997,199.52855933399997,199.33595945900015,199.52855933399997,199.52855933399997,199.52855933399997,199.33595945900015,199.52855933399997,199.52855933399997,199.52855933399997,201.57980837500008,,199.52855933399997,199.52855933399997,204.75809637500015,199.94007595899984,201.06903258400007,201.57980837500008,202.7114930419998,199.52855933399997,199.52855933399997,199.43595945900017,199.52855933399997,199.52855933399997,199.52855933399997,199.43595945900017,199.52855933399997,199.52855933399997,204.75809637500015,199.52855933399997,204.75809637500015,204.66151283399995,,199.52855933399997,2,1,1.213957541000127,reldom2_s006,001,2025-01-31_14h56.08.417,What-A-Scan_AC,2022.2.5,None,
16,First_Order,3.0,viswhat,stimulus/viswhat_stim/blank_white.png,stimulus/viswhat_stim/blank_white.png,stimulus/viswhat_stim/land_vehicle-oldcar.png,stimulus/viswhat_stim/water_vehicle-pirateship.png,stimulus/viswhat_stim/blank_white.png,stimulus/viswhat_stim/type_box.png,stimulus/viswhat_stim/type_yes.png,stimulus/viswhat_stim/type_no.png,None,Type,None,Type,1,0.0,0,5.125,0,5.125,0,5.125,0,0.0,0.625,0,0.0,0,0.0,1,0.5,1,2.125,0,0.0,0,0.0,0,0.0,0,0.0,0,,,,,0,20,20,20,,,,,,,,,205.56345145900013,205.56345145900013,205.56345145900013,205.56345145900013,205.56345145900013,205.56345145900013,205.56345145900013,205.56345145900013,205.49130000000014,205.56345145900013,205.56345145900013,205.56345145900013,205.49130000000014,205.56345145900013,205.56345145900013,205.56345145900013,207.6502942090001,,205.56345145900013,205.56345145900013,210.7393226250001,206.04242862499996,207.085339792,207.6502942090001,208.69884283400006,205.56345145900013,205.56345145900013,205.5246333333335,205.56345145900013,205.56345145900013,205.56345145900013,205.5246333333335,205.56345145900013,205.56345145900013,210.7393226250001,205.56345145900013,210.7393226250001,210.77757816699977,211.45745249999982,205.56345145900013,1,1,0.8919640409999374,reldom2_s006,001,2025-01-31_14h56.08.417,What-A-Scan_AC,2022.2.5,None,
0,0.0,None,fixation,stimulus/audwhat_stim/blank_white.png,stimulus/audwhat_stim/blank_white.png,stimulus/viswhat_stim/blank_white.png,stimulus/viswhat_stim/blank_white.png,stimulus/audwhat_stim/blank_white.png,stimulus/audwhat_stim/blank_white.png,stimulus/audwhat_stim/blank_white.png,stimulus/audwhat_stim/blank_white.png,0.0,0.0,0.0,0.0,0,0.0,0,0.0,0,0.0,0,0.0,0,0.0,0.0,0,0.0,0,0.0,0,0.0,0,0.0,0,0.0,0,0.0,0,0.0,0,0.0,9,,,,,0,21,21,21,,,,,,,,,211.69411016699996,211.69411016699996,211.69411016699996,211.69411016699996,211.69411016699996,211.69411016699996,211.69411016699996,211.69411016699996,211.59078583333317,211.69411016699996,211.69411016699996,211.69411016699996,211.59078583333317,211.69411016699996,211.69411016699996,211.69411016699996,211.69411016699996,211.69411016699996,211.69411016699996,211.69411016699996,211.69411016699996,211.69411016699996,211.69411016699996,211.69411016699996,211.69411016699996,211.69411016699996,211.69411016699996,211.64078583333315,211.69411016699996,211.69411016699996,211.69411016699996,211.64078583333315,211.69411016699996,211.69411016699996,211.69411016699996,211.69411016699996,211.69411016699996,216.90656295899998,216.90656295899998,220.84082291699997,None,0,,reldom2_s006,001,2025-01-31_14h56.08.417,What-A-Scan_AC,2022.2.5,None,
17,Second_Order,3.0,viswhat,stimulus/viswhat_stim/water_animal-shark.png,stimulus/viswhat_stim/water_vehicle-pirateship.png,stimulus/viswhat_stim/water_animal-squid.png,stimulus/viswhat_stim/land_animal-elephant.png,stimulus/audwhat_stim/match_blank.png,stimulus/audwhat_stim/match_box.png,stimulus/audwhat_stim/match_yes.png,stimulus/audwhat_stim/match_no.png,2.0,Match,Location,Type,2,5.125,0,5.125,0,5.125,0,5.125,0,0.75,0.75,1,0.5,1,2.125,1,0.5,1,2.125,0,0.0,0,0.0,0,0.0,0,0.0,0,,,,,0,22,22,22,,,,,,,,,220.84082291699997,225.96143537499984,221.29992300000004,222.298015459,222.92131333399993,223.91809883399992,220.84082291699997,220.84082291699997,220.84872824999994,220.84082291699997,220.84082291699997,220.84082291699997,220.84872824999994,220.84082291699997,225.96143537499984,226.83355387499978,228.93116370899997,,226.83355387499978,226.83355387499978,232.05319133400008,227.30594491700003,228.390432917,228.93116370899997,230.02198345899978,226.83355387499978,226.83355387499978,226.7779520423331,226.83355387499978,226.83355387499978,226.83355387499978,226.7779520423331,226.83355387499978,226.83355387499978,232.05319133400008,226.83355387499978,232.05319133400008,232.05319133400008,,226.83355387499978,1,0,0.6942292499998075,reldom2_s006,001,2025-01-31_14h56.08.417,What-A-Scan_AC,2022.2.5,None,
18,Second_Order,3.0,viswhat,stimulus/viswhat_stim/land_vehicle-pickuptruck.png,stimulus/viswhat_stim/water_vehicle-pirateship.png,stimulus/viswhat_stim/water_animal-jellyfish.png,stimulus/viswhat_stim/land_animal-snake.png,stimulus/audwhat_stim/match_blank.png,stimulus/audwhat_stim/match_box.png,stimulus/audwhat_stim/match_yes.png,stimulus/audwhat_stim/match_no.png,1.0,Match,Type,Type,1,5.125,0,5.125,0,5.125,0,5.125,0,0.625,0.625,1,0.5,1,2.125,1,0.5,1,2.125,0,0.0,0,0.0,0,0.0,0,0.0,0,,,,,0,23,23,23,,,,,,,,,232.81317758399973,237.93403387499984,233.294450375,234.29227954199996,234.915190875,235.9126886250001,232.81317758399973,232.81317758399973,232.8239581249999,232.81317758399973,232.81317758399973,232.81317758399973,232.8239581249999,232.81317758399973,237.93403387499984,238.61317999999983,240.71040983400007,244.74541112499992,238.61317999999983,238.61317999999983,243.760797292,239.0870715840001,240.12419683400003,240.71040983400007,241.74857141699977,238.61317999999983,238.61317999999983,238.58571787533316,238.61317999999983,238.61317999999983,238.61317999999983,238.58571787533316,238.61317999999983,238.61317999999983,243.760797292,238.61317999999983,243.760797292,243.827711334,244.47527920899984,238.61317999999983,1,1,0.9429806240000289,reldom2_s006,001,2025-01-31_14h56.08.417,What-A-Scan_AC,2022.2.5,None,
0,0.0,None,fixation,stimulus/audwhat_stim/blank_white.png,stimulus/audwhat_stim/blank_white.png,stimulus/viswhat_stim/blank_white.png,stimulus/viswhat_stim/blank_white.png,stimulus/audwhat_stim/blank_white.png,stimulus/audwhat_stim/blank_white.png,stimulus/audwhat_stim/blank_white.png,stimulus/audwhat_stim/blank_white.png,0.0,0.0,0.0,0.0,0,0.0,0,0.0,0,0.0,0,0.0,0,0.0,0.0,0,0.0,0,0.0,0,0.0,0,0.0,0,0.0,0,0.0,0,0.0,0,0.0,8,,,,,0,24,24,24,,,,,,,,,244.74541112499992,244.74541112499992,244.74541112499992,244.74541112499992,244.74541112499992,244.74541112499992,244.74541112499992,244.74541112499992,244.64157549999993,244.74541112499992,244.74541112499992,244.74541112499992,244.64157549999993,244.74541112499992,244.74541112499992,244.74541112499992,244.74541112499992,244.74541112499992,244.74541112499992,244.74541112499992,244.74541112499992,244.74541112499992,244.74541112499992,244.74541112499992,244.74541112499992,244.74541112499992,244.74541112499992,244.6915754999999,244.74541112499992,244.74541112499992,244.74541112499992,244.6915754999999,244.74541112499992,244.74541112499992,244.74541112499992,244.74541112499992,244.74541112499992,249.92836345900014,249.92836345900014,252.94964108399972,None,0,,reldom2_s006,001,2025-01-31_14h56.08.417,What-A-Scan_AC,2022.2.5,None,
19,First_Order,4.0,viswhat,stimulus/viswhat_stim/blank_white.png,stimulus/viswhat_stim/blank_white.png,stimulus/viswhat_stim/land_animal-wolf.png,stimulus/viswhat_stim/water_animal-squid.png,stimulus/viswhat_stim/blank_white.png,stimulus/viswhat_stim/location_box.png,stimulus/viswhat_stim/location_yes.png,stimulus/viswhat_stim/location_no.png,None,Location,None,Type,2,0.0,0,5.125,0,5.125,0,5.125,0,0.0,0.625,0,0.0,0,0.0,1,0.5,1,2.125,0,0.0,0,0.0,0,0.0,0,0.0,0,,,,,0,25,25,25,,,,,,,,,252.94964108399972,252.94964108399972,252.94964108399972,252.94964108399972,252.94964108399972,252.94964108399972,252.94964108399972,252.94964108399972,252.90359658366668,252.94964108399972,252.94964108399972,252.94964108399972,252.90359658366668,252.94964108399972,252.94964108399972,252.94964108399972,255.044608875,259.0225835420001,252.94964108399972,252.94964108399972,258.10232325000015,253.41273633399987,254.42983174999972,255.044608875,256.0677787499999,252.94964108399972,252.94964108399972,252.92026325033333,252.94964108399972,252.94964108399972,252.94964108399972,252.92026325033333,252.94964108399972,252.94964108399972,258.10232325000015,252.94964108399972,258.10232325000015,258.1524662920001,258.80246924999983,252.94964108399972,2,1,0.8459091659997284,reldom2_s006,001,2025-01-31_14h56.08.417,What-A-Scan_AC,2022.2.5,None,
20,First_Order,4.0,viswhat,stimulus/viswhat_stim/blank_white.png,stimulus/viswhat_stim/blank_white.png,stimulus/viswhat_stim/water_animal-jellyfish.png,stimulus/viswhat_stim/water_vehicle-motorboatraft.png,stimulus/viswhat_stim/blank_white.png,stimulus/viswhat_stim/location_box.png,stimulus/viswhat_stim/location_yes.png,stimulus/viswhat_stim/location_no.png,None,Location,None,Location,1,0.0,0,5.125,0,5.125,0,5.125,0,0.0,0.625,0,0.0,0,0.0,1,0.5,1,2.125,0,0.0,0,0.0,0,0.0,0,0.0,0,,,,,0,26,26,26,,,,,,,,,259.0225835420001,259.0225835420001,259.0225835420001,259.0225835420001,259.0225835420001,259.0225835420001,259.0225835420001,259.0225835420001,258.9771133340001,259.0225835420001,259.0225835420001,259.0225835420001,258.9771133340001,259.0225835420001,259.0225835420001,259.0225835420001,261.12697845899993,265.19493650000004,259.0225835420001,259.0225835420001,264.17581166699983,259.49282816699997,260.51944724999976,261.12697845899993,262.15679524999996,259.0225835420001,259.0225835420001,259.01044666733344,259.0225835420001,259.0225835420001,259.0225835420001,259.01044666733344,259.0225835420001,259.0225835420001,264.17581166699983,259.0225835420001,264.17581166699983,264.2464869999999,264.88260745900016,259.0225835420001,None,0,,reldom2_s006,001,2025-01-31_14h56.08.417,What-A-Scan_AC,2022.2.5,None,
21,First_Order,4.0,viswhat,stimulus/viswhat_stim/blank_white.png,stimulus/viswhat_stim/blank_white.png,stimulus/viswhat_stim/land_animal-elephant.png,stimulus/viswhat_stim/land_vehicle-buldozer.png,stimulus/viswhat_stim/blank_white.png,stimulus/viswhat_stim/type_box.png,stimulus/viswhat_stim/type_yes.png,stimulus/viswhat_stim/type_no.png,None,Type,None,Location,2,0.0,0,5.125,0,5.125,0,5.125,0,0.0,0.625,0,0.0,0,0.0,1,0.5,1,2.125,0,0.0,0,0.0,0,0.0,0,0.0,0,,,,,0,27,27,27,,,,,,,,,265.19493650000004,265.19493650000004,265.19493650000004,265.19493650000004,265.19493650000004,265.19493650000004,265.19493650000004,265.19493650000004,265.0697625839999,265.19493650000004,265.19493650000004,265.19493650000004,265.0697625839999,265.19493650000004,265.19493650000004,265.19493650000004,267.2433259589998,,265.19493650000004,265.19493650000004,270.42202237499987,265.6177506250001,266.6787536249999,267.2433259589998,268.30379649999986,265.19493650000004,265.19493650000004,265.13642925066654,265.19493650000004,265.19493650000004,265.19493650000004,265.13642925066654,265.19493650000004,265.19493650000004,270.42202237499987,265.19493650000004,270.42202237499987,270.42202237499987,,265.19493650000004,2,1,1.2011475829999654,reldom2_s006,001,2025-01-31_14h56.08.417,What-A-Scan_AC,2022.2.5,None,
22,First_Order,4.0,viswhat,stimulus/viswhat_stim/blank_white.png,stimulus/viswhat_stim/blank_white.png,stimulus/viswhat_stim/water_animal-shark.png,stimulus/viswhat_stim/water_vehicle-cabincruiser.png,stimulus/viswhat_stim/blank_white.png,stimulus/viswhat_stim/type_box.png,stimulus/viswhat_stim/type_yes.png,stimulus/viswhat_stim/type_no.png,None,Type,None,Location,2,0.0,0,5.125,0,5.125,0,5.125,0,0.0,0.625,0,0.0,0,0.0,1,0.5,1,2.125,0,0.0,0,0.0,0,0.0,0,0.0,0,,,,,0,28,28,28,,,,,,,,,271.2788824999998,271.2788824999998,271.2788824999998,271.2788824999998,271.2788824999998,271.2788824999998,271.2788824999998,271.2788824999998,271.19058579233337,271.2788824999998,271.2788824999998,271.2788824999998,271.19058579233337,271.2788824999998,271.2788824999998,271.2788824999998,273.360387792,277.4284444169998,271.2788824999998,271.2788824999998,276.45714666699996,271.76134120899997,272.8292228340001,273.360387792,274.4279796249998,271.2788824999998,271.2788824999998,271.2405857923333,271.2788824999998,271.2788824999998,271.2788824999998,271.2405857923333,271.2788824999998,271.2788824999998,276.45714666699996,271.2788824999998,276.45714666699996,276.5000384169998,277.18481658400015,271.2788824999998,2,1,1.0651130000001103,reldom2_s006,001,2025-01-31_14h56.08.417,What-A-Scan_AC,2022.2.5,None,
0,0.0,None,fixation,stimulus/audwhat_stim/blank_white.png,stimulus/audwhat_stim/blank_white.png,stimulus/viswhat_stim/blank_white.png,stimulus/viswhat_stim/blank_white.png,stimulus/audwhat_stim/blank_white.png,stimulus/audwhat_stim/blank_white.png,stimulus/audwhat_stim/blank_white.png,stimulus/audwhat_stim/blank_white.png,0.0,0.0,0.0,0.0,0,0.0,0,0.0,0,0.0,0,0.0,0,0.0,0.0,0,0.0,0,0.0,0,0.0,0,0.0,0,0.0,0,0.0,0,0.0,0,0.0,9,,,,,0,29,29,29,,,,,,,,,277.4284444169998,277.4284444169998,277.4284444169998,277.4284444169998,277.4284444169998,277.4284444169998,277.4284444169998,277.4284444169998,277.31814991733347,277.4284444169998,277.4284444169998,277.4284444169998,277.31814991733347,277.4284444169998,277.4284444169998,277.4284444169998,277.4284444169998,277.4284444169998,277.4284444169998,277.4284444169998,277.4284444169998,277.4284444169998,277.4284444169998,277.4284444169998,277.4284444169998,277.4284444169998,277.4284444169998,277.38481658400013,277.4284444169998,277.4284444169998,277.4284444169998,277.38481658400013,277.4284444169998,277.4284444169998,277.4284444169998,277.4284444169998,277.4284444169998,282.64785358400013,282.64785358400013,286.58531083399976,None,0,,reldom2_s006,001,2025-01-31_14h56.08.417,What-A-Scan_AC,2022.2.5,None,
23,Second_Order,4.0,viswhat,stimulus/viswhat_stim/water_vehicle-canoe(1).png,stimulus/viswhat_stim/land_vehicle-vespa.png,stimulus/viswhat_stim/land_animal-dog.png,stimulus/viswhat_stim/water_animal-jellyfish.png,stimulus/audwhat_stim/match_blank.png,stimulus/audwhat_stim/match_box.png,stimulus/audwhat_stim/match_yes.png,stimulus/audwhat_stim/match_no.png,1.0,Match,Type,Type,1,5.125,0,5.125,0,5.125,0,5.125,0,0.75,0.75,1,0.5,1,2.125,1,0.5,1,2.125,0,0.0,0,0.0,0,0.0,0,0.0,0,,,,,0,30,30,30,,,,,,,,,286.58531083399976,291.70820308400016,287.05233958400004,288.0495162090001,288.6726467919998,289.66996579199986,286.58531083399976,286.58531083399976,286.58329412533305,286.58531083399976,286.58531083399976,286.58531083399976,286.58329412533305,286.58531083399976,291.70820308400016,292.5097704589998,294.59440054200013,298.49054916700015,292.5097704589998,292.5097704589998,297.66305545900013,292.9719942920001,293.98848420900003,294.59440054200013,295.61167383400016,292.5097704589998,292.5097704589998,292.4933412919998,292.5097704589998,292.5097704589998,292.5097704589998,292.4933412919998,292.5097704589998,292.5097704589998,297.66305545900013,292.5097704589998,297.66305545900013,297.71004541699995,,292.5097704589998,1,1,0.6826910409999982,reldom2_s006,001,2025-01-31_14h56.08.417,What-A-Scan_AC,2022.2.5,None,
24,Second_Order,4.0,viswhat,stimulus/viswhat_stim/land_vehicle-tank.png,stimulus/viswhat_stim/water_vehicle-canoe(1).png,stimulus/viswhat_stim/water_animal-orka.png,stimulus/viswhat_stim/water_vehicle-cabincruiser.png,stimulus/audwhat_stim/match_blank.png,stimulus/audwhat_stim/match_box.png,stimulus/audwhat_stim/match_yes.png,stimulus/audwhat_stim/match_no.png,2.0,Match,Type,Location,2,5.125,0,5.125,0,5.125,0,5.125,0,0.625,0.625,1,0.5,1,2.125,1,0.5,1,2.125,0,0.0,0,0.0,0,0.0,0,0.0,0,,,,,0,31,31,31,,,,,,,,,298.49054916700015,303.607411125,298.975006959,299.96429158399997,300.6005862090001,301.59782204199973,298.49054916700015,298.49054916700015,298.4989618756668,298.49054916700015,298.49054916700015,298.49054916700015,298.4989618756668,298.49054916700015,303.607411125,304.3867732499998,306.44029724999973,,304.3867732499998,304.3867732499998,309.5955706669997,304.86080083399975,305.9666682500001,306.44029724999973,307.5482219999999,304.3867732499998,304.3867732499998,304.3203529590001,304.3867732499998,304.3867732499998,304.3867732499998,304.3203529590001,304.3867732499998,304.3867732499998,309.5955706669997,304.3867732499998,309.5955706669997,309.5955706669997,,304.3867732499998,2,1,0.6483901659998992,reldom2_s006,001,2025-01-31_14h56.08.417,What-A-Scan_AC,2022.2.5,None,
0,0.0,None,fixation,stimulus/audwhat_stim/blank_white.png,stimulus/audwhat_stim/blank_white.png,stimulus/viswhat_stim/blank_white.png,stimulus/viswhat_stim/blank_white.png,stimulus/audwhat_stim/blank_white.png,stimulus/audwhat_stim/blank_white.png,stimulus/audwhat_stim/blank_white.png,stimulus/audwhat_stim/blank_white.png,0.0,0.0,0.0,0.0,0,0.0,0,0.0,0,0.0,0,0.0,0,0.0,0.0,0,0.0,0,0.0,0,0.0,0,0.0,0,0.0,0,0.0,0,0.0,0,0.0,9,,,,,0,32,32,32,,,,,,,,,310.488746084,310.488746084,310.488746084,310.488746084,310.488746084,310.488746084,310.488746084,310.488746084,310.38270325,310.488746084,310.488746084,310.488746084,310.38270325,310.488746084,310.488746084,310.488746084,310.488746084,310.488746084,310.488746084,310.488746084,310.488746084,310.488746084,310.488746084,310.488746084,310.488746084,310.488746084,310.488746084,310.4493699166667,310.488746084,310.488746084,310.488746084,310.4493699166667,310.488746084,310.488746084,310.488746084,310.488746084,310.488746084,315.67609875000016,315.67609875000016,319.76245208399996,None,0,,reldom2_s006,001,2025-01-31_14h56.08.417,What-A-Scan_AC,2022.2.5,None,
25,First_Order,5.0,audwhat,stimulus/audwhat_stim/dummy.wav,stimulus/audwhat_stim/dummy.wav,stimulus/audwhat_stim/string cello_low-pitch_Dtri_loud.wav,stimulus/audwhat_stim/percussion mallet_low-pitch_Dtri_loud.wav,stimulus/audwhat_stim/blank_white.png,stimulus/audwhat_stim/pitch_box.png,stimulus/audwhat_stim/pitch_yes.png,stimulus/audwhat_stim/pitch_no.png,None,Pitch,None,Pitch,1,0.0,0,5.125,0,5.125,0,5.125,0,0.0,0.625,0,0.0,0,0.0,0,0.0,0,0.0,0,0.0,0,0.0,1,0.5,1,2.125,0,,,,,0,33,33,33,,,,,,,,,319.76245208399996,319.76245208399996,319.76245208399996,319.76245208399996,319.76245208399996,319.76245208399996,319.76245208399996,319.76245208399996,319.68661600066673,319.76245208399996,319.76245208399996,319.76245208399996,319.68661600066673,319.76245208399996,319.76245208399996,319.76245208399996,321.8333097089999,,319.76245208399996,319.76245208399996,324.9359154589997,319.76245208399996,319.76245208399996,319.76245208399996,319.76245208399996,320.235512834,321.269143042,320.2050402086668,,321.8333097089999,322.87062783400006,321.8017145416668,,319.76245208399996,324.9359154589997,319.76245208399996,324.9359154589997,324.9773480839999,325.64121645900013,319.76245208399996,2,0,2.209305165999922,reldom2_s006,001,2025-01-31_14h56.08.417,What-A-Scan_AC,2022.2.5,None,
26,First_Order,5.0,audwhat,stimulus/audwhat_stim/dummy.wav,stimulus/audwhat_stim/dummy.wav,stimulus/audwhat_stim/string cello_low-pitch_F_loud.wav,stimulus/audwhat_stim/percussion mallet_low-pitch_F_loud.wav,stimulus/audwhat_stim/blank_white.png,stimulus/audwhat_stim/pitch_box.png,stimulus/audwhat_stim/pitch_yes.png,stimulus/audwhat_stim/pitch_no.png,None,Pitch,None,Pitch,1,0.0,0,5.125,0,5.125,0,5.125,0,0.0,0.625,0,0.0,0,0.0,0,0.0,0,0.0,0,0.0,0,0.0,1,0.5,1,2.125,0,,,,,0,34,34,34,,,,,,,,,325.85777154200014,325.85777154200014,325.85777154200014,325.85777154200014,325.85777154200014,325.85777154200014,325.85777154200014,325.85777154200014,325.77454979233346,325.85777154200014,325.85777154200014,325.85777154200014,325.77454979233346,325.85777154200014,325.85777154200014,325.85777154200014,327.92852279199997,,325.85777154200014,325.85777154200014,331.0324545839999,325.85777154200014,325.85777154200014,325.85777154200014,325.85777154200014,326.3282065839999,327.36316883400013,326.2978998756664,,327.92852279199997,328.9677499589998,327.89784950066655,,325.85777154200014,331.0324545839999,325.85777154200014,331.0324545839999,331.07363887500014,331.73341137499983,325.85777154200014,1,1,0.9692369159997725,reldom2_s006,001,2025-01-31_14h56.08.417,What-A-Scan_AC,2022.2.5,None,
27,First_Order,5.0,audwhat,stimulus/audwhat_stim/dummy.wav,stimulus/audwhat_stim/dummy.wav,stimulus/audwhat_stim/string cello_high-pitch_D_loud.wav,stimulus/audwhat_stim/percussion mallet_high-pitch_D_loud.wav,stimulus/audwhat_stim/blank_white.png,stimulus/audwhat_stim/category_box.png,stimulus/audwhat_stim/category_yes.png,stimulus/audwhat_stim/category_no.png,None,Category,None,Pitch,2,0.0,0,5.125,0,5.125,0,5.125,0,0.0,0.625,0,0.0,0,0.0,0,0.0,0,0.0,0,0.0,0,0.0,1,0.5,1,2.125,0,,,,,0,35,35,35,,,,,,,,,331.95372991700015,331.95372991700015,331.95372991700015,331.95372991700015,331.95372991700015,331.95372991700015,331.95372991700015,331.95372991700015,331.86674470833316,331.95372991700015,331.95372991700015,331.95372991700015,331.86674470833316,331.95372991700015,331.95372991700015,331.95372991700015,334.039452,338.07975729200007,331.95372991700015,331.95372991700015,337.11415575,331.95372991700015,331.95372991700015,331.95372991700015,331.95372991700015,332.42751129199996,333.4704327919999,332.39626904166676,,334.039452,335.08287037499986,334.00867387566655,,331.95372991700015,337.11415575,331.95372991700015,337.11415575,337.1557962500001,337.81984999999986,331.95372991700015,2,1,0.9328347910000048,reldom2_s006,001,2025-01-31_14h56.08.417,What-A-Scan_AC,2022.2.5,None,
28,First_Order,5.0,audwhat,stimulus/audwhat_stim/dummy.wav,stimulus/audwhat_stim/dummy.wav,stimulus/audwhat_stim/percussion mallet_low-pitch_Ftri_loud.wav,stimulus/audwhat_stim/percussion mallet_high-pitch_F_loud.wav,stimulus/audwhat_stim/blank_white.png,stimulus/audwhat_stim/category_box.png,stimulus/audwhat_stim/category_yes.png,stimulus/audwhat_stim/category_no.png,None,Category,None,Category,1,0.0,0,5.125,0,5.125,0,5.125,0,0.0,0.625,0,0.0,0,0.0,0,0.0,0,0.0,0,0.0,0,0.0,1,0.5,1,2.125,0,,,,,0,36,36,36,,,,,,,,,338.07975729200007,338.07975729200007,338.07975729200007,338.07975729200007,338.07975729200007,338.07975729200007,338.07975729200007,338.07975729200007,337.9960269173331,338.07975729200007,338.07975729200007,338.07975729200007,337.9960269173331,338.07975729200007,338.07975729200007,338.07975729200007,340.157844459,344.2189848339999,338.07975729200007,338.07975729200007,343.2307364590001,338.07975729200007,338.07975729200007,338.07975729200007,338.07975729200007,338.5519748749998,339.59124708399986,338.52129725066675,,340.157844459,341.200716542,340.1274865416665,,338.07975729200007,343.2307364590001,338.07975729200007,343.2307364590001,343.272259459,343.93982579199974,338.07975729200007,1,1,0.6157070409999506,reldom2_s006,001,2025-01-31_14h56.08.417,What-A-Scan_AC,2022.2.5,None,
0,0.0,None,fixation,stimulus/audwhat_stim/blank_white.png,stimulus/audwhat_stim/blank_white.png,stimulus/viswhat_stim/blank_white.png,stimulus/viswhat_stim/blank_white.png,stimulus/audwhat_stim/blank_white.png,stimulus/audwhat_stim/blank_white.png,stimulus/audwhat_stim/blank_white.png,stimulus/audwhat_stim/blank_white.png,0.0,0.0,0.0,0.0,0,0.0,0,0.0,0,0.0,0,0.0,0,0.0,0.0,0,0.0,0,0.0,0,0.0,0,0.0,0,0.0,0,0.0,0,0.0,0,0.0,8,,,,,0,37,37,37,,,,,,,,,344.2189848339999,344.2189848339999,344.2189848339999,344.2189848339999,344.2189848339999,344.2189848339999,344.2189848339999,344.2189848339999,344.1147390003331,344.2189848339999,344.2189848339999,344.2189848339999,344.1147390003331,344.2189848339999,344.2189848339999,344.2189848339999,344.2189848339999,344.2189848339999,344.2189848339999,344.2189848339999,344.2189848339999,344.2189848339999,344.2189848339999,344.2189848339999,344.2189848339999,344.2189848339999,344.2189848339999,344.1647390003331,344.2189848339999,344.2189848339999,344.2189848339999,344.1647390003331,344.2189848339999,344.2189848339999,344.2189848339999,344.2189848339999,344.2189848339999,349.4331702919999,349.4331702919999,352.354728625,None,0,,reldom2_s006,001,2025-01-31_14h56.08.417,What-A-Scan_AC,2022.2.5,None,
29,Second_Order,5.0,audwhat,stimulus/audwhat_stim/percussion xylophone_high-pitch_Dtri_loud.wav,stimulus/audwhat_stim/percussion mallet_low-pitch_Ftri_loud.wav,stimulus/audwhat_stim/string viola_high-pitch_Ftri_loud.wav,stimulus/audwhat_stim/string viola_low-pitch_Dtri_loud.wav,stimulus/audwhat_stim/match_blank.png,stimulus/audwhat_stim/match_box.png,stimulus/audwhat_stim/match_yes.png,stimulus/audwhat_stim/match_no.png,1.0,Match,Category,Category,1,5.125,0,5.125,0,5.125,0,5.125,0,0.75,0.75,0,0.0,0,0.0,0,0.0,0,0.0,1,0.5,1,2.125,1,0.5,1,2.125,0,,,,,0,38,38,38,,,,,,,,,352.354728625,357.476734417,352.354728625,352.354728625,352.354728625,352.354728625,352.80336687499994,353.801522709,352.81573150066674,353.80939633399976,354.4363532090001,355.42758033400014,354.44113554166665,355.4384768750001,357.476734417,358.30904433399974,360.3785215419998,,358.30904433399974,358.30904433399974,363.48043845899974,358.30904433399974,358.30904433399974,358.30904433399974,358.30904433399974,358.77945791699995,359.8143021669998,358.7486487916665,,360.3785215419998,361.41440412500015,360.34826241666656,,358.30904433399974,363.48043845899974,358.30904433399974,363.48043845899974,363.52205612499984,,358.30904433399974,1,1,0.6305710410001666,reldom2_s006,001,2025-01-31_14h56.08.417,What-A-Scan_AC,2022.2.5,None,
30,Second_Order,5.0,audwhat,stimulus/audwhat_stim/percussion mallet_low-pitch_F_loud.wav,stimulus/audwhat_stim/percussion mallet_high-pitch_Ftri_loud.wav,stimulus/audwhat_stim/string viola_low-pitch_F_loud.wav,stimulus/audwhat_stim/string viola_high-pitch_Ftri_loud.wav,stimulus/audwhat_stim/match_blank.png,stimulus/audwhat_stim/match_box.png,stimulus/audwhat_stim/match_yes.png,stimulus/audwhat_stim/match_no.png,1.0,Match,Category,Category,1,5.125,0,5.125,0,5.125,0,5.125,0,0.625,0.625,0,0.0,0,0.0,0,0.0,0,0.0,1,0.5,1,2.125,1,0.5,1,2.125,0,,,,,0,39,39,39,,,,,,,,,364.30524266700013,369.4249817499999,364.30524266700013,364.30524266700013,364.30524266700013,364.30524266700013,364.7646669169999,365.7621018750001,364.7771715006668,365.76987529200005,366.38573591700015,367.38269604200013,366.3973332506664,367.39072054200005,369.4249817499999,370.134840792,372.1981842089999,,370.134840792,370.134840792,375.29842870899984,370.134840792,370.134840792,370.134840792,370.134840792,370.6022589999998,371.632457834,370.5720237086664,,372.1981842089999,373.23365829199975,372.16698337566663,,370.134840792,375.29842870899984,370.134840792,375.29842870899984,375.3411029169997,376.0041847090001,370.134840792,1,1,0.5956092080000417,reldom2_s006,001,2025-01-31_14h56.08.417,What-A-Scan_AC,2022.2.5,None,
0,0.0,None,fixation,stimulus/audwhat_stim/blank_white.png,stimulus/audwhat_stim/blank_white.png,stimulus/viswhat_stim/blank_white.png,stimulus/viswhat_stim/blank_white.png,stimulus/audwhat_stim/blank_white.png,stimulus/audwhat_stim/blank_white.png,stimulus/audwhat_stim/blank_white.png,stimulus/audwhat_stim/blank_white.png,0.0,0.0,0.0,0.0,0,0.0,0,0.0,0,0.0,0,0.0,0,0.0,0.0,0,0.0,0,0.0,0,0.0,0,0.0,0,0.0,0,0.0,0,0.0,0,0.0,9,,,,,0,40,40,40,,,,,,,,,376.2419669169999,376.2419669169999,376.2419669169999,376.2419669169999,376.2419669169999,376.2419669169999,376.2419669169999,376.2419669169999,376.13751804233345,376.2419669169999,376.2419669169999,376.2419669169999,376.13751804233345,376.2419669169999,376.2419669169999,376.2419669169999,376.2419669169999,376.2419669169999,376.2419669169999,376.2419669169999,376.2419669169999,376.2419669169999,376.2419669169999,376.2419669169999,376.2419669169999,376.2419669169999,376.2419669169999,376.18751804233347,376.2419669169999,376.2419669169999,376.2419669169999,376.18751804233347,376.2419669169999,376.2419669169999,376.2419669169999,376.2419669169999,376.2419669169999,381.4248117920001,381.4248117920001,385.5105872089998,None,0,,reldom2_s006,001,2025-01-31_14h56.08.417,What-A-Scan_AC,2022.2.5,None,
31,First_Order,6.0,audwhat,stimulus/audwhat_stim/dummy.wav,stimulus/audwhat_stim/dummy.wav,stimulus/audwhat_stim/string viola_high-pitch_F_loud.wav,stimulus/audwhat_stim/percussion xylophone_high-pitch_F_loud.wav,stimulus/audwhat_stim/blank_white.png,stimulus/audwhat_stim/category_box.png,stimulus/audwhat_stim/category_yes.png,stimulus/audwhat_stim/category_no.png,None,Category,None,Pitch,2,0.0,0,5.125,0,5.125,0,5.125,0,0.0,0.625,0,0.0,0,0.0,0,0.0,0,0.0,0,0.0,0,0.0,1,0.5,1,2.125,0,,,,,0,41,41,41,,,,,,,,,385.5105872089998,385.5105872089998,385.5105872089998,385.5105872089998,385.5105872089998,385.5105872089998,385.5105872089998,385.5105872089998,385.43191837566667,385.5105872089998,385.5105872089998,385.5105872089998,385.43191837566667,385.5105872089998,385.5105872089998,385.5105872089998,387.59083925000004,391.6309877089998,385.5105872089998,385.5105872089998,390.6671058339998,385.5105872089998,385.5105872089998,385.5105872089998,385.5105872089998,385.9860960420001,387.02418583400004,385.9550218756665,,387.59083925000004,388.6371435840001,387.55975741666657,388.6371435840001,385.5105872089998,390.6671058339998,385.5105872089998,390.6671058339998,390.70915420899973,391.37322341699974,385.5105872089998,2,1,1.6161595410003429,reldom2_s006,001,2025-01-31_14h56.08.417,What-A-Scan_AC,2022.2.5,None,
32,First_Order,6.0,audwhat,stimulus/audwhat_stim/dummy.wav,stimulus/audwhat_stim/dummy.wav,stimulus/audwhat_stim/percussion mallet_high-pitch_F_loud.wav,stimulus/audwhat_stim/percussion mallet_low-pitch_D_loud.wav,stimulus/audwhat_stim/blank_white.png,stimulus/audwhat_stim/pitch_box.png,stimulus/audwhat_stim/pitch_yes.png,stimulus/audwhat_stim/pitch_no.png,None,Pitch,None,Category,2,0.0,0,5.125,0,5.125,0,5.125,0,0.0,0.625,0,0.0,0,0.0,0,0.0,0,0.0,0,0.0,0,0.0,1,0.5,1,2.125,0,,,,,0,42,42,42,,,,,,,,,391.6309877089998,391.6309877089998,391.6309877089998,391.6309877089998,391.6309877089998,391.6309877089998,391.6309877089998,391.6309877089998,391.5476189583334,391.6309877089998,391.6309877089998,391.6309877089998,391.5476189583334,391.6309877089998,391.6309877089998,391.6309877089998,393.70475695899995,,391.6309877089998,391.6309877089998,396.81056316700005,391.6309877089998,391.6309877089998,391.6309877089998,391.6309877089998,392.1037899170001,393.1400712499999,392.0730009166666,,393.70475695899995,394.7466965839999,393.67375241666673,,391.6309877089998,396.81056316700005,391.6309877089998,396.81056316700005,396.85210904199994,397.51494995899975,391.6309877089998,2,1,0.6722771240001748,reldom2_s006,001,2025-01-31_14h56.08.417,What-A-Scan_AC,2022.2.5,None,
33,First_Order,6.0,audwhat,stimulus/audwhat_stim/dummy.wav,stimulus/audwhat_stim/dummy.wav,stimulus/audwhat_stim/string cello_high-pitch_D_loud.wav,stimulus/audwhat_stim/string cello_low-pitch_Dtri_loud.wav,stimulus/audwhat_stim/blank_white.png,stimulus/audwhat_stim/category_box.png,stimulus/audwhat_stim/category_yes.png,stimulus/audwhat_stim/category_no.png,None,Category,None,Category,1,0.0,0,5.125,0,5.125,0,5.125,0,0.0,0.625,0,0.0,0,0.0,0,0.0,0,0.0,0,0.0,0,0.0,1,0.5,1,2.125,0,,,,,0,43,43,43,,,,,,,,,397.7326023749997,397.7326023749997,397.7326023749997,397.7326023749997,397.7326023749997,397.7326023749997,397.7326023749997,397.7326023749997,397.6482832923331,397.7326023749997,397.7326023749997,397.7326023749997,397.6482832923331,397.7326023749997,397.7326023749997,397.7326023749997,399.8138341250001,403.85891066700015,397.7326023749997,397.7326023749997,402.89121212500004,397.7326023749997,397.7326023749997,397.7326023749997,397.7326023749997,398.20694383399996,399.24833854200006,398.1766124166668,,399.8138341250001,400.86023154199984,399.7830205836665,,397.7326023749997,402.89121212500004,397.7326023749997,402.89121212500004,402.9328894999999,403.5987862500001,397.7326023749997,1,1,0.7301908740000727,reldom2_s006,001,2025-01-31_14h56.08.417,What-A-Scan_AC,2022.2.5,None,
34,First_Order,6.0,audwhat,stimulus/audwhat_stim/dummy.wav,stimulus/audwhat_stim/dummy.wav,stimulus/audwhat_stim/string cello_high-pitch_F_loud.wav,stimulus/audwhat_stim/string viola_low-pitch_Ftri_loud.wav,stimulus/audwhat_stim/blank_white.png,stimulus/audwhat_stim/pitch_box.png,stimulus/audwhat_stim/pitch_yes.png,stimulus/audwhat_stim/pitch_no.png,None,Pitch,None,Category,2,0.0,0,5.125,0,5.125,0,5.125,0,0.0,0.625,0,0.0,0,0.0,0,0.0,0,0.0,0,0.0,0,0.0,1,0.5,1,2.125,0,,,,,0,44,44,44,,,,,,,,,403.85891066700015,403.85891066700015,403.85891066700015,403.85891066700015,403.85891066700015,403.85891066700015,403.85891066700015,403.85891066700015,403.77370695833326,403.85891066700015,403.85891066700015,403.85891066700015,403.77370695833326,403.85891066700015,403.85891066700015,403.85891066700015,405.93004387500014,,403.85891066700015,403.85891066700015,409.0424022500001,403.85891066700015,403.85891066700015,403.85891066700015,403.85891066700015,404.3298635000001,405.364097959,404.2994687086664,,405.93004387500014,406.96855620899987,405.89937141666655,,403.85891066700015,409.0424022500001,403.85891066700015,409.0424022500001,409.083816542,409.74759029200004,403.85891066700015,2,1,0.7730952490001073,reldom2_s006,001,2025-01-31_14h56.08.417,What-A-Scan_AC,2022.2.5,None,
0,0.0,None,fixation,stimulus/audwhat_stim/blank_white.png,stimulus/audwhat_stim/blank_white.png,stimulus/viswhat_stim/blank_white.png,stimulus/viswhat_stim/blank_white.png,stimulus/audwhat_stim/blank_white.png,stimulus/audwhat_stim/blank_white.png,stimulus/audwhat_stim/blank_white.png,stimulus/audwhat_stim/blank_white.png,0.0,0.0,0.0,0.0,0,0.0,0,0.0,0,0.0,0,0.0,0,0.0,0.0,0,0.0,0,0.0,0,0.0,0,0.0,0,0.0,0,0.0,0,0.0,0,0.0,10,,,,,0,45,45,45,,,,,,,,,409.9876546669998,409.9876546669998,409.9876546669998,409.9876546669998,409.9876546669998,409.9876546669998,409.9876546669998,409.9876546669998,409.88092362533337,409.9876546669998,409.9876546669998,409.9876546669998,409.88092362533337,409.9876546669998,409.9876546669998,409.9876546669998,409.9876546669998,409.9876546669998,409.9876546669998,409.9876546669998,409.9876546669998,409.9876546669998,409.9876546669998,409.9876546669998,409.9876546669998,409.9876546669998,409.9876546669998,409.9309236253334,409.9876546669998,409.9876546669998,409.9876546669998,409.9309236253334,409.9876546669998,409.9876546669998,409.9876546669998,409.9876546669998,409.9876546669998,415.2090334589998,415.2090334589998,420.13776133400006,None,0,,reldom2_s006,001,2025-01-31_14h56.08.417,What-A-Scan_AC,2022.2.5,None,
35,Second_Order,6.0,audwhat,stimulus/audwhat_stim/percussion xylophone_high-pitch_D_loud.wav,stimulus/audwhat_stim/string viola_high-pitch_D_loud.wav,stimulus/audwhat_stim/percussion mallet_high-pitch_Dtri_loud.wav,stimulus/audwhat_stim/percussion mallet_low-pitch_D_loud.wav,stimulus/audwhat_stim/match_blank.png,stimulus/audwhat_stim/match_box.png,stimulus/audwhat_stim/match_yes.png,stimulus/audwhat_stim/match_no.png,2.0,Match,Pitch,Category,2,5.125,0,5.125,0,5.125,0,5.125,0,0.75,0.75,0,0.0,0,0.0,0,0.0,0,0.0,1,0.5,1,2.125,1,0.5,1,2.125,0,,,,,0,46,46,46,,,,,,,,,420.13776133400006,425.25364016699996,420.13776133400006,420.13776133400006,420.13776133400006,420.13776133400006,420.59306379200007,421.59100025,420.60564237566655,421.59918012499975,422.21487387499974,423.2113855839998,422.22612170866637,,425.25364016699996,426.083666042,428.1557432499999,,426.083666042,426.083666042,431.26003816699995,426.083666042,426.083666042,426.083666042,426.083666042,426.55406408399995,427.5895142919999,426.5235930836668,,428.1557432499999,429.19211058400015,428.1249322916667,,426.083666042,431.26003816699995,426.083666042,431.26003816699995,431.30173537500013,,426.083666042,2,1,0.8487005410001984,reldom2_s006,001,2025-01-31_14h56.08.417,What-A-Scan_AC,2022.2.5,None,
36,Second_Order,6.0,audwhat,stimulus/audwhat_stim/percussion mallet_high-pitch_Dtri_loud.wav,stimulus/audwhat_stim/string viola_high-pitch_Dtri_loud.wav,stimulus/audwhat_stim/string cello_high-pitch_Dtri_loud.wav,stimulus/audwhat_stim/string viola_low-pitch_F_loud.wav,stimulus/audwhat_stim/match_blank.png,stimulus/audwhat_stim/match_box.png,stimulus/audwhat_stim/match_yes.png,stimulus/audwhat_stim/match_no.png,2.0,Match,Pitch,Category,2,5.125,0,5.125,0,5.125,0,5.125,0,0.625,0.625,0,0.0,0,0.0,0,0.0,0,0.0,1,0.5,1,2.125,1,0.5,1,2.125,0,,,,,0,47,47,47,,,,,,,,,432.08251391700014,437.1980920000001,432.08251391700014,432.08251391700014,432.08251391700014,432.08251391700014,432.5363494590001,433.5352546670001,432.54941008366654,433.5430850839998,434.1581961249999,435.15583625,434.17004554166647,,437.1980920000001,437.91157429199984,439.969816584,444.04683995899995,437.91157429199984,437.91157429199984,443.06484983400014,437.91157429199984,437.91157429199984,437.91157429199984,437.91157429199984,438.37824416700005,439.4071155839997,438.34750133366674,,439.969816584,441.00230412500014,439.9395544166666,,437.91157429199984,443.06484983400014,437.91157429199984,443.06484983400014,443.10642337499985,443.76705604200015,437.91157429199984,2,1,1.1230337080000936,reldom2_s006,001,2025-01-31_14h56.08.417,What-A-Scan_AC,2022.2.5,None,
0,0.0,None,fixation,stimulus/audwhat_stim/blank_white.png,stimulus/audwhat_stim/blank_white.png,stimulus/viswhat_stim/blank_white.png,stimulus/viswhat_stim/blank_white.png,stimulus/audwhat_stim/blank_white.png,stimulus/audwhat_stim/blank_white.png,stimulus/audwhat_stim/blank_white.png,stimulus/audwhat_stim/blank_white.png,0.0,0.0,0.0,0.0,0,0.0,0,0.0,0,0.0,0,0.0,0,0.0,0.0,0,0.0,0,0.0,0,0.0,0,0.0,0,0.0,0,0.0,0,0.0,0,0.0,8,,,,,0,48,48,48,,,,,,,,,444.04683995899995,444.04683995899995,444.04683995899995,444.04683995899995,444.04683995899995,444.04683995899995,444.04683995899995,444.04683995899995,443.9418124583332,444.04683995899995,444.04683995899995,444.04683995899995,443.9418124583332,444.04683995899995,444.04683995899995,444.04683995899995,444.04683995899995,444.04683995899995,444.04683995899995,444.04683995899995,444.04683995899995,444.04683995899995,444.04683995899995,444.04683995899995,444.04683995899995,444.04683995899995,444.04683995899995,443.9918124583332,444.04683995899995,444.04683995899995,444.04683995899995,443.9918124583332,444.04683995899995,444.04683995899995,444.04683995899995,444.04683995899995,444.04683995899995,449.24246033400004,449.24246033400004,452.27415604199996,None,0,,reldom2_s006,001,2025-01-31_14h56.08.417,What-A-Scan_AC,2022.2.5,None,
37,First_Order,7.0,viswhat,stimulus/viswhat_stim/blank_white.png,stimulus/viswhat_stim/blank_white.png,stimulus/viswhat_stim/land_animal-zebra.png,stimulus/viswhat_stim/water_animal-squid.png,stimulus/viswhat_stim/blank_white.png,stimulus/viswhat_stim/type_box.png,stimulus/viswhat_stim/type_yes.png,stimulus/viswhat_stim/type_no.png,None,Type,None,Type,1,0.0,0,5.125,0,5.125,0,5.125,0,0.0,0.625,0,0.0,0,0.0,1,0.5,1,2.125,0,0.0,0,0.0,0,0.0,0,0.0,0,,,,,0,49,49,49,,,,,,,,,452.27415604199996,452.27415604199996,452.27415604199996,452.27415604199996,452.27415604199996,452.27415604199996,452.27415604199996,452.27415604199996,452.22604116666673,452.27415604199996,452.27415604199996,452.27415604199996,452.22604116666673,452.27415604199996,452.27415604199996,452.27415604199996,454.36466929200014,458.6193357500001,452.27415604199996,452.27415604199996,457.4339303339998,452.73282408399973,453.778139042,454.36466929200014,455.40983204199983,452.27415604199996,452.27415604199996,452.24270783333344,452.27415604199996,452.27415604199996,452.27415604199996,452.24270783333344,452.27415604199996,452.27415604199996,457.4339303339998,452.27415604199996,457.4339303339998,457.488171042,458.13495354199995,452.27415604199996,1,1,1.3331965830002446,reldom2_s006,001,2025-01-31_14h56.08.417,What-A-Scan_AC,2022.2.5,None,
38,First_Order,7.0,viswhat,stimulus/viswhat_stim/blank_white.png,stimulus/viswhat_stim/blank_white.png,stimulus/viswhat_stim/water_vehicle-submarine.png,stimulus/viswhat_stim/water_animal-lobster.png,stimulus/viswhat_stim/blank_white.png,stimulus/viswhat_stim/location_box.png,stimulus/viswhat_stim/location_yes.png,stimulus/viswhat_stim/location_no.png,None,Location,None,Location,1,0.0,0,5.125,0,5.125,0,5.125,0,0.0,0.625,0,0.0,0,0.0,1,0.5,1,2.125,0,0.0,0,0.0,0,0.0,0,0.0,0,,,,,0,50,50,50,,,,,,,,,458.6193357500001,458.6193357500001,458.6193357500001,458.6193357500001,458.6193357500001,458.6193357500001,458.6193357500001,458.6193357500001,458.33187600066674,458.6193357500001,458.6193357500001,458.6193357500001,458.33187600066674,458.6193357500001,458.6193357500001,458.6193357500001,460.60763262499995,,458.6193357500001,458.6193357500001,463.9800439589999,459.07821458399985,460.301290375,460.60763262499995,461.8407333750001,458.6193357500001,458.6193357500001,458.4818760006667,458.6193357500001,458.6193357500001,458.6193357500001,458.4818760006667,458.6193357500001,458.6193357500001,463.9800439589999,458.6193357500001,463.9800439589999,463.829757,,458.6193357500001,1,1,0.5718597909999517,reldom2_s006,001,2025-01-31_14h56.08.417,What-A-Scan_AC,2022.2.5,None,
39,First_Order,7.0,viswhat,stimulus/viswhat_stim/blank_white.png,stimulus/viswhat_stim/blank_white.png,stimulus/viswhat_stim/land_vehicle-vespa.png,stimulus/viswhat_stim/water_vehicle-yacht.png,stimulus/viswhat_stim/blank_white.png,stimulus/viswhat_stim/location_box.png,stimulus/viswhat_stim/location_yes.png,stimulus/viswhat_stim/location_no.png,None,Location,None,Type,2,0.0,0,5.125,0,5.125,0,5.125,0,0.0,0.625,0,0.0,0,0.0,1,0.5,1,2.125,0,0.0,0,0.0,0,0.0,0,0.0,0,,,,,0,51,51,51,,,,,,,,,464.7002802920001,464.7002802920001,464.7002802920001,464.7002802920001,464.7002802920001,464.7002802920001,464.7002802920001,464.7002802920001,464.6257217089997,464.7002802920001,464.7002802920001,464.7002802920001,464.6257217089997,464.7002802920001,464.7002802920001,464.7002802920001,466.783881417,470.79542337500015,464.7002802920001,464.7002802920001,469.8487155419998,465.167814334,466.23179004199983,466.783881417,467.85174000000006,464.7002802920001,464.7002802920001,464.6590550423331,464.7002802920001,464.7002802920001,464.7002802920001,464.6590550423331,464.7002802920001,464.7002802920001,469.8487155419998,464.7002802920001,469.8487155419998,469.9226140420001,470.5839206249998,464.7002802920001,2,1,1.0578791249999995,reldom2_s006,001,2025-01-31_14h56.08.417,What-A-Scan_AC,2022.2.5,None,
40,First_Order,7.0,viswhat,stimulus/viswhat_stim/blank_white.png,stimulus/viswhat_stim/blank_white.png,stimulus/viswhat_stim/water_vehicle-canoe.png,stimulus/viswhat_stim/water_animal-whale (1).png,stimulus/viswhat_stim/blank_white.png,stimulus/viswhat_stim/location_box.png,stimulus/viswhat_stim/location_yes.png,stimulus/viswhat_stim/location_no.png,None,Location,None,Location,1,0.0,0,5.125,0,5.125,0,5.125,0,0.0,0.625,0,0.0,0,0.0,1,0.5,1,2.125,0,0.0,0,0.0,0,0.0,0,0.0,0,,,,,0,52,52,52,,,,,,,,,470.79542337500015,470.79542337500015,470.79542337500015,470.79542337500015,470.79542337500015,470.79542337500015,470.79542337500015,470.79542337500015,470.75360504233333,470.79542337500015,470.79542337500015,470.79542337500015,470.75360504233333,470.79542337500015,470.79542337500015,470.79542337500015,472.90195645899985,476.9308444170001,470.79542337500015,470.79542337500015,475.93667408400006,471.27079441700016,472.310327917,472.90195645899985,473.91948708400014,470.79542337500015,470.79542337500015,470.770271709,470.79542337500015,470.79542337500015,470.79542337500015,470.770271709,470.79542337500015,470.79542337500015,475.93667408400006,470.79542337500015,475.93667408400006,476.0083165000001,476.653535334,470.79542337500015,1,1,0.662501415999941,reldom2_s006,001,2025-01-31_14h56.08.417,What-A-Scan_AC,2022.2.5,None,
0,0.0,None,fixation,stimulus/audwhat_stim/blank_white.png,stimulus/audwhat_stim/blank_white.png,stimulus/viswhat_stim/blank_white.png,stimulus/viswhat_stim/blank_white.png,stimulus/audwhat_stim/blank_white.png,stimulus/audwhat_stim/blank_white.png,stimulus/audwhat_stim/blank_white.png,stimulus/audwhat_stim/blank_white.png,0.0,0.0,0.0,0.0,0,0.0,0,0.0,0,0.0,0,0.0,0,0.0,0.0,0,0.0,0,0.0,0,0.0,0,0.0,0,0.0,0,0.0,0,0.0,0,0.0,10,,,,,0,53,53,53,,,,,,,,,476.9308444170001,476.9308444170001,476.9308444170001,476.9308444170001,476.9308444170001,476.9308444170001,476.9308444170001,476.9308444170001,476.8250409170001,476.9308444170001,476.9308444170001,476.9308444170001,476.8250409170001,476.9308444170001,476.9308444170001,476.9308444170001,476.9308444170001,476.9308444170001,476.9308444170001,476.9308444170001,476.9308444170001,476.9308444170001,476.9308444170001,476.9308444170001,476.9308444170001,476.9308444170001,476.9308444170001,476.89170758366674,476.9308444170001,476.9308444170001,476.9308444170001,476.89170758366674,476.9308444170001,476.9308444170001,476.9308444170001,476.9308444170001,476.9308444170001,482.1548080419998,482.1548080419998,487.11112383399995,None,0,,reldom2_s006,001,2025-01-31_14h56.08.417,What-A-Scan_AC,2022.2.5,None,
41,Second_Order,7.0,viswhat,stimulus/viswhat_stim/water_vehicle-cruiser.png,stimulus/viswhat_stim/land_vehicle-bus.png,stimulus/viswhat_stim/land_animal-fox.png,stimulus/viswhat_stim/water_animal-dolphin.png,stimulus/audwhat_stim/match_blank.png,stimulus/audwhat_stim/match_box.png,stimulus/audwhat_stim/match_yes.png,stimulus/audwhat_stim/match_no.png,1.0,Match,Type,Type,1,5.125,0,5.125,0,5.125,0,5.125,0,0.75,0.75,1,0.5,1,2.125,1,0.5,1,2.125,0,0.0,0,0.0,0,0.0,0,0.0,0,,,,,0,54,54,54,,,,,,,,,487.11112383399995,492.22491891699974,487.5297499170001,488.528544709,489.1680577090001,490.1656854590001,487.11112383399995,487.11112383399995,487.12087537533347,487.11112383399995,487.11112383399995,487.11112383399995,487.12087537533347,487.11112383399995,492.22491891699974,493.01567083400005,495.11253366699975,499.016191792,493.01567083400005,493.01567083400005,498.1522437499998,493.49351820899983,494.50314883400006,495.11253366699975,496.13093791699976,493.01567083400005,493.01567083400005,492.99298008333335,493.01567083400005,493.01567083400005,493.01567083400005,492.99298008333335,493.01567083400005,493.01567083400005,498.1522437499998,493.01567083400005,498.1522437499998,498.21457862499983,,493.01567083400005,1,1,0.5608778739997433,reldom2_s006,001,2025-01-31_14h56.08.417,What-A-Scan_AC,2022.2.5,None,
42,Second_Order,7.0,viswhat,stimulus/viswhat_stim/water_animal-whale.png,stimulus/viswhat_stim/water_vehicle-ferryboat.png,stimulus/viswhat_stim/land_vehicle-tank.png,stimulus/viswhat_stim/land_animal-wolf.png,stimulus/audwhat_stim/match_blank.png,stimulus/audwhat_stim/match_box.png,stimulus/audwhat_stim/match_yes.png,stimulus/audwhat_stim/match_no.png,1.0,Match,Location,Location,1,5.125,0,5.125,0,5.125,0,5.125,0,0.625,0.625,1,0.5,1,2.125,1,0.5,1,2.125,0,0.0,0,0.0,0,0.0,0,0.0,0,,,,,0,55,55,55,,,,,,,,,499.016191792,504.13588379199973,499.47449574999973,500.47294145900014,501.107759084,502.0966342500001,499.016191792,499.016191792,499.0297427503331,499.016191792,499.016191792,499.016191792,499.0297427503331,499.016191792,504.13588379199973,504.79724637499976,506.8955983339997,510.9393520419999,504.79724637499976,504.79724637499976,509.92357616699974,505.267975667,506.27646400000003,506.8955983339997,507.9112665839998,504.79724637499976,504.79724637499976,504.78277412533316,504.79724637499976,504.79724637499976,504.79724637499976,504.78277412533316,504.79724637499976,504.79724637499976,509.92357616699974,504.79724637499976,509.92357616699974,510.0022654999998,510.631036709,504.79724637499976,1,1,0.7169521660002829,reldom2_s006,001,2025-01-31_14h56.08.417,What-A-Scan_AC,2022.2.5,None,
0,0.0,None,fixation,stimulus/audwhat_stim/blank_white.png,stimulus/audwhat_stim/blank_white.png,stimulus/viswhat_stim/blank_white.png,stimulus/viswhat_stim/blank_white.png,stimulus/audwhat_stim/blank_white.png,stimulus/audwhat_stim/blank_white.png,stimulus/audwhat_stim/blank_white.png,stimulus/audwhat_stim/blank_white.png,0.0,0.0,0.0,0.0,0,0.0,0,0.0,0,0.0,0,0.0,0,0.0,0.0,0,0.0,0,0.0,0,0.0,0,0.0,0,0.0,0,0.0,0,0.0,0,0.0,9,,,,,0,56,56,56,,,,,,,,,510.9393520419999,510.9393520419999,510.9393520419999,510.9393520419999,510.9393520419999,510.9393520419999,510.9393520419999,510.9393520419999,510.8312828753331,510.9393520419999,510.9393520419999,510.9393520419999,510.8312828753331,510.9393520419999,510.9393520419999,510.9393520419999,510.9393520419999,510.9393520419999,510.9393520419999,510.9393520419999,510.9393520419999,510.9393520419999,510.9393520419999,510.9393520419999,510.9393520419999,510.9393520419999,510.9393520419999,510.89794954199976,510.9393520419999,510.9393520419999,510.9393520419999,510.89794954199976,510.9393520419999,510.9393520419999,510.9393520419999,510.9393520419999,510.9393520419999,516.148617375,516.148617375,520.171305542,None,0,,reldom2_s006,001,2025-01-31_14h56.08.417,What-A-Scan_AC,2022.2.5,None,
43,First_Order,8.0,viswhat,stimulus/viswhat_stim/blank_white.png,stimulus/viswhat_stim/blank_white.png,stimulus/viswhat_stim/water_vehicle-canoe.png,stimulus/viswhat_stim/water_animal-octopus.png,stimulus/viswhat_stim/blank_white.png,stimulus/viswhat_stim/type_box.png,stimulus/viswhat_stim/type_yes.png,stimulus/viswhat_stim/type_no.png,None,Type,None,Location,2,0.0,0,5.125,0,5.125,0,5.125,0,0.0,0.625,0,0.0,0,0.0,1,0.5,1,2.125,0,0.0,0,0.0,0,0.0,0,0.0,0,,,,,0,57,57,57,,,,,,,,,520.171305542,520.171305542,520.171305542,520.171305542,520.171305542,520.171305542,520.171305542,520.171305542,520.1121536256666,520.171305542,520.171305542,520.171305542,520.1121536256666,520.171305542,520.171305542,520.171305542,522.2472169170001,,520.171305542,520.171305542,525.3281147919997,520.620948667,521.6582337919999,522.2472169170001,523.289180875,520.171305542,520.171305542,520.1454869589999,520.171305542,520.171305542,520.171305542,520.1454869589999,520.171305542,520.171305542,525.3281147919997,520.171305542,525.3281147919997,525.3857792089998,526.0245152500001,520.171305542,2,1,0.8863642070004971,reldom2_s006,001,2025-01-31_14h56.08.417,What-A-Scan_AC,2022.2.5,None,
44,First_Order,8.0,viswhat,stimulus/viswhat_stim/blank_white.png,stimulus/viswhat_stim/blank_white.png,stimulus/viswhat_stim/water_animal-octopus.png,stimulus/viswhat_stim/land_animal-snake.png,stimulus/viswhat_stim/blank_white.png,stimulus/viswhat_stim/type_box.png,stimulus/viswhat_stim/type_yes.png,stimulus/viswhat_stim/type_no.png,None,Type,None,Type,1,0.0,0,5.125,0,5.125,0,5.125,0,0.0,0.625,0,0.0,0,0.0,1,0.5,1,2.125,0,0.0,0,0.0,0,0.0,0,0.0,0,,,,,0,58,58,58,,,,,,,,,526.2444097090001,526.2444097090001,526.2444097090001,526.2444097090001,526.2444097090001,526.2444097090001,526.2444097090001,526.2444097090001,526.1988692916665,526.2444097090001,526.2444097090001,526.2444097090001,526.1988692916665,526.2444097090001,526.2444097090001,526.2444097090001,528.3602272919998,,526.2444097090001,526.2444097090001,531.3913753339998,526.719245667,527.7598734170001,528.3602272919998,529.404964584,526.2444097090001,526.2444097090001,526.2155359583331,526.2444097090001,526.2444097090001,526.2444097090001,526.2155359583331,526.2444097090001,526.2444097090001,531.3913753339998,526.2444097090001,531.3913753339998,531.468505625,532.1159474589999,526.2444097090001,1,1,0.9609087079998062,reldom2_s006,001,2025-01-31_14h56.08.417,What-A-Scan_AC,2022.2.5,None,
45,First_Order,8.0,viswhat,stimulus/viswhat_stim/blank_white.png,stimulus/viswhat_stim/blank_white.png,stimulus/viswhat_stim/land_vehicle-schoolbus.png,stimulus/viswhat_stim/land_animal-pig.png,stimulus/viswhat_stim/blank_white.png,stimulus/viswhat_stim/type_box.png,stimulus/viswhat_stim/type_yes.png,stimulus/viswhat_stim/type_no.png,None,Type,None,Location,2,0.0,0,5.125,0,5.125,0,5.125,0,0.0,0.625,0,0.0,0,0.0,1,0.5,1,2.125,0,0.0,0,0.0,0,0.0,0,0.0,0,,,,,0,59,59,59,,,,,,,,,532.3135345000001,532.3135345000001,532.3135345000001,532.3135345000001,532.3135345000001,532.3135345000001,532.3135345000001,532.3135345000001,532.2670447090001,532.3135345000001,532.3135345000001,532.3135345000001,532.2670447090001,532.3135345000001,532.3135345000001,532.3135345000001,534.4019400839998,538.4226599590002,532.3135345000001,532.3135345000001,537.4545832919998,532.794308042,533.8124969589999,534.4019400839998,535.4242342090001,532.3135345000001,532.3135345000001,532.3003780423334,532.3135345000001,532.3135345000001,532.3135345000001,532.3003780423334,532.3135345000001,532.3135345000001,537.4545832919998,532.3135345000001,537.4545832919998,537.5393023339998,538.1713799589998,532.3135345000001,2,1,0.7293569159996878,reldom2_s006,001,2025-01-31_14h56.08.417,What-A-Scan_AC,2022.2.5,None,
46,First_Order,8.0,viswhat,stimulus/viswhat_stim/blank_white.png,stimulus/viswhat_stim/blank_white.png,stimulus/viswhat_stim/land_vehicle-oldcar.png,stimulus/viswhat_stim/water_vehicle-powercruiser.png,stimulus/viswhat_stim/blank_white.png,stimulus/viswhat_stim/location_box.png,stimulus/viswhat_stim/location_yes.png,stimulus/viswhat_stim/location_no.png,None,Location,None,Type,2,0.0,0,5.125,0,5.125,0,5.125,0,0.0,0.625,0,0.0,0,0.0,1,0.5,1,2.125,0,0.0,0,0.0,0,0.0,0,0.0,0,,,,,0,60,60,60,,,,,,,,,538.4226599590002,538.4226599590002,538.4226599590002,538.4226599590002,538.4226599590002,538.4226599590002,538.4226599590002,538.4226599590002,538.3548995839998,538.4226599590002,538.4226599590002,538.4226599590002,538.3548995839998,538.4226599590002,538.4226599590002,538.4226599590002,540.5098347499998,544.5606827500001,538.4226599590002,538.4226599590002,543.605997959,538.8810799590001,539.9261484170001,540.5098347499998,541.5566583750001,538.4226599590002,538.4226599590002,538.3882329173331,538.4226599590002,538.4226599590002,538.4226599590002,538.3882329173331,538.4226599590002,538.4226599590002,543.605997959,538.4226599590002,543.605997959,543.642635834,544.294365709,538.4226599590002,2,1,1.2902157070002431,reldom2_s006,001,2025-01-31_14h56.08.417,What-A-Scan_AC,2022.2.5,None,
0,0.0,None,fixation,stimulus/audwhat_stim/blank_white.png,stimulus/audwhat_stim/blank_white.png,stimulus/viswhat_stim/blank_white.png,stimulus/viswhat_stim/blank_white.png,stimulus/audwhat_stim/blank_white.png,stimulus/audwhat_stim/blank_white.png,stimulus/audwhat_stim/blank_white.png,stimulus/audwhat_stim/blank_white.png,0.0,0.0,0.0,0.0,0,0.0,0,0.0,0,0.0,0,0.0,0,0.0,0.0,0,0.0,0,0.0,0,0.0,0,0.0,0,0.0,0,0.0,0,0.0,0,0.0,9,,,,,0,61,61,61,,,,,,,,,544.5606827500001,544.5606827500001,544.5606827500001,544.5606827500001,544.5606827500001,544.5606827500001,544.5606827500001,544.5606827500001,544.463586583333,544.5606827500001,544.5606827500001,544.5606827500001,544.463586583333,544.5606827500001,544.5606827500001,544.5606827500001,544.5606827500001,544.5606827500001,544.5606827500001,544.5606827500001,544.5606827500001,544.5606827500001,544.5606827500001,544.5606827500001,544.5606827500001,544.5606827500001,544.5606827500001,544.513586583333,544.5606827500001,544.5606827500001,544.5606827500001,544.513586583333,544.5606827500001,544.5606827500001,544.5606827500001,544.5606827500001,544.5606827500001,549.7406409589998,549.7406409589998,553.7576950839998,None,0,,reldom2_s006,001,2025-01-31_14h56.08.417,What-A-Scan_AC,2022.2.5,None,
47,Second_Order,8.0,viswhat,stimulus/viswhat_stim/water_animal-dolphin.png,stimulus/viswhat_stim/water_vehicle-cruiseship.png,stimulus/viswhat_stim/land_vehicle-oldcar.png,stimulus/viswhat_stim/land_animal-giraffe.png,stimulus/audwhat_stim/match_blank.png,stimulus/audwhat_stim/match_box.png,stimulus/audwhat_stim/match_yes.png,stimulus/audwhat_stim/match_no.png,1.0,Match,Location,Location,1,5.125,0,5.125,0,5.125,0,5.125,0,0.75,0.75,1,0.5,1,2.125,1,0.5,1,2.125,0,0.0,0,0.0,0,0.0,0,0.0,0,,,,,0,62,62,62,,,,,,,,,553.7576950839998,558.8785293749997,554.1505548340001,555.1488327920001,555.7730944169998,556.7693022919998,553.7576950839998,553.7576950839998,553.7687375006667,553.7576950839998,553.7576950839998,553.7576950839998,553.7687375006667,553.7576950839998,558.8785293749997,559.7556717920002,561.8470014169998,,559.7556717920002,559.7556717920002,564.9510380420002,560.228781542,561.3064245420001,561.8470014169998,562.9295511249998,559.7556717920002,559.7556717920002,559.6965502503334,559.7556717920002,559.7556717920002,559.7556717920002,559.6965502503334,559.7556717920002,559.7556717920002,564.9510380420002,559.7556717920002,564.9510380420002,564.9510380420002,,559.7556717920002,1,1,0.6827764159997969,reldom2_s006,001,2025-01-31_14h56.08.417,What-A-Scan_AC,2022.2.5,None,
48,Second_Order,8.0,viswhat,stimulus/viswhat_stim/land_animal-ostrich.png,stimulus/viswhat_stim/water_animal-shark.png,stimulus/viswhat_stim/water_animal-whale.png,stimulus/viswhat_stim/water_vehicle-cargoboat.png,stimulus/audwhat_stim/match_blank.png,stimulus/audwhat_stim/match_box.png,stimulus/audwhat_stim/match_yes.png,stimulus/audwhat_stim/match_no.png,2.0,Match,Type,Location,2,5.125,0,5.125,0,5.125,0,5.125,0,0.625,0.625,1,0.5,1,2.125,1,0.5,1,2.125,0,0.0,0,0.0,0,0.0,0,0.0,0,,,,,0,63,63,63,,,,,,,,,565.7222208339999,570.8394895420001,566.178405875,567.176716334,567.8115882500001,568.8007266250002,565.7222208339999,565.7222208339999,565.7340498336667,565.7222208339999,565.7222208339999,565.7222208339999,565.7340498336667,565.7222208339999,570.8394895420001,571.5170531670001,573.5994537920001,577.6585854999998,571.5170531670001,571.5170531670001,576.6646116669999,571.9773747919999,573.0070879169998,573.5994537920001,574.6095505839999,571.5170531670001,571.5170531670001,571.5033625839999,571.5170531670001,571.5170531670001,571.5170531670001,571.5033625839999,571.5170531670001,571.5170531670001,576.6646116669999,571.5170531670001,576.6646116669999,576.728695667,577.3685448339997,571.5170531670001,2,1,0.7171560000001591,reldom2_s006,001,2025-01-31_14h56.08.417,What-A-Scan_AC,2022.2.5,None,
0,0.0,None,fixation,stimulus/audwhat_stim/blank_white.png,stimulus/audwhat_stim/blank_white.png,stimulus/viswhat_stim/blank_white.png,stimulus/viswhat_stim/blank_white.png,stimulus/audwhat_stim/blank_white.png,stimulus/audwhat_stim/blank_white.png,stimulus/audwhat_stim/blank_white.png,stimulus/audwhat_stim/blank_white.png,0.0,0.0,0.0,0.0,0,0.0,0,0.0,0,0.0,0,0.0,0,0.0,0.0,0,0.0,0,0.0,0,0.0,0,0.0,0,0.0,0,0.0,0,0.0,0,0.0,16,,,,,0,64,64,64,,,,,,,,,577.6585854999998,577.6585854999998,577.6585854999998,577.6585854999998,577.6585854999998,577.6585854999998,577.6585854999998,577.6585854999998,577.5535914170001,577.6585854999998,577.6585854999998,577.6585854999998,577.5535914170001,577.6585854999998,577.6585854999998,577.6585854999998,577.6585854999998,577.6585854999998,577.6585854999998,577.6585854999998,577.6585854999998,577.6585854999998,577.6585854999998,577.6585854999998,577.6585854999998,577.6585854999998,577.6585854999998,577.6202580836667,577.6585854999998,577.6585854999998,577.6585854999998,577.6202580836667,577.6585854999998,577.6585854999998,577.6585854999998,577.6585854999998,577.6585854999998,582.8646717920001,582.8646717920001,593.8036752499997,None,0,,reldom2_s006,001,2025-01-31_14h56.08.417,What-A-Scan_AC,2022.2.5,None,
