Trial,Order,Block,Type,Stimuli_File1,Stimuli_File2,Stimuli_File3,Stimuli_File4,Cue_File1,Cue_File2,Response_File_Yes,Response_File_No,Match,Cue_Dimension,Pair1_Dimension,Pair2_Dimension,Key,Cue1_Duration,Cue1_Onset,Cue2_Duration,Cue2_Onset,ResponseYes_Duration,ResponseYes_Onset,ResponseNo_Duration,ResponseNo_Onset,ITI_Within,ITI_Between,Image1_Duration,Image1_Onset,Image2_Duration,Image2_Onset,Image3_Duration,Image3_Onset,Image4_Duration,Image4_Onset,Sound1_Duration,Sound1_Onset,Sound2_Duration,Sound2_Onset,Sound3_Duration,Sound3_Onset,Sound4_Duration,Sound4_Onset,Fixation_Duration,trials_2.thisRepN,trials_2.thisTrialN,trials_2.thisN,trials_2.thisIndex,trials.thisRepN,trials.thisTrialN,trials.thisN,trials.thisIndex,text_start.started,key_resp_start.started,key_resp_start.keys,key_resp_start.rt,cue_file1.started,cue_file1.stopped,image_1.started,image_1.stopped,image_2.started,image_2.stopped,sound_icon1.started,sound_icon1.stopped,sound_1.started,sound_1.stopped,sound_icon2.started,sound_icon2.stopped,sound_2.started,sound_2.stopped,image_blank_1.started,image_blank_1.stopped,key_press.started,key_press.stopped,fixation_text.started,cue_file2.started,cue_file2.stopped,image_3.started,image_3.stopped,image_4.started,image_4.stopped,sound_icon3.started,sound_icon3.stopped,sound_3.started,sound_3.stopped,sound_icon4.started,sound_icon4.stopped,sound_4.started,sound_4.stopped,response_yes.started,response_yes.stopped,response_no.started,response_no.stopped,iti_blank.started,iti_blank.stopped,fixation_text.stopped,key_press.keys,key_press.corr,key_press.rt,text_score.started,participant,session,date,expName,psychopyVersion,frameRate,
,,,,,,,,,,,,,,,,,,,,,,,,,,,,,,,,,,,,,,,,,,,,,,,,,,,,24.369111167034134,24.369111167034134,2,2.3003684579744004,,,,,,,,,,,,,,,,,,,,,,,,,,,,,,,,,,,,,,,,,,,,,reldom2_s006,001,2025-01-31_14h08.20.922,practice_test1_AC,2022.2.5,None,
,,,,,,,,,,,,,,,,,,,,,,,,,,,,,,,,,,,,,,,,,,,,0,0,0,0,,,,,,,,,,,,,,,,,,,,,,,,,,,,,,,,,,,,,,,,,,,,,,,,,,,,,reldom2_s006,001,2025-01-31_14h08.20.922,practice_test1_AC,2022.2.5,None,
,,,,,,,,,,,,,,,,,,,,,,,,,,,,,,,,,,,,,,,,,,,,1,0,1,0,,,,,,,,,,,,,,,,,,,,,,,,,,,,,,,,,,,,,,,,,,,,,,,,,,,,,reldom2_s006,001,2025-01-31_14h08.20.922,practice_test1_AC,2022.2.5,None,
,,,,,,,,,,,,,,,,,,,,,,,,,,,,,,,,,,,,,,,,,,,,2,0,2,0,,,,,,,,,,,,,,,,,,,,,,,,,,,,,,,,,,,,,,,,,,,,,,,,,,,,,reldom2_s006,001,2025-01-31_14h08.20.922,practice_test1_AC,2022.2.5,None,
,,,,,,,,,,,,,,,,,,,,,,,,,,,,,,,,,,,,,,,,,,,,3,0,3,0,,,,,,,,,,,,,,,,,,,,,,,,,,,,,,,,,,,,,,,,,,,,,,,,,,,,,reldom2_s006,001,2025-01-31_14h08.20.922,practice_test1_AC,2022.2.5,None,
0,0.0,None,fixation,stimulus/viswhere_stim/blank_white.png,stimulus/viswhere_stim/blank_white.png,stimulus/audwhere_stim/blank_white.png,stimulus/audwhere_stim/blank_white.png,stimulus/viswhere_stim/blank_white.png,stimulus/viswhere_stim/blank_white.png,stimulus/viswhere_stim/blank_white.png,stimulus/viswhere_stim/blank_white.png,0.0,0.0,0.0,0.0,0,0.0,0,0.0,0,0.0,0,0.0,0,0.0,0.0,0,0.0,0,0.0,0,0.0,0,0.0,0,0.0,0,0.0,0,0.0,0,0.0,6,,,,,0,0,0,0,,,,,26.91989050002303,26.91989050002303,26.91989050002303,26.91989050002303,26.91989050002303,26.91989050002303,26.91989050002303,26.91989050002303,26.804864750332975,26.91989050002303,26.91989050002303,26.91989050002303,26.804864750332975,26.91989050002303,26.91989050002303,26.91989050002303,26.91989050002303,26.91989050002303,26.91989050002303,26.91989050002303,26.91989050002303,26.91989050002303,26.91989050002303,26.91989050002303,26.91989050002303,26.91989050002303,26.91989050002303,26.87153141699964,26.91989050002303,26.91989050002303,26.91989050002303,26.87153141699964,26.91989050002303,26.91989050002303,26.91989050002303,26.91989050002303,26.91989050002303,32.12825812504161,32.12825812504161,33.11099474999355,None,0,,,reldom2_s006,001,2025-01-31_14h08.20.922,practice_test1_AC,2022.2.5,None,
1,First_Order,1.0,viswhere,stimulus/viswhere_stim/blank_white.png,stimulus/viswhere_stim/blank_white.png,stimulus/viswhere_stim/90-deg_dot-right_peru.png,stimulus/viswhere_stim/120-deg_dot-right_slateblue.png,stimulus/viswhere_stim/blank_white.png,stimulus/viswhere_stim/dot_box.png,stimulus/viswhere_stim/dot_yes.png,stimulus/viswhere_stim/dot_no.png,None,Dot,None,Dot,1,0.0,0,5.25,0,5.25,0,5.25,0,0.0,0.75,0,0.0,0,0.0,1,0.5,1,2.125,0,0.0,0,0.0,0,0.0,0,0.0,0,,,,,0,1,1,1,,,,,33.11099474999355,33.11099474999355,33.11099474999355,33.11099474999355,33.11099474999355,33.11099474999355,33.11099474999355,33.11099474999355,33.07621704202611,33.11099474999355,33.11099474999355,33.11099474999355,33.07621704202611,33.11099474999355,33.11099474999355,33.11099474999355,35.21109770803014,39.06507762504043,33.11099474999355,33.11099474999355,38.37241033301689,33.5752671250375,34.59711341699585,35.21109770803014,36.22029000002658,33.11099474999355,33.11099474999355,33.092883708692774,33.11099474999355,33.11099474999355,33.11099474999355,33.092883708692774,33.11099474999355,33.11099474999355,38.37241033301689,33.11099474999355,38.37241033301689,38.3337708330364,39.18564083299134,33.11099474999355,None,0,,,reldom2_s006,001,2025-01-31_14h08.20.922,practice_test1_AC,2022.2.5,None,
2,First_Order,1.0,viswhere,stimulus/viswhere_stim/blank_white.png,stimulus/viswhere_stim/blank_white.png,stimulus/viswhere_stim/30-deg_dot-right_turquoise.png,stimulus/viswhere_stim/60-deg_dot-right_seagreen.png,stimulus/viswhere_stim/blank_white.png,stimulus/viswhere_stim/line_box.png,stimulus/viswhere_stim/line_yes.png,stimulus/viswhere_stim/line_no.png,None,Line,None,Dot,2,0.0,0,5.25,0,5.25,0,5.25,0,0.0,0.75,0,0.0,0,0.0,1,0.5,1,2.125,0,0.0,0,0.0,0,0.0,0,0.0,0,,,,,0,2,2,2,,,,,39.18564083299134,39.18564083299134,39.18564083299134,39.18564083299134,39.18564083299134,39.18564083299134,39.18564083299134,39.18564083299134,39.16443462537912,39.18564083299134,39.18564083299134,39.18564083299134,39.16443462537912,39.18564083299134,39.18564083299134,39.18564083299134,41.28660933300853,45.160281167016365,39.18564083299134,39.18564083299134,44.43554979201872,39.66893933300162,40.67341208300786,41.28660933300853,42.3085322920233,39.18564083299134,39.18564083299134,39.16443462537912,39.18564083299134,39.18564083299134,39.18564083299134,39.16443462537912,39.18564083299134,39.18564083299134,44.43554979201872,39.18564083299134,44.43554979201872,44.41947062499821,45.26467225002125,39.18564083299134,None,0,,,reldom2_s006,001,2025-01-31_14h08.20.922,practice_test1_AC,2022.2.5,None,
3,First_Order,1.0,viswhere,stimulus/viswhere_stim/blank_white.png,stimulus/viswhere_stim/blank_white.png,stimulus/viswhere_stim/120-deg_dot-left_goldenrod.png,stimulus/viswhere_stim/90-deg_dot-left_seagreen.png,stimulus/viswhere_stim/blank_white.png,stimulus/viswhere_stim/line_box.png,stimulus/viswhere_stim/line_yes.png,stimulus/viswhere_stim/line_no.png,None,Line,None,Dot,2,0.0,0,5.25,0,5.25,0,5.25,0,0.0,0.75,0,0.0,0,0.0,1,0.5,1,2.125,0,0.0,0,0.0,0,0.0,0,0.0,0,,,,,0,3,3,3,,,,,45.26467225002125,45.26467225002125,45.26467225002125,45.26467225002125,45.26467225002125,45.26467225002125,45.26467225002125,45.26467225002125,45.2436145003497,45.26467225002125,45.26467225002125,45.26467225002125,45.2436145003497,45.26467225002125,45.26467225002125,45.26467225002125,47.3647784999921,51.33179779199418,45.26467225002125,45.26467225002125,50.531309250043705,45.751217833021656,46.7721013330156,47.3647784999921,48.39393570803804,45.26467225002125,45.26467225002125,45.2436145003497,45.26467225002125,45.26467225002125,45.26467225002125,45.2436145003497,45.26467225002125,45.26467225002125,50.531309250043705,45.26467225002125,50.531309250043705,50.493156542012,51.33179779199418,45.26467225002125,2,1,1.0030667079845443,,reldom2_s006,001,2025-01-31_14h08.20.922,practice_test1_AC,2022.2.5,None,
4,First_Order,1.0,viswhere,stimulus/viswhere_stim/blank_white.png,stimulus/viswhere_stim/blank_white.png,stimulus/viswhere_stim/150-deg_dot-right_royalblue.png,stimulus/viswhere_stim/150-deg_dot-left_slateblue.png,stimulus/viswhere_stim/blank_white.png,stimulus/viswhere_stim/dot_box.png,stimulus/viswhere_stim/dot_yes.png,stimulus/viswhere_stim/dot_no.png,None,Dot,None,Line,2,0.0,0,5.25,0,5.25,0,5.25,0,0.0,0.75,0,0.0,0,0.0,1,0.5,1,2.125,0,0.0,0,0.0,0,0.0,0,0.0,0,,,,,0,4,4,4,,,,,51.33179779199418,51.33179779199418,51.33179779199418,51.33179779199418,51.33179779199418,51.33179779199418,51.33179779199418,51.33179779199418,51.31051016635805,51.33179779199418,51.33179779199418,51.33179779199418,51.31051016635805,51.33179779199418,51.33179779199418,51.33179779199418,53.43929633300286,57.30111266701715,51.33179779199418,51.33179779199418,56.59773366700392,51.82147333299508,52.84471754200058,53.43929633300286,54.44803550001234,51.33179779199418,51.33179779199418,51.31051016635805,51.33179779199418,51.33179779199418,51.33179779199418,51.31051016635805,51.33179779199418,51.33179779199418,56.59773366700392,51.33179779199418,56.59773366700392,56.55917770799715,57.47929212503368,51.33179779199418,2,1,0.999824374972377,,reldom2_s006,001,2025-01-31_14h08.20.922,practice_test1_AC,2022.2.5,None,
0,0.0,None,fixation,stimulus/viswhere_stim/blank_white.png,stimulus/viswhere_stim/blank_white.png,stimulus/audwhere_stim/blank_white.png,stimulus/audwhere_stim/blank_white.png,stimulus/viswhere_stim/blank_white.png,stimulus/viswhere_stim/blank_white.png,stimulus/viswhere_stim/blank_white.png,stimulus/viswhere_stim/blank_white.png,0.0,0.0,0.0,0.0,0,0.0,0,0.0,0,0.0,0,0.0,0,0.0,0.0,0,0.0,0,0.0,0,0.0,0,0.0,0,0.0,0,0.0,0,0.0,0,0.0,5,,,,,0,5,5,5,,,,,57.47929212503368,57.47929212503368,57.47929212503368,57.47929212503368,57.47929212503368,57.47929212503368,57.47929212503368,57.47929212503368,57.384446000350486,57.47929212503368,57.47929212503368,57.47929212503368,57.384446000350486,57.47929212503368,57.47929212503368,57.47929212503368,57.47929212503368,57.47929212503368,57.47929212503368,57.47929212503368,57.47929212503368,57.47929212503368,57.47929212503368,57.47929212503368,57.47929212503368,57.47929212503368,57.47929212503368,57.43444600035048,57.47929212503368,57.47929212503368,57.47929212503368,57.43444600035048,57.47929212503368,57.47929212503368,57.47929212503368,57.47929212503368,57.47929212503368,62.72707695799181,62.72707695799181,62.5562937920331,None,0,,,reldom2_s006,001,2025-01-31_14h08.20.922,practice_test1_AC,2022.2.5,None,
5,Second_Order,1.0,viswhere,stimulus/viswhere_stim/150-deg_dot-right_slateblue.png,stimulus/viswhere_stim/150-deg_dot-left_turquoise.png,stimulus/viswhere_stim/90-deg_dot-left_mediumslateblue.png,stimulus/viswhere_stim/90-deg_dot-right_peru.png,stimulus/viswhere_stim/match_blank.png,stimulus/viswhere_stim/match_box.png,stimulus/viswhere_stim/match_yes.png,stimulus/viswhere_stim/match_no.png,1.0,Match,Line,Line,1,5.25,0,5.25,0,5.25,0,5.25,0,0.75,0.75,1,0.5,1,2.125,1,0.5,1,2.125,0,0.0,0,0.0,0,0.0,0,0.0,0,,,,,0,6,6,6,,,,,62.72707695799181,67.96721645799698,63.20949245803058,64.20174341701204,64.82382512500044,65.81271020800341,62.72707695799181,62.72707695799181,62.72655795866546,62.72707695799181,62.72707695799181,62.72707695799181,62.72655795866546,62.72707695799181,67.96721645799698,68.77109441702487,70.85188750002999,74.70874033303699,68.77109441702487,68.77109441702487,74.02382195799146,69.22749241703423,70.2448615829926,70.85188750002999,71.86534550000215,68.77109441702487,68.77109441702487,68.75283137500519,68.77109441702487,68.77109441702487,68.77109441702487,68.75283137500519,68.77109441702487,68.77109441702487,74.02382195799146,68.77109441702487,74.02382195799146,73.96185441699345,74.74801537499297,68.77109441702487,1,1,1.6343985419371165,,reldom2_s006,001,2025-01-31_14h08.20.922,practice_test1_AC,2022.2.5,None,
6,Second_Order,1.0,viswhere,stimulus/viswhere_stim/150-deg_dot-right_mediumslateblue.png,stimulus/viswhere_stim/30-deg_dot-right_salmon.png,stimulus/viswhere_stim/120-deg_dot-right_royalblue.png,stimulus/viswhere_stim/120-deg_dot-left_salmon.png,stimulus/viswhere_stim/match_blank.png,stimulus/viswhere_stim/match_box.png,stimulus/viswhere_stim/match_yes.png,stimulus/viswhere_stim/match_no.png,2.0,Match,Dot,Line,2,5.25,0,5.25,0,5.25,0,5.25,0,0.75,0.75,1,0.5,1,2.125,1,0.5,1,2.125,0,0.0,0,0.0,0,0.0,0,0.0,0,,,,,0,7,7,7,,,,,74.74801537499297,79.98960595799144,75.23435112502193,76.22420704201795,76.85969966702396,77.85956250003073,74.74801537499297,74.74801537499297,74.75874033303698,74.74801537499297,74.74801537499297,74.74801537499297,74.75874033303698,74.74801537499297,79.98960595799144,80.7935380419949,82.87354858301114,86.7425379580236,80.7935380419949,80.7935380419949,86.06335054204101,81.24938358302461,82.26824262499576,82.87354858301114,83.88922991702566,80.7935380419949,80.7935380419949,80.76369887532977,80.7935380419949,80.7935380419949,80.7935380419949,80.76369887532977,80.7935380419949,80.7935380419949,86.06335054204101,80.7935380419949,86.06335054204101,86.00293833302567,86.92313154204749,80.7935380419949,2,1,0.9831978749716654,,reldom2_s006,001,2025-01-31_14h08.20.922,practice_test1_AC,2022.2.5,None,
0,0.0,None,fixation,stimulus/viswhere_stim/blank_white.png,stimulus/viswhere_stim/blank_white.png,stimulus/audwhere_stim/blank_white.png,stimulus/audwhere_stim/blank_white.png,stimulus/viswhere_stim/blank_white.png,stimulus/viswhere_stim/blank_white.png,stimulus/viswhere_stim/blank_white.png,stimulus/viswhere_stim/blank_white.png,0.0,0.0,0.0,0.0,0,0.0,0,0.0,0,0.0,0,0.0,0,0.0,0.0,0,0.0,0,0.0,0,0.0,0,0.0,0,0.0,0,0.0,0,0.0,0,0.0,7,,,,,0,8,8,8,,,,,86.92313154204749,86.92313154204749,86.92313154204749,86.92313154204749,86.92313154204749,86.92313154204749,86.92313154204749,86.92313154204749,86.82587129135693,86.92313154204749,86.92313154204749,86.92313154204749,86.82587129135693,86.92313154204749,86.92313154204749,86.92313154204749,86.92313154204749,86.92313154204749,86.92313154204749,86.92313154204749,86.92313154204749,86.92313154204749,86.92313154204749,86.92313154204749,86.92313154204749,86.92313154204749,86.92313154204749,86.87587129135693,86.92313154204749,86.92313154204749,86.92313154204749,86.87587129135693,86.92313154204749,86.92313154204749,86.92313154204749,86.92313154204749,86.92313154204749,92.12431433302118,92.12431433302118,94.18570116703631,None,0,,,reldom2_s006,001,2025-01-31_14h08.20.922,practice_test1_AC,2022.2.5,None,
7,First_Order,2.0,audwhere,stimulus/audwhere_stim/dummy.wav,stimulus/audwhere_stim/dummy.wav,stimulus/audwhere_stim/left_toward_270h.wav,stimulus/audwhere_stim/right_toward_270h.wav,stimulus/audwhere_stim/blank_white.png,stimulus/audwhere_stim/direction_box.png,stimulus/audwhere_stim/direction_yes.png,stimulus/audwhere_stim/direction_no.png,None,Direction,None,Direction,1,0.0,0,5.25,0,5.25,0,5.25,0,0.0,0.75,0,0.0,0,0.0,0,0.0,0,0.0,0,0.0,0,0.0,1,0.5,1,2.125,0,,,,,0,9,9,9,,,,,94.18570116703631,94.18570116703631,94.18570116703631,94.18570116703631,94.18570116703631,94.18570116703631,94.18570116703631,94.18570116703631,94.09855208299123,94.18570116703631,94.18570116703631,94.18570116703631,94.09855208299123,94.18570116703631,94.18570116703631,94.18570116703631,96.27510987501591,100.16331875004107,94.18570116703631,94.18570116703631,99.5045226670336,94.18570116703631,94.18570116703631,94.18570116703631,94.18570116703631,94.67359416699037,95.74158320802962,94.64141991670864,,96.27510987501591,97.34453841700451,96.24314079166312,,94.18570116703631,99.5045226670336,94.18570116703631,99.5045226670336,99.40647041704506,100.3735728750471,94.18570116703631,1,1,2.543929749983363,,reldom2_s006,001,2025-01-31_14h08.20.922,practice_test1_AC,2022.2.5,None,
8,First_Order,2.0,audwhere,stimulus/audwhere_stim/dummy.wav,stimulus/audwhere_stim/dummy.wav,stimulus/audwhere_stim/right_away_280h.wav,stimulus/audwhere_stim/right_toward_290h.wav,stimulus/audwhere_stim/blank_white.png,stimulus/audwhere_stim/side_box.png,stimulus/audwhere_stim/side_yes.png,stimulus/audwhere_stim/side_no.png,None,Side,None,Side,1,0.0,0,5.25,0,5.25,0,5.25,0,0.0,0.75,0,0.0,0,0.0,0,0.0,0,0.0,0,0.0,0,0.0,1,0.5,1,2.125,0,,,,,0,10,10,10,,,,,100.3735728750471,100.3735728750471,100.3735728750471,100.3735728750471,100.3735728750471,100.3735728750471,100.3735728750471,100.3735728750471,100.2966520833744,100.3735728750471,100.3735728750471,100.3735728750471,100.2966520833744,100.3735728750471,100.3735728750471,100.3735728750471,102.46031824999955,106.34105516702402,100.3735728750471,100.3735728750471,105.66643395804567,100.3735728750471,100.3735728750471,100.3735728750471,100.3735728750471,100.86085570801515,101.92390129202977,100.82910633366943,,102.46031824999955,103.53454483300447,102.42688891670356,,100.3735728750471,105.66643395804567,100.3735728750471,105.66643395804567,105.57571216701763,106.55255437502638,100.3735728750471,1,1,1.2499972499790601,,reldom2_s006,001,2025-01-31_14h08.20.922,practice_test1_AC,2022.2.5,None,
9,First_Order,2.0,audwhere,stimulus/audwhere_stim/dummy.wav,stimulus/audwhere_stim/dummy.wav,stimulus/audwhere_stim/right_away_270h.wav,stimulus/audwhere_stim/right_toward_300h.wav,stimulus/audwhere_stim/blank_white.png,stimulus/audwhere_stim/side_box.png,stimulus/audwhere_stim/side_yes.png,stimulus/audwhere_stim/side_no.png,None,Side,None,Side,1,0.0,0,5.25,0,5.25,0,5.25,0,0.0,0.75,0,0.0,0,0.0,0,0.0,0,0.0,0,0.0,0,0.0,1,0.5,1,2.125,0,,,,,0,11,11,11,,,,,106.55255437502638,106.55255437502638,106.55255437502638,106.55255437502638,106.55255437502638,106.55255437502638,106.55255437502638,106.55255437502638,106.47438850035735,106.55255437502638,106.55255437502638,106.55255437502638,106.47438850035735,106.55255437502638,106.55255437502638,106.55255437502638,108.63558191701304,112.51248462504009,106.55255437502638,106.55255437502638,111.83506900002249,106.55255437502638,106.55255437502638,106.55255437502638,106.55255437502638,107.0373439580435,108.10412683303002,107.00559783366431,,108.63558191701304,109.70094945799792,108.60364383366347,,106.55255437502638,111.83506900002249,106.55255437502638,111.83506900002249,111.7926427500206,112.76570945803542,106.55255437502638,1,1,1.451753582980018,,reldom2_s006,001,2025-01-31_14h08.20.922,practice_test1_AC,2022.2.5,None,
10,First_Order,2.0,audwhere,stimulus/audwhere_stim/dummy.wav,stimulus/audwhere_stim/dummy.wav,stimulus/audwhere_stim/right_toward_300h.wav,stimulus/audwhere_stim/right_away_290h.wav,stimulus/audwhere_stim/blank_white.png,stimulus/audwhere_stim/direction_box.png,stimulus/audwhere_stim/direction_yes.png,stimulus/audwhere_stim/direction_no.png,None,Direction,None,Side,2,0.0,0,5.25,0,5.25,0,5.25,0,0.0,0.75,0,0.0,0,0.0,0,0.0,0,0.0,0,0.0,0,0.0,1,0.5,1,2.125,0,,,,,0,12,12,12,,,,,112.76570945803542,112.76570945803542,112.76570945803542,112.76570945803542,112.76570945803542,112.76570945803542,112.76570945803542,112.76570945803542,112.68815941634432,112.76570945803542,112.76570945803542,112.76570945803542,112.68815941634432,112.76570945803542,112.76570945803542,112.76570945803542,114.8624299170333,118.72417320800014,112.76570945803542,112.76570945803542,118.04150450002635,112.76570945803542,112.76570945803542,112.76570945803542,112.76570945803542,113.25292208301835,114.32718266703887,113.22038479167192,,114.8624299170333,115.90968533302657,114.83003537467836,,112.76570945803542,118.04150450002635,112.76570945803542,118.04150450002635,117.99872637499357,118.99660729203606,112.76570945803542,2,1,1.6144073749310337,,reldom2_s006,001,2025-01-31_14h08.20.922,practice_test1_AC,2022.2.5,None,
0,0.0,None,fixation,stimulus/viswhere_stim/blank_white.png,stimulus/viswhere_stim/blank_white.png,stimulus/audwhere_stim/blank_white.png,stimulus/audwhere_stim/blank_white.png,stimulus/viswhere_stim/blank_white.png,stimulus/viswhere_stim/blank_white.png,stimulus/viswhere_stim/blank_white.png,stimulus/viswhere_stim/blank_white.png,0.0,0.0,0.0,0.0,0,0.0,0,0.0,0,0.0,0,0.0,0,0.0,0.0,0,0.0,0,0.0,0,0.0,0,0.0,0,0.0,0,0.0,0,0.0,0,0.0,5,,,,,0,13,13,13,,,,,118.99660729203606,118.99660729203606,118.99660729203606,118.99660729203606,118.99660729203606,118.99660729203606,118.99660729203606,118.99660729203606,118.90000095832704,118.99660729203606,118.99660729203606,118.99660729203606,118.90000095832704,118.99660729203606,118.99660729203606,118.99660729203606,118.99660729203606,118.99660729203606,118.99660729203606,118.99660729203606,118.99660729203606,118.99660729203606,118.99660729203606,118.99660729203606,118.99660729203606,118.99660729203606,118.99660729203606,118.95000095832705,118.99660729203606,118.99660729203606,118.99660729203606,118.95000095832705,118.99660729203606,118.99660729203606,118.99660729203606,118.99660729203606,118.99660729203606,124.3114114170312,124.3114114170312,124.05696004204219,None,0,,,reldom2_s006,001,2025-01-31_14h08.20.922,practice_test1_AC,2022.2.5,None,
11,Second_Order,2.0,audwhere,stimulus/audwhere_stim/right_toward_270h.wav,stimulus/audwhere_stim/left_toward_290h.wav,stimulus/audwhere_stim/left_away_270h.wav,stimulus/audwhere_stim/left_toward_290h.wav,stimulus/viswhere_stim/match_blank.png,stimulus/viswhere_stim/match_box.png,stimulus/viswhere_stim/match_yes.png,stimulus/viswhere_stim/match_no.png,2.0,Match,Direction,Side,2,5.25,0,5.25,0,5.25,0,5.25,0,0.75,0.75,0,0.0,0,0.0,0,0.0,0,0.0,1,0.5,1,2.125,1,0.5,1,2.125,0,,,,,0,14,14,14,,,,,124.3114114170312,129.56319712504046,124.3114114170312,124.3114114170312,124.3114114170312,124.3114114170312,124.76378875004593,125.76338666700758,124.7709105836732,,126.38859820802463,127.38345079199644,126.39481783367616,,129.56319712504046,130.42934491700726,132.47260366700357,136.3316530000302,130.42934491700726,130.42934491700726,135.73643366701435,130.42934491700726,130.42934491700726,130.42934491700726,130.42934491700726,130.87044329202035,131.94079133303603,130.8387579586745,,132.47260366700357,133.54582295799628,132.44073870865785,,130.42934491700726,135.73643366701435,130.42934491700726,135.73643366701435,135.59458804200403,136.4517293330282,130.42934491700726,2,1,1.4612386249937117,,reldom2_s006,001,2025-01-31_14h08.20.922,practice_test1_AC,2022.2.5,None,
12,Second_Order,2.0,audwhere,stimulus/audwhere_stim/left_toward_270h.wav,stimulus/audwhere_stim/right_toward_300h.wav,stimulus/audwhere_stim/right_toward_300h.wav,stimulus/audwhere_stim/right_away_270h.wav,stimulus/viswhere_stim/match_blank.png,stimulus/viswhere_stim/match_box.png,stimulus/viswhere_stim/match_yes.png,stimulus/viswhere_stim/match_no.png,2.0,Match,Direction,Side,2,5.25,0,5.25,0,5.25,0,5.25,0,0.75,0.75,0,0.0,0,0.0,0,0.0,0,0.0,1,0.5,1,2.125,1,0.5,1,2.125,0,,,,,0,15,15,15,,,,,136.4517293330282,141.70067162503256,136.4517293330282,136.4517293330282,136.4517293330282,136.4517293330282,136.90522391704144,137.89982670801692,136.913247541703,,138.5256351249991,139.5265857920167,138.53340233368024,,141.70067162503256,142.56439325003885,144.60998700000346,148.46879420801997,142.56439325003885,142.56439325003885,147.87330091703916,142.56439325003885,142.56439325003885,142.56439325003885,142.56439325003885,143.00667520804564,144.07683733303566,142.97490874969324,,144.60998700000346,145.67988012504065,144.5773141667053,,142.56439325003885,147.87330091703916,142.56439325003885,147.87330091703916,147.73258400004124,148.69724812504137,142.56439325003885,2,1,1.7156016659573652,,reldom2_s006,001,2025-01-31_14h08.20.922,practice_test1_AC,2022.2.5,None,
0,0.0,None,fixation,stimulus/viswhere_stim/blank_white.png,stimulus/viswhere_stim/blank_white.png,stimulus/audwhere_stim/blank_white.png,stimulus/audwhere_stim/blank_white.png,stimulus/viswhere_stim/blank_white.png,stimulus/viswhere_stim/blank_white.png,stimulus/viswhere_stim/blank_white.png,stimulus/viswhere_stim/blank_white.png,0.0,0.0,0.0,0.0,0,0.0,0,0.0,0,0.0,0,0.0,0,0.0,0.0,0,0.0,0,0.0,0,0.0,0,0.0,0,0.0,0,0.0,0,0.0,0,0.0,5,,,,,0,16,16,16,,,,,148.69724812504137,148.69724812504137,148.69724812504137,148.69724812504137,148.69724812504137,148.69724812504137,148.69724812504137,148.69724812504137,148.60212754135333,148.69724812504137,148.69724812504137,148.69724812504137,148.60212754135333,148.69724812504137,148.69724812504137,148.69724812504137,148.69724812504137,148.69724812504137,148.69724812504137,148.69724812504137,148.69724812504137,148.69724812504137,148.69724812504137,148.69724812504137,148.69724812504137,148.69724812504137,148.69724812504137,148.6521275413533,148.69724812504137,148.69724812504137,148.69724812504137,148.6521275413533,148.69724812504137,148.69724812504137,148.69724812504137,148.69724812504137,148.69724812504137,154.06575166701805,154.06575166701805,153.75996870803647,None,0,,,reldom2_s006,001,2025-01-31_14h08.20.922,practice_test1_AC,2022.2.5,None,
13,First_Order,3.0,viswhat,stimulus/viswhat_stim/blank_white.png,stimulus/viswhat_stim/blank_white.png,stimulus/viswhat_stim/land_animal-ostrich.png,stimulus/viswhat_stim/land_vehicle-trolley.png,stimulus/viswhat_stim/blank_white.png,stimulus/viswhat_stim/location_box.png,stimulus/viswhat_stim/location_yes.png,stimulus/viswhat_stim/location_no.png,None,Location,None,Location,1,0.0,0,5.25,0,5.25,0,5.25,0,0.0,0.75,0,0.0,0,0.0,1,0.5,1,2.125,0,0.0,0,0.0,0,0.0,0,0.0,0,,,,,0,17,17,17,,,,,154.06575166701805,154.06575166701805,154.06575166701805,154.06575166701805,154.06575166701805,154.06575166701805,154.06575166701805,154.06575166701805,154.01803579202388,154.06575166701805,154.06575166701805,154.06575166701805,154.01803579202388,154.06575166701805,154.06575166701805,154.06575166701805,156.1739272500272,160.022257750039,154.06575166701805,154.06575166701805,159.32496854203055,154.53543400001945,155.56528275000164,156.1739272500272,157.19152141700033,154.06575166701805,154.06575166701805,154.0513691253572,154.06575166701805,154.06575166701805,154.06575166701805,154.0513691253572,154.06575166701805,154.06575166701805,159.32496854203055,154.06575166701805,159.32496854203055,159.30379645799985,160.25739812501706,154.06575166701805,1,1,2.176981916942168,,reldom2_s006,001,2025-01-31_14h08.20.922,practice_test1_AC,2022.2.5,None,
14,First_Order,3.0,viswhat,stimulus/viswhat_stim/blank_white.png,stimulus/viswhat_stim/blank_white.png,stimulus/viswhat_stim/water_vehicle-cruiser.png,stimulus/viswhat_stim/water_animal-stingray.png,stimulus/viswhat_stim/blank_white.png,stimulus/viswhat_stim/location_box.png,stimulus/viswhat_stim/location_yes.png,stimulus/viswhat_stim/location_no.png,None,Location,None,Location,1,0.0,0,5.25,0,5.25,0,5.25,0,0.0,0.75,0,0.0,0,0.0,1,0.5,1,2.125,0,0.0,0,0.0,0,0.0,0,0.0,0,,,,,0,18,18,18,,,,,160.25739812501706,160.25739812501706,160.25739812501706,160.25739812501706,160.25739812501706,160.25739812501706,160.25739812501706,160.25739812501706,160.12637491636755,160.25739812501706,160.25739812501706,160.25739812501706,160.12637491636755,160.25739812501706,160.25739812501706,160.25739812501706,162.34025787503924,166.38448404200608,160.25739812501706,160.25739812501706,165.5571119170054,160.72756195801776,161.8056635830435,162.34025787503924,163.41623066703323,160.25739812501706,160.25739812501706,160.19304158303422,160.25739812501706,160.25739812501706,160.25739812501706,160.19304158303422,160.25739812501706,160.25739812501706,165.5571119170054,160.25739812501706,165.5571119170054,165.42925899999682,166.38448404200608,160.25739812501706,1,1,0.9297231250093319,,reldom2_s006,001,2025-01-31_14h08.20.922,practice_test1_AC,2022.2.5,None,
15,First_Order,3.0,viswhat,stimulus/viswhat_stim/blank_white.png,stimulus/viswhat_stim/blank_white.png,stimulus/viswhat_stim/water_vehicle-cargoboat.png,stimulus/viswhat_stim/water_animal-squid.png,stimulus/viswhat_stim/blank_white.png,stimulus/viswhat_stim/type_box.png,stimulus/viswhat_stim/type_yes.png,stimulus/viswhat_stim/type_no.png,None,Type,None,Location,2,0.0,0,5.25,0,5.25,0,5.25,0,0.0,0.75,0,0.0,0,0.0,1,0.5,1,2.125,0,0.0,0,0.0,0,0.0,0,0.0,0,,,,,0,19,19,19,,,,,166.38448404200608,166.38448404200608,166.38448404200608,166.38448404200608,166.38448404200608,166.38448404200608,166.38448404200608,166.38448404200608,166.33056333368103,166.38448404200608,166.38448404200608,166.38448404200608,166.33056333368103,166.38448404200608,166.38448404200608,166.38448404200608,168.48358170804568,172.49470645800466,166.38448404200608,166.38448404200608,171.66376462503104,166.86141895799665,167.89074383303523,168.48358170804568,169.51872429199284,166.38448404200608,166.38448404200608,166.36389666701436,166.38448404200608,166.38448404200608,166.38448404200608,166.36389666701436,166.38448404200608,166.38448404200608,171.66376462503104,166.38448404200608,171.66376462503104,171.60042691702256,172.49470645800466,166.38448404200608,2,1,1.4587736249668524,,reldom2_s006,001,2025-01-31_14h08.20.922,practice_test1_AC,2022.2.5,None,
16,First_Order,3.0,viswhat,stimulus/viswhat_stim/blank_white.png,stimulus/viswhat_stim/blank_white.png,stimulus/viswhat_stim/water_vehicle-ferryboat.png,stimulus/viswhat_stim/water_animal-seaturtle.png,stimulus/viswhat_stim/blank_white.png,stimulus/viswhat_stim/type_box.png,stimulus/viswhat_stim/type_yes.png,stimulus/viswhat_stim/type_no.png,None,Type,None,Location,2,0.0,0,5.25,0,5.25,0,5.25,0,0.0,0.75,0,0.0,0,0.0,1,0.5,1,2.125,0,0.0,0,0.0,0,0.0,0,0.0,0,,,,,0,20,20,20,,,,,172.49470645800466,172.49470645800466,172.49470645800466,172.49470645800466,172.49470645800466,172.49470645800466,172.49470645800466,172.49470645800466,172.4332002499956,172.49470645800466,172.49470645800466,172.49470645800466,172.4332002499956,172.49470645800466,172.49470645800466,172.49470645800466,174.60553095804062,178.4701149170287,172.49470645800466,172.49470645800466,177.78847883304115,172.98314795800252,174.0307619580417,174.60553095804062,175.6560837920406,172.49470645800466,172.49470645800466,172.46653358332892,172.49470645800466,172.49470645800466,172.49470645800466,172.46653358332892,172.49470645800466,172.49470645800466,177.78847883304115,172.49470645800466,177.78847883304115,177.7193596670404,178.6821649580379,172.49470645800466,2,1,1.5209631249890663,,reldom2_s006,001,2025-01-31_14h08.20.922,practice_test1_AC,2022.2.5,None,
0,0.0,None,fixation,stimulus/viswhat_stim/blank_white.png,stimulus/viswhat_stim/blank_white.png,stimulus/audwhat_stim/blank_white.png,stimulus/audwhat_stim/blank_white.png,stimulus/viswhat_stim/blank_white.png,stimulus/viswhat_stim/blank_white.png,stimulus/viswhere_stim/blank_white.png,stimulus/viswhere_stim/blank_white.png,0.0,0.0,0.0,0.0,0,0.0,0,0.0,0,0.0,0,0.0,0,0.0,0.0,0,0.0,0,0.0,0,0.0,0,0.0,0,0.0,0,0.0,0,0.0,0,0.0,5,,,,,0,21,21,21,,,,,178.6821649580379,178.6821649580379,178.6821649580379,178.6821649580379,178.6821649580379,178.6821649580379,178.6821649580379,178.6821649580379,178.58678158369537,178.6821649580379,178.6821649580379,178.6821649580379,178.58678158369537,178.6821649580379,178.6821649580379,178.6821649580379,178.6821649580379,178.6821649580379,178.6821649580379,178.6821649580379,178.6821649580379,178.6821649580379,178.6821649580379,178.6821649580379,178.6821649580379,178.6821649580379,178.6821649580379,178.63678158369538,178.6821649580379,178.6821649580379,178.6821649580379,178.63678158369538,178.6821649580379,178.6821649580379,178.6821649580379,178.6821649580379,178.6821649580379,183.94557041703956,183.94557041703956,183.7566092920024,None,0,,,reldom2_s006,001,2025-01-31_14h08.20.922,practice_test1_AC,2022.2.5,None,
17,Second_Order,3.0,viswhat,stimulus/viswhat_stim/land_vehicle-motorcycle.png,stimulus/viswhat_stim/land_animal-dog.png,stimulus/viswhat_stim/water_animal-seahorse.png,stimulus/viswhat_stim/water_vehicle-cargoboat.png,stimulus/viswhere_stim/match_blank.png,stimulus/viswhere_stim/match_box.png,stimulus/viswhere_stim/match_yes.png,stimulus/viswhere_stim/match_no.png,1.0,Match,Location,Location,1,5.25,0,5.25,0,5.25,0,5.25,0,0.75,0.75,1,0.5,1,2.125,1,0.5,1,2.125,0,0.0,0,0.0,0,0.0,0,0.0,0,,,,,0,22,22,22,,,,,183.94557041703956,189.19665699999314,184.41102112503722,185.40774591703666,186.02965733304154,187.01860604202375,183.94557041703956,183.94557041703956,183.9449335413248,183.94557041703956,183.94557041703956,183.94557041703956,183.9449335413248,183.94557041703956,189.19665699999314,189.99096100003226,192.07328433304792,195.93631537503097,189.99096100003226,189.99096100003226,195.25132174999453,190.4536913750344,191.4657537920284,192.07328433304792,193.08454379200703,189.99096100003226,189.99096100003226,189.9634504583742,189.99096100003226,189.99096100003226,189.99096100003226,189.9634504583742,189.99096100003226,189.99096100003226,195.25132174999453,189.99096100003226,195.25132174999453,195.20452808303526,196.01575495803263,189.99096100003226,1,1,1.549466249998659,,reldom2_s006,001,2025-01-31_14h08.20.922,practice_test1_AC,2022.2.5,None,
18,Second_Order,3.0,viswhat,stimulus/viswhat_stim/water_animal-squid.png,stimulus/viswhat_stim/land_animal-snake.png,stimulus/viswhat_stim/land_animal-fox.png,stimulus/viswhat_stim/land_vehicle-oldcar.png,stimulus/viswhere_stim/match_blank.png,stimulus/viswhere_stim/match_box.png,stimulus/viswhere_stim/match_yes.png,stimulus/viswhere_stim/match_no.png,2.0,Match,Type,Location,2,5.25,0,5.25,0,5.25,0,5.25,0,0.75,0.75,1,0.5,1,2.125,1,0.5,1,2.125,0,0.0,0,0.0,0,0.0,0,0.0,0,,,,,0,23,23,23,,,,,196.01575495803263,201.25855329202022,196.4797025420121,197.47269166703336,198.1074934170465,199.10374691704055,196.01575495803263,196.01575495803263,196.02286037466646,196.01575495803263,196.01575495803263,196.01575495803263,196.02286037466646,196.01575495803263,201.25855329202022,202.102399083029,204.15116779203527,208.03595445799874,202.102399083029,202.102399083029,207.41448970802594,202.56989225000143,203.6099394580233,204.15116779203527,205.19655829202384,202.102399083029,202.102399083029,202.06161108370097,202.102399083029,202.102399083029,202.102399083029,202.06161108370097,202.102399083029,202.102399083029,207.41448970802594,202.102399083029,207.41448970802594,207.28485525003634,208.26548141700914,202.102399083029,2,1,0.7480179999838583,,reldom2_s006,001,2025-01-31_14h08.20.922,practice_test1_AC,2022.2.5,None,
0,0.0,None,fixation,stimulus/viswhat_stim/blank_white.png,stimulus/viswhat_stim/blank_white.png,stimulus/audwhat_stim/blank_white.png,stimulus/audwhat_stim/blank_white.png,stimulus/viswhat_stim/blank_white.png,stimulus/viswhat_stim/blank_white.png,stimulus/viswhere_stim/blank_white.png,stimulus/viswhere_stim/blank_white.png,0.0,0.0,0.0,0.0,0,0.0,0,0.0,0,0.0,0,0.0,0,0.0,0.0,0,0.0,0,0.0,0,0.0,0,0.0,0,0.0,0,0.0,0,0.0,0,0.0,6,,,,,0,24,24,24,,,,,208.26548141700914,208.26548141700914,208.26548141700914,208.26548141700914,208.26548141700914,208.26548141700914,208.26548141700914,208.26548141700914,208.1692877913321,208.26548141700914,208.26548141700914,208.26548141700914,208.1692877913321,208.26548141700914,208.26548141700914,208.26548141700914,208.26548141700914,208.26548141700914,208.26548141700914,208.26548141700914,208.26548141700914,208.26548141700914,208.26548141700914,208.26548141700914,208.26548141700914,208.26548141700914,208.26548141700914,208.21928779133208,208.26548141700914,208.26548141700914,208.26548141700914,208.21928779133208,208.26548141700914,208.26548141700914,208.26548141700914,208.26548141700914,208.26548141700914,213.47552675002953,213.47552675002953,214.54385045799427,None,0,,,reldom2_s006,001,2025-01-31_14h08.20.922,practice_test1_AC,2022.2.5,None,
19,First_Order,4.0,audwhat,stimulus/audwhat_stim/dummy.wav,stimulus/audwhat_stim/dummy.wav,stimulus/audwhat_stim/percussion xylophone_high-pitch_D_loud.wav,stimulus/audwhat_stim/string viola_high-pitch_D_loud.wav,stimulus/audwhat_stim/blank_white.png,stimulus/audwhat_stim/pitch_box.png,stimulus/audwhat_stim/pitch_yes.png,stimulus/audwhat_stim/pitch_no.png,None,Pitch,None,Pitch,1,0.0,0,5.25,0,5.25,0,5.25,0,0.0,0.75,0,0.0,0,0.0,0,0.0,0,0.0,0,0.0,0,0.0,1,0.5,1,2.125,0,,,,,0,25,25,25,,,,,214.54385045799427,214.54385045799427,214.54385045799427,214.54385045799427,214.54385045799427,214.54385045799427,214.54385045799427,214.54385045799427,214.46908341666375,214.54385045799427,214.54385045799427,214.54385045799427,214.46908341666375,214.54385045799427,214.54385045799427,214.54385045799427,216.62313529202947,220.4928097500233,214.54385045799427,214.54385045799427,219.84305791702354,214.54385045799427,214.54385045799427,214.54385045799427,214.54385045799427,214.98835541703738,216.03006529202685,214.95593816670979,216.03006529202685,216.62313529202947,217.66422908299137,216.59041574970277,,214.54385045799427,219.84305791702354,214.54385045799427,219.84305791702354,219.74975712504238,220.70963929203572,214.54385045799427,1,1,2.960478874971159,,reldom2_s006,001,2025-01-31_14h08.20.922,practice_test1_AC,2022.2.5,None,
20,First_Order,4.0,audwhat,stimulus/audwhat_stim/dummy.wav,stimulus/audwhat_stim/dummy.wav,stimulus/audwhat_stim/string cello_high-pitch_Ftri_loud.wav,stimulus/audwhat_stim/string viola_low-pitch_F_loud.wav,stimulus/audwhat_stim/blank_white.png,stimulus/audwhat_stim/pitch_box.png,stimulus/audwhat_stim/pitch_yes.png,stimulus/audwhat_stim/pitch_no.png,None,Pitch,None,Category,2,0.0,0,5.25,0,5.25,0,5.25,0,0.0,0.75,0,0.0,0,0.0,0,0.0,0,0.0,0,0.0,0,0.0,1,0.5,1,2.125,0,,,,,0,26,26,26,,,,,220.70963929203572,220.70963929203572,220.70963929203572,220.70963929203572,220.70963929203572,220.70963929203572,220.70963929203572,220.70963929203572,220.62614308335665,220.70963929203572,220.70963929203572,220.70963929203572,220.62614308335665,220.70963929203572,220.70963929203572,220.70963929203572,222.7942234170041,226.6631226669997,220.70963929203572,220.70963929203572,226.0158247500076,220.70963929203572,220.70963929203572,220.70963929203572,220.70963929203572,221.15509412501706,222.20067112502875,221.12160549970966,,222.7942234170041,223.83783495804528,222.76163333369576,,220.70963929203572,226.0158247500076,220.70963929203572,226.0158247500076,225.9227507080068,226.88333062501624,220.70963929203572,2,1,1.6195151659776457,,reldom2_s006,001,2025-01-31_14h08.20.922,practice_test1_AC,2022.2.5,None,
21,First_Order,4.0,audwhat,stimulus/audwhat_stim/dummy.wav,stimulus/audwhat_stim/dummy.wav,stimulus/audwhat_stim/string viola_high-pitch_D_loud.wav,stimulus/audwhat_stim/percussion xylophone_high-pitch_D_loud.wav,stimulus/audwhat_stim/blank_white.png,stimulus/audwhat_stim/pitch_box.png,stimulus/audwhat_stim/pitch_yes.png,stimulus/audwhat_stim/pitch_no.png,None,Pitch,None,Pitch,1,0.0,0,5.25,0,5.25,0,5.25,0,0.0,0.75,0,0.0,0,0.0,0,0.0,0,0.0,0,0.0,0,0.0,1,0.5,1,2.125,0,,,,,0,27,27,27,,,,,226.88333062501624,226.88333062501624,226.88333062501624,226.88333062501624,226.88333062501624,226.88333062501624,226.88333062501624,226.88333062501624,226.79645600033305,226.88333062501624,226.88333062501624,226.88333062501624,226.79645600033305,226.88333062501624,226.88333062501624,226.88333062501624,228.9729132920038,232.82976941700326,226.88333062501624,226.88333062501624,232.20790249999845,226.88333062501624,226.88333062501624,226.88333062501624,226.88333062501624,227.33130116702523,228.37762725003995,227.29775429168174,,228.9729132920038,230.017641500046,228.93922066671465,230.017641500046,226.88333062501624,232.20790249999845,226.88333062501624,232.20790249999845,232.11499583302066,233.09180816699518,226.88333062501624,2,0,1.265343499951996,,reldom2_s006,001,2025-01-31_14h08.20.922,practice_test1_AC,2022.2.5,None,
22,First_Order,4.0,audwhat,stimulus/audwhat_stim/dummy.wav,stimulus/audwhat_stim/dummy.wav,stimulus/audwhat_stim/string cello_low-pitch_F_loud.wav,stimulus/audwhat_stim/string viola_high-pitch_Ftri_loud.wav,stimulus/audwhat_stim/blank_white.png,stimulus/audwhat_stim/category_box.png,stimulus/audwhat_stim/category_yes.png,stimulus/audwhat_stim/category_no.png,None,Category,None,Category,1,0.0,0,5.25,0,5.25,0,5.25,0,0.0,0.75,0,0.0,0,0.0,0,0.0,0,0.0,0,0.0,0,0.0,1,0.5,1,2.125,0,,,,,0,28,28,28,,,,,233.09180816699518,233.09180816699518,233.09180816699518,233.09180816699518,233.09180816699518,233.09180816699518,233.09180816699518,233.09180816699518,233.00609241632824,233.09180816699518,233.09180816699518,233.09180816699518,233.00609241632824,233.09180816699518,233.09180816699518,233.09180816699518,235.19491195800947,239.05090604204452,233.09180816699518,233.09180816699518,238.39496870804578,233.09180816699518,233.09180816699518,233.09180816699518,233.09180816699518,233.5410698330379,234.58959133300232,233.50796241668675,,235.19491195800947,236.25255937501788,235.16218958370544,,233.09180816699518,238.39496870804578,233.09180816699518,238.39496870804578,238.30223358300282,239.2899974170141,233.09180816699518,1,1,1.6784675419330597,,reldom2_s006,001,2025-01-31_14h08.20.922,practice_test1_AC,2022.2.5,None,
0,0.0,None,fixation,stimulus/viswhat_stim/blank_white.png,stimulus/viswhat_stim/blank_white.png,stimulus/audwhat_stim/blank_white.png,stimulus/audwhat_stim/blank_white.png,stimulus/viswhat_stim/blank_white.png,stimulus/viswhat_stim/blank_white.png,stimulus/viswhere_stim/blank_white.png,stimulus/viswhere_stim/blank_white.png,0.0,0.0,0.0,0.0,0,0.0,0,0.0,0,0.0,0,0.0,0,0.0,0.0,0,0.0,0,0.0,0,0.0,0,0.0,0,0.0,0,0.0,0,0.0,0,0.0,5,,,,,0,29,29,29,,,,,239.2899974170141,239.2899974170141,239.2899974170141,239.2899974170141,239.2899974170141,239.2899974170141,239.2899974170141,239.2899974170141,239.18423937537787,239.2899974170141,239.2899974170141,239.2899974170141,239.18423937537787,239.2899974170141,239.2899974170141,239.2899974170141,239.2899974170141,239.2899974170141,239.2899974170141,239.2899974170141,239.2899974170141,239.2899974170141,239.2899974170141,239.2899974170141,239.2899974170141,239.2899974170141,239.2899974170141,239.23423937537785,239.2899974170141,239.2899974170141,239.2899974170141,239.23423937537785,239.2899974170141,239.2899974170141,239.2899974170141,239.2899974170141,239.2899974170141,244.56854729203042,244.56854729203042,244.36465262499405,None,0,,,reldom2_s006,001,2025-01-31_14h08.20.922,practice_test1_AC,2022.2.5,None,
23,Second_Order,4.0,audwhat,stimulus/audwhat_stim/percussion mallet_high-pitch_D_loud.wav,stimulus/audwhat_stim/string cello_high-pitch_D_loud.wav,stimulus/audwhat_stim/percussion mallet_low-pitch_F_loud.wav,stimulus/audwhat_stim/percussion xylophone_high-pitch_Ftri_loud.wav,stimulus/viswhere_stim/match_blank.png,stimulus/viswhere_stim/match_box.png,stimulus/viswhere_stim/match_yes.png,stimulus/viswhere_stim/match_no.png,2.0,Match,Pitch,Category,2,5.25,0,5.25,0,5.25,0,5.25,0,0.75,0.75,0,0.0,0,0.0,0,0.0,0,0.0,1,0.5,1,2.125,1,0.5,1,2.125,0,,,,,0,30,30,30,,,,,244.56854729203042,249.81228895799723,244.56854729203042,244.56854729203042,244.56854729203042,244.56854729203042,245.01554670801852,246.00297212501755,245.02398279169964,,246.65129012503894,247.647337833012,246.65899466671206,,249.81228895799723,250.67659316700883,252.7158024579985,256.59682491701096,250.67659316700883,250.67659316700883,255.99112837499706,250.67659316700883,250.67659316700883,250.67659316700883,250.67659316700883,251.0815995830344,252.12143583304714,251.0477643747038,,252.7158024579985,253.75793212500867,252.6818975416866,253.75793212500867,250.67659316700883,255.99112837499706,250.67659316700883,255.99112837499706,255.84764029202051,256.7207773750415,250.67659316700883,1,0,2.3955852079670876,,reldom2_s006,001,2025-01-31_14h08.20.922,practice_test1_AC,2022.2.5,None,
24,Second_Order,4.0,audwhat,stimulus/audwhat_stim/percussion mallet_low-pitch_Ftri_loud.wav,stimulus/audwhat_stim/percussion xylophone_high-pitch_F_loud.wav,stimulus/audwhat_stim/string cello_low-pitch_F_loud.wav,stimulus/audwhat_stim/string cello_high-pitch_Ftri_loud.wav,stimulus/viswhere_stim/match_blank.png,stimulus/viswhere_stim/match_box.png,stimulus/viswhere_stim/match_yes.png,stimulus/viswhere_stim/match_no.png,1.0,Match,Category,Category,1,5.25,0,5.25,0,5.25,0,5.25,0,0.75,0.75,0,0.0,0,0.0,0,0.0,0,0.0,1,0.5,1,2.125,1,0.5,1,2.125,0,,,,,0,31,31,31,,,,,256.7207773750415,261.9620227920241,256.7207773750415,256.7207773750415,256.7207773750415,256.7207773750415,257.1706295830081,258.15931183303474,257.17965154169747,,258.7941924580373,259.79537804203574,258.80255858367696,259.79537804203574,261.9620227920241,262.8255534580094,264.86256937502185,268.76486012502573,262.8255534580094,262.8255534580094,268.11364095803583,262.8255534580094,262.8255534580094,262.8255534580094,262.8255534580094,263.2769270000281,264.32061925000744,263.2434872916822,,264.86256937502185,265.93600120802876,264.8295737087067,,262.8255534580094,268.11364095803583,262.8255534580094,268.11364095803583,268.0201931670308,269.00165966700297,262.8255534580094,1,1,0.9749605419347063,,reldom2_s006,001,2025-01-31_14h08.20.922,practice_test1_AC,2022.2.5,None,
0,0.0,None,fixation,stimulus/viswhat_stim/blank_white.png,stimulus/viswhat_stim/blank_white.png,stimulus/audwhat_stim/blank_white.png,stimulus/audwhat_stim/blank_white.png,stimulus/viswhat_stim/blank_white.png,stimulus/viswhat_stim/blank_white.png,stimulus/viswhere_stim/blank_white.png,stimulus/viswhere_stim/blank_white.png,0.0,0.0,0.0,0.0,0,0.0,0,0.0,0,0.0,0,0.0,0,0.0,0.0,0,0.0,0,0.0,0,0.0,0,0.0,0,0.0,0,0.0,0,0.0,0,0.0,5,,,,,0,32,32,32,,,,,269.00165966700297,269.00165966700297,269.00165966700297,269.00165966700297,269.00165966700297,269.00165966700297,269.00165966700297,269.00165966700297,268.89819345835906,269.00165966700297,269.00165966700297,269.00165966700297,268.89819345835906,269.00165966700297,269.00165966700297,269.00165966700297,269.00165966700297,269.00165966700297,269.00165966700297,269.00165966700297,269.00165966700297,269.00165966700297,269.00165966700297,269.00165966700297,269.00165966700297,269.00165966700297,269.00165966700297,268.94819345835907,269.00165966700297,269.00165966700297,269.00165966700297,268.94819345835907,269.00165966700297,269.00165966700297,269.00165966700297,269.00165966700297,269.00165966700297,274.30623133300105,274.30623133300105,274.05363224999746,None,0,,,reldom2_s006,001,2025-01-31_14h08.20.922,practice_test1_AC,2022.2.5,None,
,,,,,,,,,,,,,,,,,,,,,,,,,,,,,,,,,,,,,,,,,,,,,,,,,,,,,,,,,,,,,,,,,,,,,,,,,,,,,,,,,,,,,,,,,,,,,,,,,,,274.30623133300105,,,,,,,
