Trial,Order,Block,Type,Stimuli_File1,Stimuli_File2,Stimuli_File3,Stimuli_File4,Cue_File1,Cue_File2,Response_File_Yes,Response_File_No,Match,Cue_Dimension,Pair1_Dimension,Pair2_Dimension,Key,Cue1_Duration,Cue1_Onset,Cue2_Duration,Cue2_Onset,ResponseYes_Duration,ResponseYes_Onset,ResponseNo_Duration,ResponseNo_Onset,ITI_Within,ITI_Between,Image1_Duration,Image1_Onset,Image2_Duration,Image2_Onset,Image3_Duration,Image3_Onset,Image4_Duration,Image4_Onset,Sound1_Duration,Sound1_Onset,Sound2_Duration,Sound2_Onset,Sound3_Duration,Sound3_Onset,Sound4_Duration,Sound4_Onset,Fixation_Duration,trials_2.thisRepN,trials_2.thisTrialN,trials_2.thisN,trials_2.thisIndex,trials.thisRepN,trials.thisTrialN,trials.thisN,trials.thisIndex,text_start.started,key_resp_start.started,key_resp_start.keys,key_resp_start.rt,text2.started,key_resp_2.started,key_resp_2.keys,key_resp_2.rt,cue_file1.started,cue_file1.stopped,image_1.started,image_1.stopped,image_2.started,image_2.stopped,sound_icon1.started,sound_icon1.stopped,sound_1.started,sound_1.stopped,sound_icon2.started,sound_icon2.stopped,sound_2.started,sound_2.stopped,image_blank_1.started,image_blank_1.stopped,key_press.started,key_press.stopped,fixation_text.started,cue_file2.started,cue_file2.stopped,image_3.started,image_3.stopped,image_4.started,image_4.stopped,sound_icon3.started,sound_icon3.stopped,sound_3.started,sound_3.stopped,sound_icon4.started,sound_icon4.stopped,sound_4.started,sound_4.stopped,response_yes.started,response_yes.stopped,response_no.started,response_no.stopped,iti_blank.started,iti_blank.stopped,fixation_text.stopped,key_press.keys,key_press.corr,key_press.rt,participant,session,date,expName,psychopyVersion,frameRate,
,,,,,,,,,,,,,,,,,,,,,,,,,,,,,,,,,,,,,,,,,,,,,,,,,,,,7.227384499999971,7.227384499999971,2,1.5440589580000506,,,,,,,,,,,,,,,,,,,,,,,,,,,,,,,,,,,,,,,,,,,,,,,,reldom2_s019,001,2025-02-20_12h42.08.093,What-B-Scan_AC,2022.2.5,None,
,,,,,,,,,,,,,,,,,,,,,,,,,,,,,,,,,,,,,,,,,,,,0,0,0,0,,,,,,,,,8.812857582999868,8.812857582999868,5,16.932423666999966,,,,,,,,,,,,,,,,,,,,,,,,,,,,,,,,,,,,,,,,,,,,reldom2_s019,001,2025-02-20_12h42.08.093,What-B-Scan_AC,2022.2.5,None,
,,,,,,,,,,,,,,,,,,,,,,,,,,,,,,,,,,,,,,,,,,,,1,0,1,0,,,,,,,,,25.75690358299994,25.75690358299994,5,1.9898718750000626,,,,,,,,,,,,,,,,,,,,,,,,,,,,,,,,,,,,,,,,,,,,reldom2_s019,001,2025-02-20_12h42.08.093,What-B-Scan_AC,2022.2.5,None,
,,,,,,,,,,,,,,,,,,,,,,,,,,,,,,,,,,,,,,,,,,,,2,0,2,0,,,,,,,,,27.763845291000052,27.763845291000052,5,1.982196624999915,,,,,,,,,,,,,,,,,,,,,,,,,,,,,,,,,,,,,,,,,,,,reldom2_s019,001,2025-02-20_12h42.08.093,What-B-Scan_AC,2022.2.5,None,
,,,,,,,,,,,,,,,,,,,,,,,,,,,,,,,,,,,,,,,,,,,,3,0,3,0,,,,,,,,,29.75967295800001,29.75967295800001,5,1.9865723749999233,,,,,,,,,,,,,,,,,,,,,,,,,,,,,,,,,,,,,,,,,,,,reldom2_s019,001,2025-02-20_12h42.08.093,What-B-Scan_AC,2022.2.5,None,
0,0.0,None,fixation,stimulus/viswhat_stim/blank_white.png,stimulus/viswhat_stim/blank_white.png,stimulus/audwhat_stim/blank_white.png,stimulus/audwhat_stim/blank_white.png,stimulus/viswhat_stim/blank_white.png,stimulus/viswhat_stim/blank_white.png,stimulus/viswhat_stim/blank_white.png,stimulus/viswhat_stim/blank_white.png,0.0,0.0,0.0,0.0,0,0.0,0,0.0,0,0.0,0,0.0,0,0.0,0.0,0,0.0,0,0.0,0,0.0,0,0.0,0,0.0,0,0.0,0,0.0,0,0.0,16,,,,,0,0,0,0,,,,,,,,,31.958215540999845,31.958215540999845,31.958215540999845,31.958215540999845,31.958215540999845,31.958215540999845,31.958215540999845,31.958215540999845,31.864765249666668,31.958215540999845,31.958215540999845,31.958215540999845,31.864765249666668,31.958215540999845,31.958215540999845,31.958215540999845,31.958215540999845,31.958215540999845,31.958215540999845,31.958215540999845,31.958215540999845,31.958215540999845,31.958215540999845,31.958215540999845,31.958215540999845,31.958215540999845,31.958215540999845,31.914765249666665,31.958215540999845,31.958215540999845,31.958215540999845,31.914765249666665,31.958215540999845,31.958215540999845,31.958215540999845,31.958215540999845,31.958215540999845,37.14882416599994,37.14882416599994,48.394151875000034,None,0,,reldom2_s019,001,2025-02-20_12h42.08.093,What-B-Scan_AC,2022.2.5,None,
1,First_Order,1.0,viswhat,stimulus/viswhat_stim/blank_white.png,stimulus/viswhat_stim/blank_white.png,stimulus/viswhat_stim/water_vehicle-pirateship.png,stimulus/viswhat_stim/water_animal-lobster.png,stimulus/viswhat_stim/blank_white.png,stimulus/viswhat_stim/location_box.png,stimulus/viswhat_stim/location_yes.png,stimulus/viswhat_stim/location_no.png,None,Location,None,Location,1,0.0,0,5.125,0,5.125,0,5.125,0,0.0,0.625,0,0.0,0,0.0,1,0.5,1,2.125,0,0.0,0,0.0,0,0.0,0,0.0,0,,,,,0,1,1,1,,,,,,,,,48.394151875000034,48.394151875000034,48.394151875000034,48.394151875000034,48.394151875000034,48.394151875000034,48.394151875000034,48.394151875000034,48.10558241599997,48.394151875000034,48.394151875000034,48.394151875000034,48.10558241599997,48.394151875000034,48.394151875000034,48.394151875000034,50.43789562500001,,48.394151875000034,48.394151875000034,53.65556112499985,48.83195354099985,49.99970424999992,50.43789562500001,51.61056458300004,48.394151875000034,48.394151875000034,48.25558241599997,48.394151875000034,48.394151875000034,48.394151875000034,48.25558241599997,48.394151875000034,48.394151875000034,53.65556112499985,48.394151875000034,53.65556112499985,53.513928665999856,,48.394151875000034,1,1,0.5991265000000112,reldom2_s019,001,2025-02-20_12h42.08.093,What-B-Scan_AC,2022.2.5,None,
2,First_Order,1.0,viswhat,stimulus/viswhat_stim/blank_white.png,stimulus/viswhat_stim/blank_white.png,stimulus/viswhat_stim/land_vehicle-firetruck.png,stimulus/viswhat_stim/water_vehicle-jetski.png,stimulus/viswhat_stim/blank_white.png,stimulus/viswhat_stim/location_box.png,stimulus/viswhat_stim/location_yes.png,stimulus/viswhat_stim/location_no.png,None,Location,None,Type,2,0.0,0,5.125,0,5.125,0,5.125,0,0.0,0.625,0,0.0,0,0.0,1,0.5,1,2.125,0,0.0,0,0.0,0,0.0,0,0.0,0,,,,,0,2,2,2,,,,,,,,,54.45078208299992,54.45078208299992,54.45078208299992,54.45078208299992,54.45078208299992,54.45078208299992,54.45078208299992,54.45078208299992,54.4135843333332,54.45078208299992,54.45078208299992,54.45078208299992,54.4135843333332,54.45078208299992,54.45078208299992,54.45078208299992,56.56163120799988,60.58925208300002,54.45078208299992,54.45078208299992,59.580093041000055,54.94054374999996,55.94970916600005,56.56163120799988,57.58783783299987,54.45078208299992,54.45078208299992,54.43025099999986,54.45078208299992,54.45078208299992,54.45078208299992,54.43025099999986,54.45078208299992,54.45078208299992,59.580093041000055,54.45078208299992,59.580093041000055,59.673774500000036,60.31641612499993,54.45078208299992,2,1,0.6762800839999272,reldom2_s019,001,2025-02-20_12h42.08.093,What-B-Scan_AC,2022.2.5,None,
3,First_Order,1.0,viswhat,stimulus/viswhat_stim/blank_white.png,stimulus/viswhat_stim/blank_white.png,stimulus/viswhat_stim/land_animal-moose.png,stimulus/viswhat_stim/water_animal-jellyfish.png,stimulus/viswhat_stim/blank_white.png,stimulus/viswhat_stim/type_box.png,stimulus/viswhat_stim/type_yes.png,stimulus/viswhat_stim/type_no.png,None,Type,None,Type,1,0.0,0,5.125,0,5.125,0,5.125,0,0.0,0.625,0,0.0,0,0.0,1,0.5,1,2.125,0,0.0,0,0.0,0,0.0,0,0.0,0,,,,,0,3,3,3,,,,,,,,,60.58925208300002,60.58925208300002,60.58925208300002,60.58925208300002,60.58925208300002,60.58925208300002,60.58925208300002,60.58925208300002,60.49194099999986,60.58925208300002,60.58925208300002,60.58925208300002,60.49194099999986,60.58925208300002,60.58925208300002,60.58925208300002,62.68351604099985,,60.58925208300002,60.58925208300002,65.79587412499995,61.06696895799996,62.145359582999845,62.68351604099985,63.76496629099984,60.58925208300002,60.58925208300002,60.54194099999986,60.58925208300002,60.58925208300002,60.58925208300002,60.54194099999986,60.58925208300002,60.58925208300002,65.79587412499995,60.58925208300002,65.79587412499995,65.79587412499995,66.66237879100004,60.58925208300002,1,1,0.5208692920000431,reldom2_s019,001,2025-02-20_12h42.08.093,What-B-Scan_AC,2022.2.5,None,
4,First_Order,1.0,viswhat,stimulus/viswhat_stim/blank_white.png,stimulus/viswhat_stim/blank_white.png,stimulus/viswhat_stim/land_animal-tiger.png,stimulus/viswhat_stim/land_vehicle-rv.png,stimulus/viswhat_stim/blank_white.png,stimulus/viswhat_stim/type_box.png,stimulus/viswhat_stim/type_yes.png,stimulus/viswhat_stim/type_no.png,None,Type,None,Location,2,0.0,0,5.125,0,5.125,0,5.125,0,0.0,0.625,0,0.0,0,0.0,1,0.5,1,2.125,0,0.0,0,0.0,0,0.0,0,0.0,0,,,,,0,4,4,4,,,,,,,,,66.66237879100004,66.66237879100004,66.66237879100004,66.66237879100004,66.66237879100004,66.66237879100004,66.66237879100004,66.66237879100004,66.61274449966656,66.66237879100004,66.66237879100004,66.66237879100004,66.61274449966656,66.66237879100004,66.66237879100004,66.66237879100004,68.77618316600001,72.80131149999988,66.66237879100004,66.66237879100004,71.83135483299998,67.14771204099998,68.18866495799989,68.77618316600001,69.82275533300003,66.66237879100004,66.66237879100004,66.62941116633323,66.66237879100004,66.66237879100004,66.66237879100004,66.62941116633323,66.66237879100004,66.66237879100004,71.83135483299998,66.66237879100004,71.83135483299998,71.88965016599991,72.52969437499996,66.66237879100004,2,1,0.5005393750000167,reldom2_s019,001,2025-02-20_12h42.08.093,What-B-Scan_AC,2022.2.5,None,
0,0.0,None,fixation,stimulus/viswhat_stim/blank_white.png,stimulus/viswhat_stim/blank_white.png,stimulus/audwhat_stim/blank_white.png,stimulus/audwhat_stim/blank_white.png,stimulus/viswhat_stim/blank_white.png,stimulus/viswhat_stim/blank_white.png,stimulus/viswhat_stim/blank_white.png,stimulus/viswhat_stim/blank_white.png,0.0,0.0,0.0,0.0,0,0.0,0,0.0,0,0.0,0,0.0,0,0.0,0.0,0,0.0,0,0.0,0,0.0,0,0.0,0,0.0,0,0.0,0,0.0,0,0.0,9,,,,,0,5,5,5,,,,,,,,,72.80131149999988,72.80131149999988,72.80131149999988,72.80131149999988,72.80131149999988,72.80131149999988,72.80131149999988,72.80131149999988,72.70436033266661,72.80131149999988,72.80131149999988,72.80131149999988,72.70436033266661,72.80131149999988,72.80131149999988,72.80131149999988,72.80131149999988,72.80131149999988,72.80131149999988,72.80131149999988,72.80131149999988,72.80131149999988,72.80131149999988,72.80131149999988,72.80131149999988,72.80131149999988,72.80131149999988,72.75436033266662,72.80131149999988,72.80131149999988,72.80131149999988,72.75436033266662,72.80131149999988,72.80131149999988,72.80131149999988,72.80131149999988,72.80131149999988,78.02656604100002,78.02656604100002,81.97324087499987,None,0,,reldom2_s019,001,2025-02-20_12h42.08.093,What-B-Scan_AC,2022.2.5,None,
5,Second_Order,1.0,viswhat,stimulus/viswhat_stim/land_animal-bunny.png,stimulus/viswhat_stim/land_vehicle-motorcycle.png,stimulus/viswhat_stim/water_animal-octopus.png,stimulus/viswhat_stim/land_animal-fox.png,stimulus/viswhat_stim/match_blank.png,stimulus/viswhat_stim/match_box.png,stimulus/viswhat_stim/match_yes.png,stimulus/viswhat_stim/match_no.png,2.0,Match,Location,Type,2,5.125,0,5.125,0,5.125,0,5.125,0,0.75,0.75,1,0.5,1,2.125,1,0.5,1,2.125,0,0.0,0,0.0,0,0.0,0,0.0,0,,,,,0,6,6,6,,,,,,,,,81.97324087499987,87.09721933299988,82.41874154099992,83.41691870799991,84.03987641599997,85.03745512499995,81.97324087499987,81.97324087499987,81.98201874966655,81.97324087499987,81.97324087499987,81.97324087499987,81.98201874966655,81.97324087499987,87.09721933299988,87.91157383299992,89.9997095409999,93.89499195799999,87.91157383299992,87.91157383299992,93.0607554579999,88.34613883299994,89.37637462499993,89.9997095409999,91.03510995800002,87.91157383299992,87.91157383299992,87.88041883299984,87.91157383299992,87.91157383299992,87.91157383299992,87.88041883299984,87.91157383299992,87.91157383299992,93.0607554579999,87.91157383299992,93.0607554579999,93.11195854099992,,87.91157383299992,2,1,0.6052252500001032,reldom2_s019,001,2025-02-20_12h42.08.093,What-B-Scan_AC,2022.2.5,None,
6,Second_Order,1.0,viswhat,stimulus/viswhat_stim/land_vehicle-tank.png,stimulus/viswhat_stim/land_animal-wolf.png,stimulus/viswhat_stim/water_vehicle-motorboatraft.png,stimulus/viswhat_stim/water_animal-squid.png,stimulus/viswhat_stim/match_blank.png,stimulus/viswhat_stim/match_box.png,stimulus/viswhat_stim/match_yes.png,stimulus/viswhat_stim/match_no.png,1.0,Match,Location,Location,1,5.125,0,5.125,0,5.125,0,5.125,0,0.625,0.625,1,0.5,1,2.125,1,0.5,1,2.125,0,0.0,0,0.0,0,0.0,0,0.0,0,,,,,0,7,7,7,,,,,,,,,93.89499195799999,99.00827433299992,94.37535687499985,95.36466537499996,96.00001845799989,96.99850891599999,93.89499195799999,93.89499195799999,93.89737629166672,93.89499195799999,93.89499195799999,93.89499195799999,93.89737629166672,93.89499195799999,99.00827433299992,99.70369537500005,101.76502316599999,105.82211158299992,99.70369537500005,99.70369537500005,104.84887941600005,100.14784599999984,101.175640875,101.76502316599999,102.80381262500009,99.70369537500005,99.70369537500005,99.67100504099999,99.70369537500005,99.70369537500005,99.70369537500005,99.67100504099999,99.70369537500005,99.70369537500005,104.84887941600005,99.70369537500005,104.84887941600005,104.89735666599995,105.54604812499997,99.70369537500005,1,1,0.48904137500016986,reldom2_s019,001,2025-02-20_12h42.08.093,What-B-Scan_AC,2022.2.5,None,
0,0.0,None,fixation,stimulus/viswhat_stim/blank_white.png,stimulus/viswhat_stim/blank_white.png,stimulus/audwhat_stim/blank_white.png,stimulus/audwhat_stim/blank_white.png,stimulus/viswhat_stim/blank_white.png,stimulus/viswhat_stim/blank_white.png,stimulus/viswhat_stim/blank_white.png,stimulus/viswhat_stim/blank_white.png,0.0,0.0,0.0,0.0,0,0.0,0,0.0,0,0.0,0,0.0,0,0.0,0.0,0,0.0,0,0.0,0,0.0,0,0.0,0,0.0,0,0.0,0,0.0,0,0.0,9,,,,,0,8,8,8,,,,,,,,,105.82211158299992,105.82211158299992,105.82211158299992,105.82211158299992,105.82211158299992,105.82211158299992,105.82211158299992,105.82211158299992,105.71748529100009,105.82211158299992,105.82211158299992,105.82211158299992,105.71748529100009,105.82211158299992,105.82211158299992,105.82211158299992,105.82211158299992,105.82211158299992,105.82211158299992,105.82211158299992,105.82211158299992,105.82211158299992,105.82211158299992,105.82211158299992,105.82211158299992,105.82211158299992,105.82211158299992,105.78415195766677,105.82211158299992,105.82211158299992,105.82211158299992,105.78415195766677,105.82211158299992,105.82211158299992,105.82211158299992,105.82211158299992,105.82211158299992,111.00827358299989,111.00827358299989,115.27703654099992,None,0,,reldom2_s019,001,2025-02-20_12h42.08.093,What-B-Scan_AC,2022.2.5,None,
7,First_Order,2.0,viswhat,stimulus/viswhat_stim/blank_white.png,stimulus/viswhat_stim/blank_white.png,stimulus/viswhat_stim/water_animal-lobster.png,stimulus/viswhat_stim/water_vehicle-canoe.png,stimulus/viswhat_stim/blank_white.png,stimulus/viswhat_stim/location_box.png,stimulus/viswhat_stim/location_yes.png,stimulus/viswhat_stim/location_no.png,None,Location,None,Location,1,0.0,0,5.125,0,5.125,0,5.125,0,0.0,0.625,0,0.0,0,0.0,1,0.5,1,2.125,0,0.0,0,0.0,0,0.0,0,0.0,0,,,,,0,9,9,9,,,,,,,,,115.27703654099992,115.27703654099992,115.27703654099992,115.27703654099992,115.27703654099992,115.27703654099992,115.27703654099992,115.27703654099992,114.9963422496666,115.27703654099992,115.27703654099992,115.27703654099992,114.9963422496666,115.27703654099992,115.27703654099992,115.27703654099992,117.3724003750001,,115.27703654099992,115.27703654099992,120.66491754100002,115.72585295800013,116.92376333300012,117.3724003750001,118.57375033299991,115.27703654099992,115.27703654099992,115.12967558299992,115.27703654099992,115.27703654099992,115.27703654099992,115.12967558299992,115.27703654099992,115.27703654099992,120.66491754100002,115.27703654099992,120.66491754100002,120.3707857500001,,115.27703654099992,1,1,0.4823919160003243,reldom2_s019,001,2025-02-20_12h42.08.093,What-B-Scan_AC,2022.2.5,None,
8,First_Order,2.0,viswhat,stimulus/viswhat_stim/blank_white.png,stimulus/viswhat_stim/blank_white.png,stimulus/viswhat_stim/water_animal-jellyfish.png,stimulus/viswhat_stim/land_animal-bunny.png,stimulus/viswhat_stim/blank_white.png,stimulus/viswhat_stim/type_box.png,stimulus/viswhat_stim/type_yes.png,stimulus/viswhat_stim/type_no.png,None,Type,None,Type,1,0.0,0,5.125,0,5.125,0,5.125,0,0.0,0.625,0,0.0,0,0.0,1,0.5,1,2.125,0,0.0,0,0.0,0,0.0,0,0.0,0,,,,,0,10,10,10,,,,,,,,,121.38647462499989,121.38647462499989,121.38647462499989,121.38647462499989,121.38647462499989,121.38647462499989,121.38647462499989,121.38647462499989,121.30252754099988,121.38647462499989,121.38647462499989,121.38647462499989,121.30252754099988,121.38647462499989,121.38647462499989,121.38647462499989,123.4796144999998,127.47208591599997,121.38647462499989,121.38647462499989,126.57280645800006,121.85809333299972,122.9030015410001,123.4796144999998,124.53709295800013,121.38647462499989,121.38647462499989,121.3358608743332,121.38647462499989,121.38647462499989,121.38647462499989,121.3358608743332,121.38647462499989,121.38647462499989,126.57280645800006,121.38647462499989,126.57280645800006,126.57280645800006,127.27297641600012,121.38647462499989,1,1,0.41695562499990046,reldom2_s019,001,2025-02-20_12h42.08.093,What-B-Scan_AC,2022.2.5,None,
9,First_Order,2.0,viswhat,stimulus/viswhat_stim/blank_white.png,stimulus/viswhat_stim/blank_white.png,stimulus/viswhat_stim/land_animal-cat.png,stimulus/viswhat_stim/water_animal-whale (1).png,stimulus/viswhat_stim/blank_white.png,stimulus/viswhat_stim/location_box.png,stimulus/viswhat_stim/location_yes.png,stimulus/viswhat_stim/location_no.png,None,Location,None,Type,2,0.0,0,5.125,0,5.125,0,5.125,0,0.0,0.625,0,0.0,0,0.0,1,0.5,1,2.125,0,0.0,0,0.0,0,0.0,0,0.0,0,,,,,0,11,11,11,,,,,,,,,127.47208591599997,127.47208591599997,127.47208591599997,127.47208591599997,127.47208591599997,127.47208591599997,127.47208591599997,127.47208591599997,127.42297641600013,127.47208591599997,127.47208591599997,127.47208591599997,127.42297641600013,127.47208591599997,127.47208591599997,127.47208591599997,129.57104975000016,133.58825224999987,127.47208591599997,127.47208591599997,132.609192958,127.95735850000005,128.99060200000008,129.57104975000016,130.6120427909998,127.47208591599997,127.47208591599997,127.43964308266679,127.47208591599997,127.47208591599997,127.47208591599997,127.43964308266679,127.47208591599997,127.47208591599997,132.609192958,127.47208591599997,132.609192958,132.68907887499995,133.3277758329998,127.47208591599997,2,1,0.558239957999831,reldom2_s019,001,2025-02-20_12h42.08.093,What-B-Scan_AC,2022.2.5,None,
10,First_Order,2.0,viswhat,stimulus/viswhat_stim/blank_white.png,stimulus/viswhat_stim/blank_white.png,stimulus/viswhat_stim/water_animal-shark.png,stimulus/viswhat_stim/water_vehicle-yacht.png,stimulus/viswhat_stim/blank_white.png,stimulus/viswhat_stim/type_box.png,stimulus/viswhat_stim/type_yes.png,stimulus/viswhat_stim/type_no.png,None,Type,None,Location,2,0.0,0,5.125,0,5.125,0,5.125,0,0.0,0.625,0,0.0,0,0.0,1,0.5,1,2.125,0,0.0,0,0.0,0,0.0,0,0.0,0,,,,,0,12,12,12,,,,,,,,,133.58825224999987,133.58825224999987,133.58825224999987,133.58825224999987,133.58825224999987,133.58825224999987,133.58825224999987,133.58825224999987,133.5069292500001,133.58825224999987,133.58825224999987,133.58825224999987,133.5069292500001,133.58825224999987,133.58825224999987,133.58825224999987,135.693110208,139.721480166,133.58825224999987,133.58825224999987,138.74553245799984,134.0620822909998,135.09339920800016,135.693110208,136.730996,133.58825224999987,133.58825224999987,133.55692925000008,133.58825224999987,133.58825224999987,133.58825224999987,133.55692925000008,133.58825224999987,133.58825224999987,138.74553245799984,133.58825224999987,138.74553245799984,138.78286270800004,139.45404029099996,133.58825224999987,2,1,0.4852808749997166,reldom2_s019,001,2025-02-20_12h42.08.093,What-B-Scan_AC,2022.2.5,None,
0,0.0,None,fixation,stimulus/viswhat_stim/blank_white.png,stimulus/viswhat_stim/blank_white.png,stimulus/audwhat_stim/blank_white.png,stimulus/audwhat_stim/blank_white.png,stimulus/viswhat_stim/blank_white.png,stimulus/viswhat_stim/blank_white.png,stimulus/viswhat_stim/blank_white.png,stimulus/viswhat_stim/blank_white.png,0.0,0.0,0.0,0.0,0,0.0,0,0.0,0,0.0,0,0.0,0,0.0,0.0,0,0.0,0,0.0,0,0.0,0,0.0,0,0.0,0,0.0,0,0.0,0,0.0,10,,,,,0,13,13,13,,,,,,,,,139.721480166,139.721480166,139.721480166,139.721480166,139.721480166,139.721480166,139.721480166,139.721480166,139.62476512433332,139.721480166,139.721480166,139.721480166,139.62476512433332,139.721480166,139.721480166,139.721480166,139.721480166,139.721480166,139.721480166,139.721480166,139.721480166,139.721480166,139.721480166,139.721480166,139.721480166,139.721480166,139.721480166,139.6747651243333,139.721480166,139.721480166,139.721480166,139.6747651243333,139.721480166,139.721480166,139.721480166,139.721480166,139.721480166,144.92389045799996,144.92389045799996,149.8702636659998,None,0,,reldom2_s019,001,2025-02-20_12h42.08.093,What-B-Scan_AC,2022.2.5,None,
11,Second_Order,2.0,viswhat,stimulus/viswhat_stim/land_animal-ostrich.png,stimulus/viswhat_stim/water_animal-stingray.png,stimulus/viswhat_stim/water_vehicle-cruiseship.png,stimulus/viswhat_stim/water_animal-seaturtle.png,stimulus/viswhat_stim/match_blank.png,stimulus/viswhat_stim/match_box.png,stimulus/viswhat_stim/match_yes.png,stimulus/viswhat_stim/match_no.png,2.0,Match,Type,Location,2,5.125,0,5.125,0,5.125,0,5.125,0,0.75,0.75,1,0.5,1,2.125,1,0.5,1,2.125,0,0.0,0,0.0,0,0.0,0,0.0,0,,,,,0,14,14,14,,,,,,,,,149.8702636659998,154.98651462500015,150.34206729099992,151.340886833,151.97543087500003,152.96477612500007,149.8702636659998,149.8702636659998,149.8805458333335,149.8702636659998,149.8702636659998,149.8702636659998,149.8805458333335,149.8702636659998,154.98651462500015,155.96127483299983,157.98198554099986,,155.96127483299983,155.96127483299983,161.2119047079998,156.36630220799975,157.4778664160001,157.98198554099986,159.09391112499975,155.96127483299983,155.96127483299983,155.87049329100014,155.96127483299983,155.96127483299983,155.96127483299983,155.87049329100014,155.96127483299983,155.96127483299983,161.2119047079998,155.96127483299983,161.2119047079998,161.11652445799996,,155.96127483299983,2,1,0.48621929199998704,reldom2_s019,001,2025-02-20_12h42.08.093,What-B-Scan_AC,2022.2.5,None,
12,Second_Order,2.0,viswhat,stimulus/viswhat_stim/land_animal-ostrich.png,stimulus/viswhat_stim/land_vehicle-oldcar.png,stimulus/viswhat_stim/water_vehicle-ship.png,stimulus/viswhat_stim/land_vehicle-vespa.png,stimulus/viswhat_stim/match_blank.png,stimulus/viswhat_stim/match_box.png,stimulus/viswhat_stim/match_yes.png,stimulus/viswhat_stim/match_no.png,2.0,Match,Location,Type,2,5.125,0,5.125,0,5.125,0,5.125,0,0.625,0.625,1,0.5,1,2.125,1,0.5,1,2.125,0,0.0,0,0.0,0,0.0,0,0.0,0,,,,,0,15,15,15,,,,,,,,,161.91330129099993,167.03248150000013,162.36977758299986,163.3683363329999,163.99112424999998,164.98885616599978,161.91330129099993,161.91330129099993,161.9218248743332,161.91330129099993,161.91330129099993,161.91330129099993,161.9218248743332,161.91330129099993,167.03248150000013,167.8113900410001,169.8643360829999,173.92324795799982,167.8113900410001,167.8113900410001,173.01223933300002,168.22178591599982,169.31561104099978,169.8643360829999,170.9635704159998,167.8113900410001,167.8113900410001,167.74512374999983,167.8113900410001,167.8113900410001,167.8113900410001,167.74512374999983,167.8113900410001,167.8113900410001,173.01223933300002,167.8113900410001,173.01223933300002,172.94932233299983,173.64005391599972,167.8113900410001,2,1,0.5584833329999128,reldom2_s019,001,2025-02-20_12h42.08.093,What-B-Scan_AC,2022.2.5,None,
0,0.0,None,fixation,stimulus/viswhat_stim/blank_white.png,stimulus/viswhat_stim/blank_white.png,stimulus/audwhat_stim/blank_white.png,stimulus/audwhat_stim/blank_white.png,stimulus/viswhat_stim/blank_white.png,stimulus/viswhat_stim/blank_white.png,stimulus/viswhat_stim/blank_white.png,stimulus/viswhat_stim/blank_white.png,0.0,0.0,0.0,0.0,0,0.0,0,0.0,0,0.0,0,0.0,0,0.0,0.0,0,0.0,0,0.0,0,0.0,0,0.0,0,0.0,0,0.0,0,0.0,0,0.0,9,,,,,0,16,16,16,,,,,,,,,173.92324795799982,173.92324795799982,173.92324795799982,173.92324795799982,173.92324795799982,173.92324795799982,173.92324795799982,173.92324795799982,173.82338724933305,173.92324795799982,173.92324795799982,173.92324795799982,173.82338724933305,173.92324795799982,173.92324795799982,173.92324795799982,173.92324795799982,173.92324795799982,173.92324795799982,173.92324795799982,173.92324795799982,173.92324795799982,173.92324795799982,173.92324795799982,173.92324795799982,173.92324795799982,173.92324795799982,173.87338724933306,173.92324795799982,173.92324795799982,173.92324795799982,173.87338724933306,173.92324795799982,173.92324795799982,173.92324795799982,173.92324795799982,173.92324795799982,179.1383316660001,179.1383316660001,183.16789329100015,None,0,,reldom2_s019,001,2025-02-20_12h42.08.093,What-B-Scan_AC,2022.2.5,None,
13,First_Order,3.0,audwhat,stimulus/audwhat_stim/dummy.wav,stimulus/audwhat_stim/dummy.wav,stimulus/audwhat_stim/percussion mallet_low-pitch_Ftri_loud.wav,stimulus/audwhat_stim/percussion xylophone_high-pitch_Dtri_loud.wav,stimulus/audwhat_stim/blank_white.png,stimulus/audwhat_stim/pitch_box.png,stimulus/audwhat_stim/pitch_yes.png,stimulus/audwhat_stim/pitch_no.png,None,Pitch,None,Category,2,0.0,0,5.125,0,5.125,0,5.125,0,0.0,0.625,0,0.0,0,0.0,0,0.0,0,0.0,0,0.0,0,0.0,1,0.5,1,2.125,0,,,,,0,17,17,17,,,,,,,,,183.16789329100015,183.16789329100015,183.16789329100015,183.16789329100015,183.16789329100015,183.16789329100015,183.16789329100015,183.16789329100015,183.09347845766655,183.16789329100015,183.16789329100015,183.16789329100015,183.09347845766655,183.16789329100015,183.16789329100015,183.16789329100015,185.25531108300015,,183.16789329100015,183.16789329100015,188.36053900000002,183.16789329100015,183.16789329100015,183.16789329100015,183.16789329100015,183.6326395829999,184.70000887499987,183.6028745826666,,185.25531108300015,186.3236864580001,185.22529437466667,186.27721570800009,183.16789329100015,188.36053900000002,183.16789329100015,188.36053900000002,188.36053900000002,189.015254958,183.16789329100015,2,1,0.8762729590002891,reldom2_s019,001,2025-02-20_12h42.08.093,What-B-Scan_AC,2022.2.5,None,
14,First_Order,3.0,audwhat,stimulus/audwhat_stim/dummy.wav,stimulus/audwhat_stim/dummy.wav,stimulus/audwhat_stim/string cello_low-pitch_D_loud.wav,stimulus/audwhat_stim/percussion mallet_low-pitch_D_loud.wav,stimulus/audwhat_stim/blank_white.png,stimulus/audwhat_stim/pitch_box.png,stimulus/audwhat_stim/pitch_yes.png,stimulus/audwhat_stim/pitch_no.png,None,Pitch,None,Pitch,1,0.0,0,5.125,0,5.125,0,5.125,0,0.0,0.625,0,0.0,0,0.0,0,0.0,0,0.0,0,0.0,0,0.0,1,0.5,1,2.125,0,,,,,0,18,18,18,,,,,,,,,189.2704098329998,189.2704098329998,189.2704098329998,189.2704098329998,189.2704098329998,189.2704098329998,189.2704098329998,189.2704098329998,189.18900083333338,189.2704098329998,189.2704098329998,189.2704098329998,189.18900083333338,189.2704098329998,189.2704098329998,189.2704098329998,191.3578929580001,,189.2704098329998,189.2704098329998,194.42901791600002,189.2704098329998,189.2704098329998,189.2704098329998,189.2704098329998,189.73291470799973,190.80012395800009,189.7037265416666,,191.3578929580001,192.43259220799996,191.32771912466663,,189.2704098329998,194.42901791600002,189.2704098329998,194.42901791600002,194.47006975,195.12262583300003,189.2704098329998,1,1,0.9050530829999843,reldom2_s019,001,2025-02-20_12h42.08.093,What-B-Scan_AC,2022.2.5,None,
15,First_Order,3.0,audwhat,stimulus/audwhat_stim/dummy.wav,stimulus/audwhat_stim/dummy.wav,stimulus/audwhat_stim/string cello_high-pitch_D_loud.wav,stimulus/audwhat_stim/string cello_low-pitch_Ftri_loud.wav,stimulus/audwhat_stim/blank_white.png,stimulus/audwhat_stim/category_box.png,stimulus/audwhat_stim/category_yes.png,stimulus/audwhat_stim/category_no.png,None,Category,None,Category,1,0.0,0,5.125,0,5.125,0,5.125,0,0.0,0.625,0,0.0,0,0.0,0,0.0,0,0.0,0,0.0,0,0.0,1,0.5,1,2.125,0,,,,,0,19,19,19,,,,,,,,,195.37941075000003,195.37941075000003,195.37941075000003,195.37941075000003,195.37941075000003,195.37941075000003,195.37941075000003,195.37941075000003,195.29669199933315,195.37941075000003,195.37941075000003,195.37941075000003,195.29669199933315,195.37941075000003,195.37941075000003,195.37941075000003,197.48160299999995,,195.37941075000003,195.37941075000003,200.5642372499999,195.37941075000003,195.37941075000003,195.37941075000003,195.37941075000003,195.84804691600016,196.92115683299994,195.81783537466666,,197.48160299999995,198.51596325000014,197.45129987466683,,195.37941075000003,200.5642372499999,195.37941075000003,200.5642372499999,200.6056182079999,201.26240399999983,195.37941075000003,1,1,0.8195334170000024,reldom2_s019,001,2025-02-20_12h42.08.093,What-B-Scan_AC,2022.2.5,None,
16,First_Order,3.0,audwhat,stimulus/audwhat_stim/dummy.wav,stimulus/audwhat_stim/dummy.wav,stimulus/audwhat_stim/string viola_low-pitch_F_loud.wav,stimulus/audwhat_stim/percussion mallet_low-pitch_F_loud.wav,stimulus/audwhat_stim/blank_white.png,stimulus/audwhat_stim/category_box.png,stimulus/audwhat_stim/category_yes.png,stimulus/audwhat_stim/category_no.png,None,Category,None,Pitch,2,0.0,0,5.125,0,5.125,0,5.125,0,0.0,0.625,0,0.0,0,0.0,0,0.0,0,0.0,0,0.0,0,0.0,1,0.5,1,2.125,0,,,,,0,20,20,20,,,,,,,,,201.47625175000007,201.47625175000007,201.47625175000007,201.47625175000007,201.47625175000007,201.47625175000007,201.47625175000007,201.47625175000007,201.3957373333332,201.47625175000007,201.47625175000007,201.47625175000007,201.3957373333332,201.47625175000007,201.47625175000007,201.47625175000007,203.57672524999975,,201.47625175000007,201.47625175000007,206.65449558299974,201.47625175000007,201.47625175000007,201.47625175000007,201.47625175000007,201.94458416600014,203.01682562500014,201.91445333266668,,203.57672524999975,204.60935633299982,203.54646058266647,,201.47625175000007,206.65449558299974,201.47625175000007,206.65449558299974,206.69593012500013,207.35284754100007,201.47625175000007,2,1,0.9294688750001114,reldom2_s019,001,2025-02-20_12h42.08.093,What-B-Scan_AC,2022.2.5,None,
0,0.0,None,fixation,stimulus/viswhat_stim/blank_white.png,stimulus/viswhat_stim/blank_white.png,stimulus/audwhat_stim/blank_white.png,stimulus/audwhat_stim/blank_white.png,stimulus/viswhat_stim/blank_white.png,stimulus/viswhat_stim/blank_white.png,stimulus/viswhat_stim/blank_white.png,stimulus/viswhat_stim/blank_white.png,0.0,0.0,0.0,0.0,0,0.0,0,0.0,0,0.0,0,0.0,0,0.0,0.0,0,0.0,0,0.0,0,0.0,0,0.0,0,0.0,0,0.0,0,0.0,0,0.0,9,,,,,0,21,21,21,,,,,,,,,207.58721816599996,207.58721816599996,207.58721816599996,207.58721816599996,207.58721816599996,207.58721816599996,207.58721816599996,207.58721816599996,207.48618087433343,207.58721816599996,207.58721816599996,207.58721816599996,207.48618087433343,207.58721816599996,207.58721816599996,207.58721816599996,207.58721816599996,207.58721816599996,207.58721816599996,207.58721816599996,207.58721816599996,207.58721816599996,207.58721816599996,207.58721816599996,207.58721816599996,207.58721816599996,207.58721816599996,207.5361808743334,207.58721816599996,207.58721816599996,207.58721816599996,207.5361808743334,207.58721816599996,207.58721816599996,207.58721816599996,207.58721816599996,207.58721816599996,212.80420145799985,212.80420145799985,216.76237775000004,None,0,,reldom2_s019,001,2025-02-20_12h42.08.093,What-B-Scan_AC,2022.2.5,None,
17,Second_Order,3.0,audwhat,stimulus/audwhat_stim/percussion mallet_high-pitch_Ftri_loud.wav,stimulus/audwhat_stim/string cello_high-pitch_Ftri_loud.wav,stimulus/audwhat_stim/percussion mallet_low-pitch_D_loud.wav,stimulus/audwhat_stim/string viola_low-pitch_D_loud.wav,stimulus/viswhat_stim/match_blank.png,stimulus/viswhat_stim/match_box.png,stimulus/viswhat_stim/match_yes.png,stimulus/viswhat_stim/match_no.png,1.0,Match,Pitch,Pitch,1,5.125,0,5.125,0,5.125,0,5.125,0,0.75,0.75,0,0.0,0,0.0,0,0.0,0,0.0,1,0.5,1,2.125,1,0.5,1,2.125,0,,,,,0,22,22,22,,,,,,,,,216.76237775000004,221.8743293330001,216.76237775000004,216.76237775000004,216.76237775000004,216.76237775000004,217.21349320800005,218.21183395799994,217.2261907076668,,218.8348578749999,219.83205729099996,218.84649016666665,,221.8743293330001,222.72629512499975,224.8087633329999,,222.72629512499975,222.72629512499975,227.91789695800003,222.72629512499975,222.72629512499975,222.72629512499975,222.72629512499975,223.14141949999998,224.20803012500005,223.11195508266658,,224.8087633329999,225.87861629099984,224.77868391666655,,222.72629512499975,227.91789695800003,222.72629512499975,227.91789695800003,227.91789695800003,,222.72629512499975,1,1,0.7572857919999478,reldom2_s019,001,2025-02-20_12h42.08.093,What-B-Scan_AC,2022.2.5,None,
18,Second_Order,3.0,audwhat,stimulus/audwhat_stim/percussion mallet_high-pitch_Dtri_loud.wav,stimulus/audwhat_stim/string cello_high-pitch_Dtri_loud.wav,stimulus/audwhat_stim/string viola_low-pitch_Ftri_loud.wav,stimulus/audwhat_stim/percussion mallet_low-pitch_Ftri_loud.wav,stimulus/viswhat_stim/match_blank.png,stimulus/viswhat_stim/match_box.png,stimulus/viswhat_stim/match_yes.png,stimulus/viswhat_stim/match_no.png,1.0,Match,Pitch,Pitch,1,5.125,0,5.125,0,5.125,0,5.125,0,0.625,0.625,0,0.0,0,0.0,0,0.0,0,0.0,1,0.5,1,2.125,1,0.5,1,2.125,0,,,,,0,23,23,23,,,,,,,,,228.69150183299985,233.8146560409998,228.69150183299985,228.69150183299985,228.69150183299985,228.69150183299985,229.14069274999997,230.13943783299987,229.15340862466658,,230.77414699999986,231.7633450830001,230.77720124966666,,233.8146560409998,234.55235958299977,236.626814041,240.65387350000015,234.55235958299977,234.55235958299977,239.72710099999972,234.55235958299977,234.55235958299977,234.55235958299977,234.55235958299977,234.9648124160001,236.0259927909999,234.93517962466652,,236.626814041,237.69246937499997,236.59668595766655,,234.55235958299977,239.72710099999972,234.55235958299977,239.72710099999972,239.72710099999972,240.37969766599986,234.55235958299977,1,1,0.9613987920001819,reldom2_s019,001,2025-02-20_12h42.08.093,What-B-Scan_AC,2022.2.5,None,
0,0.0,None,fixation,stimulus/viswhat_stim/blank_white.png,stimulus/viswhat_stim/blank_white.png,stimulus/audwhat_stim/blank_white.png,stimulus/audwhat_stim/blank_white.png,stimulus/viswhat_stim/blank_white.png,stimulus/viswhat_stim/blank_white.png,stimulus/viswhat_stim/blank_white.png,stimulus/viswhat_stim/blank_white.png,0.0,0.0,0.0,0.0,0,0.0,0,0.0,0,0.0,0,0.0,0,0.0,0.0,0,0.0,0,0.0,0,0.0,0,0.0,0,0.0,0,0.0,0,0.0,0,0.0,8,,,,,0,24,24,24,,,,,,,,,240.65387350000015,240.65387350000015,240.65387350000015,240.65387350000015,240.65387350000015,240.65387350000015,240.65387350000015,240.65387350000015,240.55356549933313,240.65387350000015,240.65387350000015,240.65387350000015,240.55356549933313,240.65387350000015,240.65387350000015,240.65387350000015,240.65387350000015,240.65387350000015,240.65387350000015,240.65387350000015,240.65387350000015,240.65387350000015,240.65387350000015,240.65387350000015,240.65387350000015,240.65387350000015,240.65387350000015,240.60356549933311,240.65387350000015,240.65387350000015,240.65387350000015,240.60356549933311,240.65387350000015,240.65387350000015,240.65387350000015,240.65387350000015,240.65387350000015,245.87745699999982,245.87745699999982,248.89183929099977,None,0,,reldom2_s019,001,2025-02-20_12h42.08.093,What-B-Scan_AC,2022.2.5,None,
19,First_Order,4.0,audwhat,stimulus/audwhat_stim/dummy.wav,stimulus/audwhat_stim/dummy.wav,stimulus/audwhat_stim/percussion mallet_low-pitch_Ftri_loud.wav,stimulus/audwhat_stim/string viola_low-pitch_Ftri_loud.wav,stimulus/audwhat_stim/blank_white.png,stimulus/audwhat_stim/pitch_box.png,stimulus/audwhat_stim/pitch_yes.png,stimulus/audwhat_stim/pitch_no.png,None,Pitch,None,Pitch,1,0.0,0,5.125,0,5.125,0,5.125,0,0.0,0.625,0,0.0,0,0.0,0,0.0,0,0.0,0,0.0,0,0.0,1,0.5,1,2.125,0,,,,,0,25,25,25,,,,,,,,,248.89183929099977,248.89183929099977,248.89183929099977,248.89183929099977,248.89183929099977,248.89183929099977,248.89183929099977,248.89183929099977,248.8209564576668,248.89183929099977,248.89183929099977,248.89183929099977,248.8209564576668,248.89183929099977,248.89183929099977,248.89183929099977,250.980497583,,248.89183929099977,248.89183929099977,254.04447162500014,248.89183929099977,248.89183929099977,248.89183929099977,248.89183929099977,249.35593845800008,250.42596179099996,249.32647404166667,,250.980497583,252.05206833299985,250.95042808266683,,248.89183929099977,254.04447162500014,248.89183929099977,254.04447162500014,254.08541016599997,254.73876191600016,248.89183929099977,1,1,1.3614550000002055,reldom2_s019,001,2025-02-20_12h42.08.093,What-B-Scan_AC,2022.2.5,None,
20,First_Order,4.0,audwhat,stimulus/audwhat_stim/dummy.wav,stimulus/audwhat_stim/dummy.wav,stimulus/audwhat_stim/string viola_low-pitch_F_loud.wav,stimulus/audwhat_stim/string cello_high-pitch_Ftri_loud.wav,stimulus/audwhat_stim/blank_white.png,stimulus/audwhat_stim/category_box.png,stimulus/audwhat_stim/category_yes.png,stimulus/audwhat_stim/category_no.png,None,Category,None,Category,1,0.0,0,5.125,0,5.125,0,5.125,0,0.0,0.625,0,0.0,0,0.0,0,0.0,0,0.0,0,0.0,0,0.0,1,0.5,1,2.125,0,,,,,0,26,26,26,,,,,,,,,254.99187974999973,254.99187974999973,254.99187974999973,254.99187974999973,254.99187974999973,254.99187974999973,254.99187974999973,254.99187974999973,254.9129592493331,254.99187974999973,254.99187974999973,254.99187974999973,254.9129592493331,254.99187974999973,254.99187974999973,254.99187974999973,257.08903966599996,261.12115766600004,254.99187974999973,254.99187974999973,260.1677743749999,254.99187974999973,254.99187974999973,254.99187974999973,254.99187974999973,255.45665733300007,256.53063466599974,255.42669074966673,,257.08903966599996,258.1193379159997,257.0587407916664,,254.99187974999973,260.1677743749999,254.99187974999973,260.1677743749999,260.20891425000013,260.8644079160001,254.99187974999973,1,1,0.8070352500003537,reldom2_s019,001,2025-02-20_12h42.08.093,What-B-Scan_AC,2022.2.5,None,
21,First_Order,4.0,audwhat,stimulus/audwhat_stim/dummy.wav,stimulus/audwhat_stim/dummy.wav,stimulus/audwhat_stim/string viola_high-pitch_F_loud.wav,stimulus/audwhat_stim/percussion mallet_high-pitch_F_loud.wav,stimulus/audwhat_stim/blank_white.png,stimulus/audwhat_stim/category_box.png,stimulus/audwhat_stim/category_yes.png,stimulus/audwhat_stim/category_no.png,None,Category,None,Pitch,2,0.0,0,5.125,0,5.125,0,5.125,0,0.0,0.625,0,0.0,0,0.0,0,0.0,0,0.0,0,0.0,0,0.0,1,0.5,1,2.125,0,,,,,0,27,27,27,,,,,,,,,261.12115766600004,261.12115766600004,261.12115766600004,261.12115766600004,261.12115766600004,261.12115766600004,261.12115766600004,261.12115766600004,261.03874795833315,261.12115766600004,261.12115766600004,261.12115766600004,261.03874795833315,261.12115766600004,261.12115766600004,261.12115766600004,263.22088362499994,,261.12115766600004,261.12115766600004,266.3035904159999,261.12115766600004,261.12115766600004,261.12115766600004,261.12115766600004,261.5885067910001,262.66103737499975,261.5581388746664,,263.22088362499994,264.250889958,263.1906127496668,,261.12115766600004,266.3035904159999,261.12115766600004,266.3035904159999,266.34488933299986,267.00244291600006,261.12115766600004,2,1,1.0401615830000992,reldom2_s019,001,2025-02-20_12h42.08.093,What-B-Scan_AC,2022.2.5,None,
22,First_Order,4.0,audwhat,stimulus/audwhat_stim/dummy.wav,stimulus/audwhat_stim/dummy.wav,stimulus/audwhat_stim/percussion xylophone_high-pitch_D_loud.wav,stimulus/audwhat_stim/percussion mallet_low-pitch_F_loud.wav,stimulus/audwhat_stim/blank_white.png,stimulus/audwhat_stim/pitch_box.png,stimulus/audwhat_stim/pitch_yes.png,stimulus/audwhat_stim/pitch_no.png,None,Pitch,None,Category,2,0.0,0,5.125,0,5.125,0,5.125,0,0.0,0.625,0,0.0,0,0.0,0,0.0,0,0.0,0,0.0,0,0.0,1,0.5,1,2.125,0,,,,,0,28,28,28,,,,,,,,,267.2161390409999,267.2161390409999,267.2161390409999,267.2161390409999,267.2161390409999,267.2161390409999,267.2161390409999,267.2161390409999,267.1357762493334,267.2161390409999,267.2161390409999,267.2161390409999,267.1357762493334,267.2161390409999,267.2161390409999,267.2161390409999,269.3088805,,267.2161390409999,267.2161390409999,272.37807583300014,267.2161390409999,267.2161390409999,267.2161390409999,267.2161390409999,267.68115812500014,268.75158629099974,267.65115483266663,268.70531883299986,269.3088805,270.38348162499983,269.27906608266676,,267.2161390409999,272.37807583300014,267.2161390409999,272.37807583300014,272.4194292079999,273.073445708,267.2161390409999,2,1,0.7478988339998978,reldom2_s019,001,2025-02-20_12h42.08.093,What-B-Scan_AC,2022.2.5,None,
0,0.0,None,fixation,stimulus/viswhat_stim/blank_white.png,stimulus/viswhat_stim/blank_white.png,stimulus/audwhat_stim/blank_white.png,stimulus/audwhat_stim/blank_white.png,stimulus/viswhat_stim/blank_white.png,stimulus/viswhat_stim/blank_white.png,stimulus/viswhat_stim/blank_white.png,stimulus/viswhat_stim/blank_white.png,0.0,0.0,0.0,0.0,0,0.0,0,0.0,0,0.0,0,0.0,0,0.0,0.0,0,0.0,0,0.0,0,0.0,0,0.0,0,0.0,0,0.0,0,0.0,0,0.0,10,,,,,0,29,29,29,,,,,,,,,273.3473320830001,273.3473320830001,273.3473320830001,273.3473320830001,273.3473320830001,273.3473320830001,273.3473320830001,273.3473320830001,273.24737904133315,273.3473320830001,273.3473320830001,273.3473320830001,273.24737904133315,273.3473320830001,273.3473320830001,273.3473320830001,273.3473320830001,273.3473320830001,273.3473320830001,273.3473320830001,273.3473320830001,273.3473320830001,273.3473320830001,273.3473320830001,273.3473320830001,273.3473320830001,273.3473320830001,273.29737904133316,273.3473320830001,273.3473320830001,273.3473320830001,273.29737904133316,273.3473320830001,273.3473320830001,273.3473320830001,273.3473320830001,273.3473320830001,278.55654545799985,278.55654545799985,283.482792,None,0,,reldom2_s019,001,2025-02-20_12h42.08.093,What-B-Scan_AC,2022.2.5,None,
23,Second_Order,4.0,audwhat,stimulus/audwhat_stim/percussion mallet_high-pitch_Ftri_loud.wav,stimulus/audwhat_stim/percussion mallet_low-pitch_Dtri_loud.wav,stimulus/audwhat_stim/percussion mallet_high-pitch_D_loud.wav,stimulus/audwhat_stim/string viola_high-pitch_D_loud.wav,stimulus/viswhat_stim/match_blank.png,stimulus/viswhat_stim/match_box.png,stimulus/viswhat_stim/match_yes.png,stimulus/viswhat_stim/match_no.png,2.0,Match,Category,Pitch,2,5.125,0,5.125,0,5.125,0,5.125,0,0.75,0.75,0,0.0,0,0.0,0,0.0,0,0.0,1,0.5,1,2.125,1,0.5,1,2.125,0,,,,,0,30,30,30,,,,,,,,,283.482792,288.59536349999985,283.482792,283.482792,283.482792,283.482792,283.933175375,284.9189569580001,283.94710566666663,,285.5554461250001,286.5528811659999,285.56765304166674,286.5559927910001,288.59536349999985,289.44580970799984,291.4877945830001,,289.44580970799984,289.44580970799984,294.6005613750001,289.44580970799984,289.44580970799984,289.44580970799984,289.44580970799984,289.86387754099974,290.93127520799976,289.8342709166668,,291.4877945830001,292.55874662500014,291.45763779166646,,289.44580970799984,294.6005613750001,289.44580970799984,294.6005613750001,294.641791666,,289.44580970799984,2,1,0.7144387909997931,reldom2_s019,001,2025-02-20_12h42.08.093,What-B-Scan_AC,2022.2.5,None,
24,Second_Order,4.0,audwhat,stimulus/audwhat_stim/string viola_high-pitch_Dtri_loud.wav,stimulus/audwhat_stim/percussion mallet_high-pitch_Dtri_loud.wav,stimulus/audwhat_stim/string cello_low-pitch_Dtri_loud.wav,stimulus/audwhat_stim/string viola_high-pitch_Ftri_loud.wav,stimulus/viswhat_stim/match_blank.png,stimulus/viswhat_stim/match_box.png,stimulus/viswhat_stim/match_yes.png,stimulus/viswhat_stim/match_no.png,2.0,Match,Pitch,Category,2,5.125,0,5.125,0,5.125,0,5.125,0,0.625,0.625,0,0.0,0,0.0,0,0.0,0,0.0,1,0.5,1,2.125,1,0.5,1,2.125,0,,,,,0,31,31,31,,,,,,,,,295.4160501250001,300.5402221659999,295.4160501250001,295.4160501250001,295.4160501250001,295.4160501250001,295.8743419159998,296.86425762500016,295.8773765826668,,297.49923675000014,298.49736791600003,297.5115154576665,,300.5402221659999,301.2734379159999,303.3461634160001,307.37828083299996,301.2734379159999,301.2734379159999,306.45161220800014,301.2734379159999,301.2734379159999,301.2734379159999,301.2734379159999,301.68693904099996,302.74496729099997,301.6570936666667,,303.3461634160001,304.417972166,303.31616008266656,,301.2734379159999,306.45161220800014,301.2734379159999,306.45161220800014,306.45161220800014,307.103833291,301.2734379159999,2,1,0.6714579580002464,reldom2_s019,001,2025-02-20_12h42.08.093,What-B-Scan_AC,2022.2.5,None,
0,0.0,None,fixation,stimulus/viswhat_stim/blank_white.png,stimulus/viswhat_stim/blank_white.png,stimulus/audwhat_stim/blank_white.png,stimulus/audwhat_stim/blank_white.png,stimulus/viswhat_stim/blank_white.png,stimulus/viswhat_stim/blank_white.png,stimulus/viswhat_stim/blank_white.png,stimulus/viswhat_stim/blank_white.png,0.0,0.0,0.0,0.0,0,0.0,0,0.0,0,0.0,0,0.0,0,0.0,0.0,0,0.0,0,0.0,0,0.0,0,0.0,0,0.0,0,0.0,0,0.0,0,0.0,9,,,,,0,32,32,32,,,,,,,,,307.37828083299996,307.37828083299996,307.37828083299996,307.37828083299996,307.37828083299996,307.37828083299996,307.37828083299996,307.37828083299996,307.27791258333343,307.37828083299996,307.37828083299996,307.37828083299996,307.27791258333343,307.37828083299996,307.37828083299996,307.37828083299996,307.37828083299996,307.37828083299996,307.37828083299996,307.37828083299996,307.37828083299996,307.37828083299996,307.37828083299996,307.37828083299996,307.37828083299996,307.37828083299996,307.37828083299996,307.32791258333344,307.37828083299996,307.37828083299996,307.37828083299996,307.32791258333344,307.37828083299996,307.37828083299996,307.37828083299996,307.37828083299996,307.37828083299996,312.60769137500006,312.60769137500006,316.6699518749999,None,0,,reldom2_s019,001,2025-02-20_12h42.08.093,What-B-Scan_AC,2022.2.5,None,
25,First_Order,5.0,viswhat,stimulus/viswhat_stim/blank_white.png,stimulus/viswhat_stim/blank_white.png,stimulus/viswhat_stim/land_animal-elephant.png,stimulus/viswhat_stim/land_vehicle-firetruck.png,stimulus/viswhat_stim/blank_white.png,stimulus/viswhat_stim/location_box.png,stimulus/viswhat_stim/location_yes.png,stimulus/viswhat_stim/location_no.png,None,Location,None,Location,1,0.0,0,5.125,0,5.125,0,5.125,0,0.0,0.625,0,0.0,0,0.0,1,0.5,1,2.125,0,0.0,0,0.0,0,0.0,0,0.0,0,,,,,0,33,33,33,,,,,,,,,316.6699518749999,316.6699518749999,316.6699518749999,316.6699518749999,316.6699518749999,316.6699518749999,316.6699518749999,316.6699518749999,316.56792712466665,316.6699518749999,316.6699518749999,316.6699518749999,316.56792712466665,316.6699518749999,316.6699518749999,316.6699518749999,318.74744133299987,,316.6699518749999,316.6699518749999,321.83795637499975,317.14355758299985,318.2147352909999,318.74744133299987,319.820181541,316.6699518749999,316.6699518749999,316.61792712466666,316.6699518749999,316.6699518749999,316.6699518749999,316.61792712466666,316.6699518749999,316.6699518749999,321.83795637499975,316.6699518749999,321.83795637499975,321.89190024999994,322.7267474160001,316.6699518749999,1,1,0.8212812080000731,reldom2_s019,001,2025-02-20_12h42.08.093,What-B-Scan_AC,2022.2.5,None,
26,First_Order,5.0,viswhat,stimulus/viswhat_stim/blank_white.png,stimulus/viswhat_stim/blank_white.png,stimulus/viswhat_stim/land_vehicle-tank.png,stimulus/viswhat_stim/land_animal-pig.png,stimulus/viswhat_stim/blank_white.png,stimulus/viswhat_stim/type_box.png,stimulus/viswhat_stim/type_yes.png,stimulus/viswhat_stim/type_no.png,None,Type,None,Location,2,0.0,0,5.125,0,5.125,0,5.125,0,0.0,0.625,0,0.0,0,0.0,1,0.5,1,2.125,0,0.0,0,0.0,0,0.0,0,0.0,0,,,,,0,34,34,34,,,,,,,,,322.7267474160001,322.7267474160001,322.7267474160001,322.7267474160001,322.7267474160001,322.7267474160001,322.7267474160001,322.7267474160001,322.70241308266657,322.7267474160001,322.7267474160001,322.7267474160001,322.70241308266657,322.7267474160001,322.7267474160001,322.7267474160001,324.82454087500014,328.8911986659998,322.7267474160001,322.7267474160001,327.86891175000005,323.20569179100016,324.2128598749998,324.82454087500014,325.83615837499997,322.7267474160001,322.7267474160001,322.7190797493333,322.7267474160001,322.7267474160001,322.7267474160001,322.7190797493333,322.7267474160001,322.7267474160001,327.86891175000005,322.7267474160001,327.86891175000005,327.9502378750001,328.58487575000004,322.7267474160001,2,1,1.2285663749999003,reldom2_s019,001,2025-02-20_12h42.08.093,What-B-Scan_AC,2022.2.5,None,
27,First_Order,5.0,viswhat,stimulus/viswhat_stim/blank_white.png,stimulus/viswhat_stim/blank_white.png,stimulus/viswhat_stim/land_animal-moose.png,stimulus/viswhat_stim/land_vehicle-vespa.png,stimulus/viswhat_stim/blank_white.png,stimulus/viswhat_stim/location_box.png,stimulus/viswhat_stim/location_yes.png,stimulus/viswhat_stim/location_no.png,None,Location,None,Location,1,0.0,0,5.125,0,5.125,0,5.125,0,0.0,0.625,0,0.0,0,0.0,1,0.5,1,2.125,0,0.0,0,0.0,0,0.0,0,0.0,0,,,,,0,35,35,35,,,,,,,,,328.8911986659998,328.8911986659998,328.8911986659998,328.8911986659998,328.8911986659998,328.8911986659998,328.8911986659998,328.8911986659998,328.76847208333317,328.8911986659998,328.8911986659998,328.8911986659998,328.76847208333317,328.8911986659998,328.8911986659998,328.8911986659998,330.96524758300006,,328.8911986659998,328.8911986659998,334.1086964999997,329.3586594159999,330.4321050000001,330.96524758300006,332.0399493749999,328.8911986659998,328.8911986659998,328.8351387499998,328.8911986659998,328.8911986659998,328.8911986659998,328.8351387499998,328.8911986659998,328.8911986659998,334.1086964999997,328.8911986659998,334.1086964999997,334.1086964999997,334.99485112499974,328.8911986659998,1,1,0.5854846250003902,reldom2_s019,001,2025-02-20_12h42.08.093,What-B-Scan_AC,2022.2.5,None,
28,First_Order,5.0,viswhat,stimulus/viswhat_stim/blank_white.png,stimulus/viswhat_stim/blank_white.png,stimulus/viswhat_stim/land_animal-giraffe.png,stimulus/viswhat_stim/water_animal-squid.png,stimulus/viswhat_stim/blank_white.png,stimulus/viswhat_stim/location_box.png,stimulus/viswhat_stim/location_yes.png,stimulus/viswhat_stim/location_no.png,None,Location,None,Type,2,0.0,0,5.125,0,5.125,0,5.125,0,0.0,0.625,0,0.0,0,0.0,1,0.5,1,2.125,0,0.0,0,0.0,0,0.0,0,0.0,0,,,,,0,36,36,36,,,,,,,,,334.99485112499974,334.99485112499974,334.99485112499974,334.99485112499974,334.99485112499974,334.99485112499974,334.99485112499974,334.99485112499974,334.90362412433313,334.99485112499974,334.99485112499974,334.99485112499974,334.90362412433313,334.99485112499974,334.99485112499974,334.99485112499974,337.1052232909999,,334.99485112499974,334.99485112499974,340.1553235409999,335.43801708299975,336.4967442499999,337.1052232909999,338.1645743749998,334.99485112499974,334.99485112499974,334.9536241243331,334.99485112499974,334.99485112499974,334.99485112499974,334.9536241243331,334.99485112499974,334.99485112499974,340.1553235409999,334.99485112499974,340.1553235409999,340.205347375,341.1078206659997,334.99485112499974,2,1,0.7462094580000667,reldom2_s019,001,2025-02-20_12h42.08.093,What-B-Scan_AC,2022.2.5,None,
0,0.0,None,fixation,stimulus/viswhat_stim/blank_white.png,stimulus/viswhat_stim/blank_white.png,stimulus/audwhat_stim/blank_white.png,stimulus/audwhat_stim/blank_white.png,stimulus/viswhat_stim/blank_white.png,stimulus/viswhat_stim/blank_white.png,stimulus/viswhat_stim/blank_white.png,stimulus/viswhat_stim/blank_white.png,0.0,0.0,0.0,0.0,0,0.0,0,0.0,0,0.0,0,0.0,0,0.0,0.0,0,0.0,0,0.0,0,0.0,0,0.0,0,0.0,0,0.0,0,0.0,0,0.0,9,,,,,0,37,37,37,,,,,,,,,341.1078206659997,341.1078206659997,341.1078206659997,341.1078206659997,341.1078206659997,341.1078206659997,341.1078206659997,341.1078206659997,341.00253050000003,341.1078206659997,341.1078206659997,341.1078206659997,341.00253050000003,341.1078206659997,341.1078206659997,341.1078206659997,341.1078206659997,341.1078206659997,341.1078206659997,341.1078206659997,341.1078206659997,341.1078206659997,341.1078206659997,341.1078206659997,341.1078206659997,341.1078206659997,341.1078206659997,341.0691971666667,341.1078206659997,341.1078206659997,341.1078206659997,341.0691971666667,341.1078206659997,341.1078206659997,341.1078206659997,341.1078206659997,341.1078206659997,346.32245187500007,346.32245187500007,350.26034612499984,None,0,,reldom2_s019,001,2025-02-20_12h42.08.093,What-B-Scan_AC,2022.2.5,None,
29,Second_Order,5.0,viswhat,stimulus/viswhat_stim/water_vehicle-pirateship.png,stimulus/viswhat_stim/land_vehicle-schoolbus.png,stimulus/viswhat_stim/water_animal-dolphin.png,stimulus/viswhat_stim/land_animal-cat.png,stimulus/viswhat_stim/match_blank.png,stimulus/viswhat_stim/match_box.png,stimulus/viswhat_stim/match_yes.png,stimulus/viswhat_stim/match_no.png,1.0,Match,Type,Type,1,5.125,0,5.125,0,5.125,0,5.125,0,0.75,0.75,1,0.5,1,2.125,1,0.5,1,2.125,0,0.0,0,0.0,0,0.0,0,0.0,0,,,,,0,38,38,38,,,,,,,,,350.26034612499984,355.38292608300003,350.7346144159999,351.72400433300004,352.3591859579999,353.35704737499987,350.26034612499984,350.26034612499984,350.2662694163331,350.26034612499984,350.26034612499984,350.26034612499984,350.2662694163331,350.26034612499984,355.38292608300003,356.206416708,358.288618583,362.24517949999995,356.206416708,356.206416708,361.3681464159997,356.65436087500007,357.67914466599973,358.288618583,359.31711229100006,356.206416708,356.206416708,356.18347862466663,356.206416708,356.206416708,356.206416708,356.18347862466663,356.206416708,356.206416708,361.3681464159997,356.206416708,361.3681464159997,361.394682291,,356.206416708,1,1,0.4204195829997843,reldom2_s019,001,2025-02-20_12h42.08.093,What-B-Scan_AC,2022.2.5,None,
30,Second_Order,5.0,viswhat,stimulus/viswhat_stim/water_animal-orka.png,stimulus/viswhat_stim/land_animal-bunny.png,stimulus/viswhat_stim/land_vehicle-motorcycle.png,stimulus/viswhat_stim/water_vehicle-motorboatraft.png,stimulus/viswhat_stim/match_blank.png,stimulus/viswhat_stim/match_box.png,stimulus/viswhat_stim/match_yes.png,stimulus/viswhat_stim/match_no.png,1.0,Match,Type,Type,1,5.125,0,5.125,0,5.125,0,5.125,0,0.625,0.625,1,0.5,1,2.125,1,0.5,1,2.125,0,0.0,0,0.0,0,0.0,0,0.0,0,,,,,0,39,39,39,,,,,,,,,362.24517949999995,367.36088029100006,362.6473530830001,363.6344447079998,364.2824106249998,365.2715318329999,362.24517949999995,362.24517949999995,362.2596492079998,362.24517949999995,362.24517949999995,362.24517949999995,362.2596492079998,362.24517949999995,367.36088029100006,368.0573172080001,370.13694825000016,374.17878345799977,368.0573172080001,368.0573172080001,373.201720541,368.50338616600015,369.54203241599976,370.13694825000016,371.1525315000001,368.0573172080001,368.0573172080001,368.024314541,368.0573172080001,368.0573172080001,368.0573172080001,368.024314541,368.0573172080001,368.0573172080001,373.201720541,368.0573172080001,373.201720541,373.2499514999997,373.900359,368.0573172080001,1,1,0.6125733750000109,reldom2_s019,001,2025-02-20_12h42.08.093,What-B-Scan_AC,2022.2.5,None,
0,0.0,None,fixation,stimulus/viswhat_stim/blank_white.png,stimulus/viswhat_stim/blank_white.png,stimulus/audwhat_stim/blank_white.png,stimulus/audwhat_stim/blank_white.png,stimulus/viswhat_stim/blank_white.png,stimulus/viswhat_stim/blank_white.png,stimulus/viswhat_stim/blank_white.png,stimulus/viswhat_stim/blank_white.png,0.0,0.0,0.0,0.0,0,0.0,0,0.0,0,0.0,0,0.0,0,0.0,0.0,0,0.0,0,0.0,0,0.0,0,0.0,0,0.0,0,0.0,0,0.0,0,0.0,9,,,,,0,40,40,40,,,,,,,,,374.17878345799977,374.17878345799977,374.17878345799977,374.17878345799977,374.17878345799977,374.17878345799977,374.17878345799977,374.17878345799977,374.0890044576664,374.17878345799977,374.17878345799977,374.17878345799977,374.0890044576664,374.17878345799977,374.17878345799977,374.17878345799977,374.17878345799977,374.17878345799977,374.17878345799977,374.17878345799977,374.17878345799977,374.17878345799977,374.17878345799977,374.17878345799977,374.17878345799977,374.17878345799977,374.17878345799977,374.1390044576664,374.17878345799977,374.17878345799977,374.17878345799977,374.1390044576664,374.17878345799977,374.17878345799977,374.17878345799977,374.17878345799977,374.17878345799977,379.4096440410001,379.4096440410001,383.47520974999975,None,0,,reldom2_s019,001,2025-02-20_12h42.08.093,What-B-Scan_AC,2022.2.5,None,
31,First_Order,6.0,viswhat,stimulus/viswhat_stim/blank_white.png,stimulus/viswhat_stim/blank_white.png,stimulus/viswhat_stim/water_vehicle-ship.png,stimulus/viswhat_stim/land_vehicle-schoolbus.png,stimulus/viswhat_stim/blank_white.png,stimulus/viswhat_stim/location_box.png,stimulus/viswhat_stim/location_yes.png,stimulus/viswhat_stim/location_no.png,None,Location,None,Type,2,0.0,0,5.125,0,5.125,0,5.125,0,0.0,0.625,0,0.0,0,0.0,1,0.5,1,2.125,0,0.0,0,0.0,0,0.0,0,0.0,0,,,,,0,41,41,41,,,,,,,,,383.47520974999975,383.47520974999975,383.47520974999975,383.47520974999975,383.47520974999975,383.47520974999975,383.47520974999975,383.47520974999975,383.3731394166665,383.47520974999975,383.47520974999975,383.47520974999975,383.3731394166665,383.47520974999975,383.47520974999975,383.47520974999975,385.5839373749998,389.5696035409999,383.47520974999975,383.47520974999975,388.65352637499996,383.9587894159997,385.0436269999998,385.5839373749998,386.670087833,383.47520974999975,383.47520974999975,383.4231394166665,383.47520974999975,383.47520974999975,383.47520974999975,383.4231394166665,383.47520974999975,383.47520974999975,388.65352637499996,383.47520974999975,388.65352637499996,388.65352637499996,389.36166845799994,383.47520974999975,2,1,2.0100981250002405,reldom2_s019,001,2025-02-20_12h42.08.093,What-B-Scan_AC,2022.2.5,None,
32,First_Order,6.0,viswhat,stimulus/viswhat_stim/blank_white.png,stimulus/viswhat_stim/blank_white.png,stimulus/viswhat_stim/land_vehicle-bus.png,stimulus/viswhat_stim/water_vehicle-jetski.png,stimulus/viswhat_stim/blank_white.png,stimulus/viswhat_stim/type_box.png,stimulus/viswhat_stim/type_yes.png,stimulus/viswhat_stim/type_no.png,None,Type,None,Type,1,0.0,0,5.125,0,5.125,0,5.125,0,0.0,0.625,0,0.0,0,0.0,1,0.5,1,2.125,0,0.0,0,0.0,0,0.0,0,0.0,0,,,,,0,42,42,42,,,,,,,,,389.5696035409999,389.5696035409999,389.5696035409999,389.5696035409999,389.5696035409999,389.5696035409999,389.5696035409999,389.5696035409999,389.52833512466657,389.5696035409999,389.5696035409999,389.5696035409999,389.52833512466657,389.5696035409999,389.5696035409999,389.5696035409999,391.66642316599996,395.65975170800016,389.5696035409999,389.5696035409999,394.704886708,390.0375339159998,391.05667795800014,391.66642316599996,392.694217041,389.5696035409999,389.5696035409999,389.5450017913333,389.5696035409999,389.5696035409999,389.5696035409999,389.5450017913333,389.5696035409999,389.5696035409999,394.704886708,389.5696035409999,394.704886708,394.7751404160001,395.409312041,389.5696035409999,1,1,0.8207585420000214,reldom2_s019,001,2025-02-20_12h42.08.093,What-B-Scan_AC,2022.2.5,None,
33,First_Order,6.0,viswhat,stimulus/viswhat_stim/blank_white.png,stimulus/viswhat_stim/blank_white.png,stimulus/viswhat_stim/water_animal-seahorse.png,stimulus/viswhat_stim/water_vehicle-cabincruiser.png,stimulus/viswhat_stim/blank_white.png,stimulus/viswhat_stim/type_box.png,stimulus/viswhat_stim/type_yes.png,stimulus/viswhat_stim/type_no.png,None,Type,None,Location,2,0.0,0,5.125,0,5.125,0,5.125,0,0.0,0.625,0,0.0,0,0.0,1,0.5,1,2.125,0,0.0,0,0.0,0,0.0,0,0.0,0,,,,,0,43,43,43,,,,,,,,,395.65975170800016,395.65975170800016,395.65975170800016,395.65975170800016,395.65975170800016,395.65975170800016,395.65975170800016,395.65975170800016,395.6040026660001,395.65975170800016,395.65975170800016,395.65975170800016,395.6040026660001,395.65975170800016,395.65975170800016,395.65975170800016,397.7711515829999,401.7756834999998,395.65975170800016,395.65975170800016,400.81107966600007,396.14580516599995,397.18330754099975,397.7711515829999,398.810278875,395.65975170800016,395.65975170800016,395.63733599933346,395.65975170800016,395.65975170800016,395.65975170800016,395.63733599933346,395.65975170800016,395.65975170800016,400.81107966600007,395.65975170800016,400.81107966600007,400.8691265,401.53398624999977,395.65975170800016,2,1,0.8987899170001583,reldom2_s019,001,2025-02-20_12h42.08.093,What-B-Scan_AC,2022.2.5,None,
34,First_Order,6.0,viswhat,stimulus/viswhat_stim/blank_white.png,stimulus/viswhat_stim/blank_white.png,stimulus/viswhat_stim/land_animal-tiger.png,stimulus/viswhat_stim/water_animal-octopus.png,stimulus/viswhat_stim/blank_white.png,stimulus/viswhat_stim/type_box.png,stimulus/viswhat_stim/type_yes.png,stimulus/viswhat_stim/type_no.png,None,Type,None,Type,1,0.0,0,5.125,0,5.125,0,5.125,0,0.0,0.625,0,0.0,0,0.0,1,0.5,1,2.125,0,0.0,0,0.0,0,0.0,0,0.0,0,,,,,0,44,44,44,,,,,,,,,401.7756834999998,401.7756834999998,401.7756834999998,401.7756834999998,401.7756834999998,401.7756834999998,401.7756834999998,401.7756834999998,401.70796249966645,401.7756834999998,401.7756834999998,401.7756834999998,401.70796249966645,401.7756834999998,401.7756834999998,401.7756834999998,403.88909354099974,,401.7756834999998,401.7756834999998,406.9506000829999,402.2494600829998,403.28457516599997,403.88909354099974,404.92746866599987,401.7756834999998,401.7756834999998,401.74129583299975,401.7756834999998,401.7756834999998,401.7756834999998,401.74129583299975,401.7756834999998,401.7756834999998,406.9506000829999,401.7756834999998,406.9506000829999,406.9888640409997,407.6625835829998,401.7756834999998,1,1,0.6100553329997638,reldom2_s019,001,2025-02-20_12h42.08.093,What-B-Scan_AC,2022.2.5,None,
0,0.0,None,fixation,stimulus/viswhat_stim/blank_white.png,stimulus/viswhat_stim/blank_white.png,stimulus/audwhat_stim/blank_white.png,stimulus/audwhat_stim/blank_white.png,stimulus/viswhat_stim/blank_white.png,stimulus/viswhat_stim/blank_white.png,stimulus/viswhat_stim/blank_white.png,stimulus/viswhat_stim/blank_white.png,0.0,0.0,0.0,0.0,0,0.0,0,0.0,0,0.0,0,0.0,0,0.0,0.0,0,0.0,0,0.0,0,0.0,0,0.0,0,0.0,0,0.0,0,0.0,0,0.0,8,,,,,0,45,45,45,,,,,,,,,407.89255766600013,407.89255766600013,407.89255766600013,407.89255766600013,407.89255766600013,407.89255766600013,407.89255766600013,407.89255766600013,407.7959169163331,407.89255766600013,407.89255766600013,407.89255766600013,407.7959169163331,407.89255766600013,407.89255766600013,407.89255766600013,407.89255766600013,407.89255766600013,407.89255766600013,407.89255766600013,407.89255766600013,407.89255766600013,407.89255766600013,407.89255766600013,407.89255766600013,407.89255766600013,407.89255766600013,407.8459169163331,407.89255766600013,407.89255766600013,407.89255766600013,407.8459169163331,407.89255766600013,407.89255766600013,407.89255766600013,407.89255766600013,407.89255766600013,413.09807591599997,413.09807591599997,416.01600133299985,None,0,,reldom2_s019,001,2025-02-20_12h42.08.093,What-B-Scan_AC,2022.2.5,None,
35,Second_Order,6.0,viswhat,stimulus/viswhat_stim/land_animal-wolf.png,stimulus/viswhat_stim/land_vehicle-schoolbus.png,stimulus/viswhat_stim/water_animal-shark.png,stimulus/viswhat_stim/water_vehicle-ship.png,stimulus/viswhat_stim/match_blank.png,stimulus/viswhat_stim/match_box.png,stimulus/viswhat_stim/match_yes.png,stimulus/viswhat_stim/match_no.png,1.0,Match,Location,Location,1,5.125,0,5.125,0,5.125,0,5.125,0,0.75,0.75,1,0.5,1,2.125,1,0.5,1,2.125,0,0.0,0,0.0,0,0.0,0,0.0,0,,,,,0,46,46,46,,,,,,,,,416.01600133299985,421.13602379100007,416.4891275829998,417.4765902910001,418.1117549580001,419.1094000410001,416.01600133299985,416.01600133299985,416.02388487433325,416.01600133299985,416.01600133299985,416.01600133299985,416.02388487433325,416.01600133299985,421.13602379100007,422.0347015,424.05719225000007,,422.0347015,422.0347015,427.263326,422.4515816659998,423.56830375000004,424.05719225000007,425.1761260410001,422.0347015,422.0347015,421.9692144159997,422.0347015,422.0347015,422.0347015,421.9692144159997,422.0347015,422.0347015,427.263326,422.0347015,427.263326,427.1992545830001,,422.0347015,1,1,0.48061783399998603,reldom2_s019,001,2025-02-20_12h42.08.093,What-B-Scan_AC,2022.2.5,None,
36,Second_Order,6.0,viswhat,stimulus/viswhat_stim/land_vehicle-oldcar.png,stimulus/viswhat_stim/land_animal-cat.png,stimulus/viswhat_stim/water_vehicle-cargoboat.png,stimulus/viswhat_stim/water_animal-orka.png,stimulus/viswhat_stim/match_blank.png,stimulus/viswhat_stim/match_box.png,stimulus/viswhat_stim/match_yes.png,stimulus/viswhat_stim/match_no.png,1.0,Match,Location,Location,1,5.125,0,5.125,0,5.125,0,5.125,0,0.625,0.625,1,0.5,1,2.125,1,0.5,1,2.125,0,0.0,0,0.0,0,0.0,0,0.0,0,,,,,0,47,47,47,,,,,,,,,428.00825012500013,433.1296239159999,428.46480233299985,429.453742291,430.09042962499984,431.0870802910001,428.00825012500013,428.00825012500013,428.0085602916664,428.00825012500013,428.00825012500013,428.00825012500013,428.0085602916664,428.00825012500013,433.1296239159999,433.90738820799993,435.96560462499997,,433.90738820799993,433.90738820799993,439.0917434159999,434.30451000000016,435.3662552909998,435.96560462499997,437.0343613329999,433.90738820799993,433.90738820799993,433.8434063749999,433.90738820799993,433.90738820799993,433.90738820799993,433.8434063749999,433.90738820799993,433.90738820799993,439.0917434159999,433.90738820799993,439.0917434159999,439.0917434159999,439.98191191599994,433.90738820799993,1,1,0.47853312500001266,reldom2_s019,001,2025-02-20_12h42.08.093,What-B-Scan_AC,2022.2.5,None,
0,0.0,None,fixation,stimulus/viswhat_stim/blank_white.png,stimulus/viswhat_stim/blank_white.png,stimulus/audwhat_stim/blank_white.png,stimulus/audwhat_stim/blank_white.png,stimulus/viswhat_stim/blank_white.png,stimulus/viswhat_stim/blank_white.png,stimulus/viswhat_stim/blank_white.png,stimulus/viswhat_stim/blank_white.png,0.0,0.0,0.0,0.0,0,0.0,0,0.0,0,0.0,0,0.0,0,0.0,0.0,0,0.0,0,0.0,0,0.0,0,0.0,0,0.0,0,0.0,0,0.0,0,0.0,10,,,,,0,48,48,48,,,,,,,,,439.98191191599994,439.98191191599994,439.98191191599994,439.98191191599994,439.98191191599994,439.98191191599994,439.98191191599994,439.98191191599994,439.8834699993333,439.98191191599994,439.98191191599994,439.98191191599994,439.8834699993333,439.98191191599994,439.98191191599994,439.98191191599994,439.98191191599994,439.98191191599994,439.98191191599994,439.98191191599994,439.98191191599994,439.98191191599994,439.98191191599994,439.98191191599994,439.98191191599994,439.98191191599994,439.98191191599994,439.9334699993332,439.98191191599994,439.98191191599994,439.98191191599994,439.9334699993332,439.98191191599994,439.98191191599994,439.98191191599994,439.98191191599994,439.98191191599994,445.1820700830001,445.1820700830001,450.2414436659999,None,0,,reldom2_s019,001,2025-02-20_12h42.08.093,What-B-Scan_AC,2022.2.5,None,
37,First_Order,7.0,audwhat,stimulus/audwhat_stim/dummy.wav,stimulus/audwhat_stim/dummy.wav,stimulus/audwhat_stim/string viola_low-pitch_Ftri_loud.wav,stimulus/audwhat_stim/string viola_high-pitch_Dtri_loud.wav,stimulus/audwhat_stim/blank_white.png,stimulus/audwhat_stim/category_box.png,stimulus/audwhat_stim/category_yes.png,stimulus/audwhat_stim/category_no.png,None,Category,None,Category,1,0.0,0,5.125,0,5.125,0,5.125,0,0.0,0.625,0,0.0,0,0.0,0,0.0,0,0.0,0,0.0,0,0.0,1,0.5,1,2.125,0,,,,,0,49,49,49,,,,,,,,,450.2414436659999,450.2414436659999,450.2414436659999,450.2414436659999,450.2414436659999,450.2414436659999,450.2414436659999,450.2414436659999,450.1679570416667,450.2414436659999,450.2414436659999,450.2414436659999,450.1679570416667,450.2414436659999,450.2414436659999,450.2414436659999,452.34384087500007,,450.2414436659999,450.2414436659999,455.42380016599986,450.2414436659999,450.2414436659999,450.2414436659999,450.2414436659999,450.70887824999977,451.78425487499976,450.67876295766655,,452.34384087500007,453.41817212499996,452.3138917496667,,450.2414436659999,455.42380016599986,450.2414436659999,455.42380016599986,455.465467625,456.12504454099985,450.2414436659999,1,1,0.6990400409999893,reldom2_s019,001,2025-02-20_12h42.08.093,What-B-Scan_AC,2022.2.5,None,
38,First_Order,7.0,audwhat,stimulus/audwhat_stim/dummy.wav,stimulus/audwhat_stim/dummy.wav,stimulus/audwhat_stim/percussion mallet_high-pitch_D_loud.wav,stimulus/audwhat_stim/string viola_high-pitch_D_loud.wav,stimulus/audwhat_stim/blank_white.png,stimulus/audwhat_stim/pitch_box.png,stimulus/audwhat_stim/pitch_yes.png,stimulus/audwhat_stim/pitch_no.png,None,Pitch,None,Pitch,1,0.0,0,5.125,0,5.125,0,5.125,0,0.0,0.625,0,0.0,0,0.0,0,0.0,0,0.0,0,0.0,0,0.0,1,0.5,1,2.125,0,,,,,0,50,50,50,,,,,,,,,456.33971333299974,456.33971333299974,456.33971333299974,456.33971333299974,456.33971333299974,456.33971333299974,456.33971333299974,456.33971333299974,456.2583778743332,456.33971333299974,456.33971333299974,456.33971333299974,456.2583778743332,456.33971333299974,456.33971333299974,456.33971333299974,458.43427933299995,462.4534608329998,456.33971333299974,456.33971333299974,461.50119525000014,456.33971333299974,456.33971333299974,456.33971333299974,456.33971333299974,456.80483520799976,457.8753187079999,456.77460979166653,,458.43427933299995,459.5049735,458.40418133266667,,456.33971333299974,461.50119525000014,456.33971333299974,461.50119525000014,461.5424063329999,462.1977441249999,456.33971333299974,1,1,1.316146290999768,reldom2_s019,001,2025-02-20_12h42.08.093,What-B-Scan_AC,2022.2.5,None,
39,First_Order,7.0,audwhat,stimulus/audwhat_stim/dummy.wav,stimulus/audwhat_stim/dummy.wav,stimulus/audwhat_stim/string viola_low-pitch_Dtri_loud.wav,stimulus/audwhat_stim/percussion mallet_low-pitch_Dtri_loud.wav,stimulus/audwhat_stim/blank_white.png,stimulus/audwhat_stim/category_box.png,stimulus/audwhat_stim/category_yes.png,stimulus/audwhat_stim/category_no.png,None,Category,None,Pitch,2,0.0,0,5.125,0,5.125,0,5.125,0,0.0,0.625,0,0.0,0,0.0,0,0.0,0,0.0,0,0.0,0,0.0,1,0.5,1,2.125,0,,,,,0,51,51,51,,,,,,,,,462.4534608329998,462.4534608329998,462.4534608329998,462.4534608329998,462.4534608329998,462.4534608329998,462.4534608329998,462.4534608329998,462.3718795413332,462.4534608329998,462.4534608329998,462.4534608329998,462.3718795413332,462.4534608329998,462.4534608329998,462.4534608329998,464.55779666600006,,462.4534608329998,462.4534608329998,467.6429779580001,462.4534608329998,462.4534608329998,462.4534608329998,462.4534608329998,462.9212048329998,463.9513169579998,462.8913569166666,,464.55779666600006,465.58951645799993,464.52755258266643,,462.4534608329998,467.6429779580001,462.4534608329998,467.6429779580001,467.6429779580001,468.3026833329998,462.4534608329998,2,1,0.4564938749999783,reldom2_s019,001,2025-02-20_12h42.08.093,What-B-Scan_AC,2022.2.5,None,
40,First_Order,7.0,audwhat,stimulus/audwhat_stim/dummy.wav,stimulus/audwhat_stim/dummy.wav,stimulus/audwhat_stim/string viola_high-pitch_F_loud.wav,stimulus/audwhat_stim/string viola_low-pitch_Ftri_loud.wav,stimulus/audwhat_stim/blank_white.png,stimulus/audwhat_stim/pitch_box.png,stimulus/audwhat_stim/pitch_yes.png,stimulus/audwhat_stim/pitch_no.png,None,Pitch,None,Category,2,0.0,0,5.125,0,5.125,0,5.125,0,0.0,0.625,0,0.0,0,0.0,0,0.0,0,0.0,0,0.0,0,0.0,1,0.5,1,2.125,0,,,,,0,52,52,52,,,,,,,,,468.5580680830001,468.5580680830001,468.5580680830001,468.5580680830001,468.5580680830001,468.5580680830001,468.5580680830001,468.5580680830001,468.4767864163331,468.5580680830001,468.5580680830001,468.5580680830001,468.4767864163331,468.5580680830001,468.5580680830001,468.5580680830001,470.6571634579998,474.70268375,468.5580680830001,468.5580680830001,473.72838750000005,468.5580680830001,468.5580680830001,468.5580680830001,468.5580680830001,469.0239610000001,470.09927600000015,468.99417116666655,,470.6571634579998,471.72886616599976,470.6270782076667,,468.5580680830001,473.72838750000005,468.5580680830001,473.72838750000005,473.7706942080001,474.4279247500001,468.5580680830001,2,1,1.268905458000063,reldom2_s019,001,2025-02-20_12h42.08.093,What-B-Scan_AC,2022.2.5,None,
0,0.0,None,fixation,stimulus/viswhat_stim/blank_white.png,stimulus/viswhat_stim/blank_white.png,stimulus/audwhat_stim/blank_white.png,stimulus/audwhat_stim/blank_white.png,stimulus/viswhat_stim/blank_white.png,stimulus/viswhat_stim/blank_white.png,stimulus/viswhat_stim/blank_white.png,stimulus/viswhat_stim/blank_white.png,0.0,0.0,0.0,0.0,0,0.0,0,0.0,0,0.0,0,0.0,0,0.0,0.0,0,0.0,0,0.0,0,0.0,0,0.0,0,0.0,0,0.0,0,0.0,0,0.0,9,,,,,0,53,53,53,,,,,,,,,474.70268375,474.70268375,474.70268375,474.70268375,474.70268375,474.70268375,474.70268375,474.70268375,474.60231620833326,474.70268375,474.70268375,474.70268375,474.60231620833326,474.70268375,474.70268375,474.70268375,474.70268375,474.70268375,474.70268375,474.70268375,474.70268375,474.70268375,474.70268375,474.70268375,474.70268375,474.70268375,474.70268375,474.6523162083333,474.70268375,474.70268375,474.70268375,474.6523162083333,474.70268375,474.70268375,474.70268375,474.70268375,474.70268375,479.9102113329998,479.9102113329998,483.86765379099984,None,0,,reldom2_s019,001,2025-02-20_12h42.08.093,What-B-Scan_AC,2022.2.5,None,
41,Second_Order,7.0,audwhat,stimulus/audwhat_stim/percussion mallet_low-pitch_F_loud.wav,stimulus/audwhat_stim/percussion mallet_high-pitch_D_loud.wav,stimulus/audwhat_stim/string cello_low-pitch_Dtri_loud.wav,stimulus/audwhat_stim/string viola_high-pitch_F_loud.wav,stimulus/viswhat_stim/match_blank.png,stimulus/viswhat_stim/match_box.png,stimulus/viswhat_stim/match_yes.png,stimulus/viswhat_stim/match_no.png,1.0,Match,Category,Category,1,5.125,0,5.125,0,5.125,0,5.125,0,0.75,0.75,0,0.0,0,0.0,0,0.0,0,0.0,1,0.5,1,2.125,1,0.5,1,2.125,0,,,,,0,54,54,54,,,,,,,,,483.86765379099984,488.99164879099976,483.86765379099984,483.86765379099984,483.86765379099984,483.86765379099984,484.313645125,485.31197587500014,484.3264591666666,,485.94695204100003,486.9364577079998,485.9509408746667,,488.99164879099976,489.8433441659997,491.88539720799986,,489.8433441659997,489.8433441659997,494.9985170829998,489.8433441659997,489.8433441659997,489.8433441659997,489.8433441659997,490.2607761249999,491.32668420799996,490.2308094166665,,491.88539720799986,492.957219958,491.8554843326665,,489.8433441659997,494.9985170829998,489.8433441659997,494.9985170829998,495.03951229100016,,489.8433441659997,1,1,0.623794208000163,reldom2_s019,001,2025-02-20_12h42.08.093,What-B-Scan_AC,2022.2.5,None,
42,Second_Order,7.0,audwhat,stimulus/audwhat_stim/percussion mallet_high-pitch_Ftri_loud.wav,stimulus/audwhat_stim/percussion mallet_low-pitch_F_loud.wav,stimulus/audwhat_stim/percussion mallet_low-pitch_Dtri_loud.wav,stimulus/audwhat_stim/string viola_low-pitch_Dtri_loud.wav,stimulus/viswhat_stim/match_blank.png,stimulus/viswhat_stim/match_box.png,stimulus/viswhat_stim/match_yes.png,stimulus/viswhat_stim/match_no.png,2.0,Match,Category,Pitch,2,5.125,0,5.125,0,5.125,0,5.125,0,0.625,0.625,0,0.0,0,0.0,0,0.0,0,0.0,1,0.5,1,2.125,1,0.5,1,2.125,0,,,,,0,55,55,55,,,,,,,,,495.81427554100014,500.93594162500017,495.81427554100014,495.81427554100014,495.81427554100014,495.81427554100014,496.2739719579997,497.2595991659998,496.28813762466643,,497.89616320799973,498.893638583,497.9077624166666,,500.93594162500017,501.6662771660001,503.74492350000014,507.78061349999984,501.6662771660001,501.6662771660001,506.8526828329998,501.6662771660001,501.6662771660001,501.6662771660001,501.6662771660001,502.08310558300013,503.14402204099974,502.0534777916664,,503.74492350000014,504.81545737500005,503.7150662076665,,501.6662771660001,506.8526828329998,501.6662771660001,506.8526828329998,506.8526828329998,507.50495958299985,501.6662771660001,2,1,0.39749545799986663,reldom2_s019,001,2025-02-20_12h42.08.093,What-B-Scan_AC,2022.2.5,None,
0,0.0,None,fixation,stimulus/viswhat_stim/blank_white.png,stimulus/viswhat_stim/blank_white.png,stimulus/audwhat_stim/blank_white.png,stimulus/audwhat_stim/blank_white.png,stimulus/viswhat_stim/blank_white.png,stimulus/viswhat_stim/blank_white.png,stimulus/viswhat_stim/blank_white.png,stimulus/viswhat_stim/blank_white.png,0.0,0.0,0.0,0.0,0,0.0,0,0.0,0,0.0,0,0.0,0,0.0,0.0,0,0.0,0,0.0,0,0.0,0,0.0,0,0.0,0,0.0,0,0.0,0,0.0,9,,,,,0,56,56,56,,,,,,,,,507.78061349999984,507.78061349999984,507.78061349999984,507.78061349999984,507.78061349999984,507.78061349999984,507.78061349999984,507.78061349999984,507.67910762433337,507.78061349999984,507.78061349999984,507.78061349999984,507.67910762433337,507.78061349999984,507.78061349999984,507.78061349999984,507.78061349999984,507.78061349999984,507.78061349999984,507.78061349999984,507.78061349999984,507.78061349999984,507.78061349999984,507.78061349999984,507.78061349999984,507.78061349999984,507.78061349999984,507.7291076243334,507.78061349999984,507.78061349999984,507.78061349999984,507.7291076243334,507.78061349999984,507.78061349999984,507.78061349999984,507.78061349999984,507.78061349999984,512.961523708,512.961523708,517.0055844159999,None,0,,reldom2_s019,001,2025-02-20_12h42.08.093,What-B-Scan_AC,2022.2.5,None,
43,First_Order,8.0,audwhat,stimulus/audwhat_stim/dummy.wav,stimulus/audwhat_stim/dummy.wav,stimulus/audwhat_stim/string cello_high-pitch_D_loud.wav,stimulus/audwhat_stim/string cello_low-pitch_F_loud.wav,stimulus/audwhat_stim/blank_white.png,stimulus/audwhat_stim/pitch_box.png,stimulus/audwhat_stim/pitch_yes.png,stimulus/audwhat_stim/pitch_no.png,None,Pitch,None,Category,2,0.0,0,5.125,0,5.125,0,5.125,0,0.0,0.625,0,0.0,0,0.0,0,0.0,0,0.0,0,0.0,0,0.0,1,0.5,1,2.125,0,,,,,0,57,57,57,,,,,,,,,517.0055844159999,517.0055844159999,517.0055844159999,517.0055844159999,517.0055844159999,517.0055844159999,517.0055844159999,517.0055844159999,516.9307461666666,517.0055844159999,517.0055844159999,517.0055844159999,516.9307461666666,517.0055844159999,517.0055844159999,517.0055844159999,519.0974879580001,523.1172267079999,517.0055844159999,517.0055844159999,522.1671228749999,517.0055844159999,517.0055844159999,517.0055844159999,517.0055844159999,517.4711958330001,518.5406507079999,517.4407892496665,,519.0974879580001,520.1719721249999,519.0676907916668,,517.0055844159999,522.1671228749999,517.0055844159999,522.1671228749999,522.2082669159997,522.8635270829998,517.0055844159999,2,1,0.8593643330000305,reldom2_s019,001,2025-02-20_12h42.08.093,What-B-Scan_AC,2022.2.5,None,
44,First_Order,8.0,audwhat,stimulus/audwhat_stim/dummy.wav,stimulus/audwhat_stim/dummy.wav,stimulus/audwhat_stim/percussion mallet_low-pitch_F_loud.wav,stimulus/audwhat_stim/string cello_low-pitch_F_loud.wav,stimulus/audwhat_stim/blank_white.png,stimulus/audwhat_stim/pitch_box.png,stimulus/audwhat_stim/pitch_yes.png,stimulus/audwhat_stim/pitch_no.png,None,Pitch,None,Pitch,1,0.0,0,5.125,0,5.125,0,5.125,0,0.0,0.625,0,0.0,0,0.0,0,0.0,0,0.0,0,0.0,0,0.0,1,0.5,1,2.125,0,,,,,0,58,58,58,,,,,,,,,523.1172267079999,523.1172267079999,523.1172267079999,523.1172267079999,523.1172267079999,523.1172267079999,523.1172267079999,523.1172267079999,523.0377550413331,523.1172267079999,523.1172267079999,523.1172267079999,523.0377550413331,523.1172267079999,523.1172267079999,523.1172267079999,525.2089644579999,,523.1172267079999,523.1172267079999,528.2792121249997,523.1172267079999,523.1172267079999,523.1172267079999,523.1172267079999,523.5816212080001,524.652263875,523.5517334996666,,525.2089644579999,526.2383484159998,525.1788652076666,,523.1172267079999,528.2792121249997,523.1172267079999,528.2792121249997,528.3202825410001,528.9752891249998,523.1172267079999,1,1,0.5194799579999199,reldom2_s019,001,2025-02-20_12h42.08.093,What-B-Scan_AC,2022.2.5,None,
45,First_Order,8.0,audwhat,stimulus/audwhat_stim/dummy.wav,stimulus/audwhat_stim/dummy.wav,stimulus/audwhat_stim/string viola_low-pitch_Dtri_loud.wav,stimulus/audwhat_stim/string cello_high-pitch_Ftri_loud.wav,stimulus/audwhat_stim/blank_white.png,stimulus/audwhat_stim/category_box.png,stimulus/audwhat_stim/category_yes.png,stimulus/audwhat_stim/category_no.png,None,Category,None,Category,1,0.0,0,5.125,0,5.125,0,5.125,0,0.0,0.625,0,0.0,0,0.0,0,0.0,0,0.0,0,0.0,0,0.0,1,0.5,1,2.125,0,,,,,0,59,59,59,,,,,,,,,529.2291024160002,529.2291024160002,529.2291024160002,529.2291024160002,529.2291024160002,529.2291024160002,529.2291024160002,529.2291024160002,529.1489768743335,529.2291024160002,529.2291024160002,529.2291024160002,529.1489768743335,529.2291024160002,529.2291024160002,529.2291024160002,531.3314066659998,,529.2291024160002,529.2291024160002,534.4152578749997,529.2291024160002,529.2291024160002,529.2291024160002,529.2291024160002,529.695846375,530.72538125,529.6657956246668,,531.3314066659998,532.364711208,531.3016241666664,,529.2291024160002,534.4152578749997,529.2291024160002,534.4152578749997,534.4565371249998,535.1136880000001,529.2291024160002,1,1,0.539746875000219,reldom2_s019,001,2025-02-20_12h42.08.093,What-B-Scan_AC,2022.2.5,None,
46,First_Order,8.0,audwhat,stimulus/audwhat_stim/dummy.wav,stimulus/audwhat_stim/dummy.wav,stimulus/audwhat_stim/string viola_high-pitch_Ftri_loud.wav,stimulus/audwhat_stim/percussion xylophone_high-pitch_Ftri_loud.wav,stimulus/audwhat_stim/blank_white.png,stimulus/audwhat_stim/category_box.png,stimulus/audwhat_stim/category_yes.png,stimulus/audwhat_stim/category_no.png,None,Category,None,Pitch,2,0.0,0,5.125,0,5.125,0,5.125,0,0.0,0.625,0,0.0,0,0.0,0,0.0,0,0.0,0,0.0,0,0.0,1,0.5,1,2.125,0,,,,,0,60,60,60,,,,,,,,,535.327366541,535.327366541,535.327366541,535.327366541,535.327366541,535.327366541,535.327366541,535.327366541,535.2470213333335,535.327366541,535.327366541,535.327366541,535.2470213333335,535.327366541,535.327366541,535.327366541,537.4307456250001,,535.327366541,535.327366541,540.5195565410002,535.327366541,535.327366541,535.327366541,535.327366541,535.7956484579997,536.8700742909998,535.7638179576666,,537.4307456250001,538.4653329579999,537.4005299166665,538.4653329579999,535.327366541,540.5195565410002,535.327366541,540.5195565410002,540.5195565410002,541.1773920829999,535.327366541,2,1,0.6218458750004174,reldom2_s019,001,2025-02-20_12h42.08.093,What-B-Scan_AC,2022.2.5,None,
0,0.0,None,fixation,stimulus/viswhat_stim/blank_white.png,stimulus/viswhat_stim/blank_white.png,stimulus/audwhat_stim/blank_white.png,stimulus/audwhat_stim/blank_white.png,stimulus/viswhat_stim/blank_white.png,stimulus/viswhat_stim/blank_white.png,stimulus/viswhat_stim/blank_white.png,stimulus/viswhat_stim/blank_white.png,0.0,0.0,0.0,0.0,0,0.0,0,0.0,0,0.0,0,0.0,0,0.0,0.0,0,0.0,0,0.0,0,0.0,0,0.0,0,0.0,0,0.0,0,0.0,0,0.0,8,,,,,0,61,61,61,,,,,,,,,541.4523888749998,541.4523888749998,541.4523888749998,541.4523888749998,541.4523888749998,541.4523888749998,541.4523888749998,541.4523888749998,541.3516450413334,541.4523888749998,541.4523888749998,541.4523888749998,541.3516450413334,541.4523888749998,541.4523888749998,541.4523888749998,541.4523888749998,541.4523888749998,541.4523888749998,541.4523888749998,541.4523888749998,541.4523888749998,541.4523888749998,541.4523888749998,541.4523888749998,541.4523888749998,541.4523888749998,541.4016450413334,541.4523888749998,541.4523888749998,541.4523888749998,541.4016450413334,541.4523888749998,541.4523888749998,541.4523888749998,541.4523888749998,541.4523888749998,546.6629309580001,546.6629309580001,549.5992322079999,None,0,,reldom2_s019,001,2025-02-20_12h42.08.093,What-B-Scan_AC,2022.2.5,None,
47,Second_Order,8.0,audwhat,stimulus/audwhat_stim/string cello_low-pitch_Dtri_loud.wav,stimulus/audwhat_stim/string viola_high-pitch_D_loud.wav,stimulus/audwhat_stim/percussion xylophone_high-pitch_F_loud.wav,stimulus/audwhat_stim/percussion mallet_low-pitch_D_loud.wav,stimulus/viswhat_stim/match_blank.png,stimulus/viswhat_stim/match_box.png,stimulus/viswhat_stim/match_yes.png,stimulus/viswhat_stim/match_no.png,1.0,Match,Category,Category,1,5.125,0,5.125,0,5.125,0,5.125,0,0.75,0.75,0,0.0,0,0.0,0,0.0,0,0.0,1,0.5,1,2.125,1,0.5,1,2.125,0,,,,,0,62,62,62,,,,,,,,,549.5992322079999,554.7224920830001,549.5992322079999,549.5992322079999,549.5992322079999,549.5992322079999,550.0469362910001,551.0343581250002,550.0611541246667,,551.6824583750001,552.6710128329998,551.6849972916666,,554.7224920830001,555.5774005830001,557.6178835409999,,555.5774005830001,555.5774005830001,560.7334524579999,555.5774005830001,555.5774005830001,555.5774005830001,555.5774005830001,555.9963420410002,557.0625807079998,555.9662908746668,557.0161296660001,557.6178835409999,558.692178125,557.5878710416664,,555.5774005830001,560.7334524579999,555.5774005830001,560.7334524579999,560.7334524579999,,555.5774005830001,1,1,0.5549255000000812,reldom2_s019,001,2025-02-20_12h42.08.093,What-B-Scan_AC,2022.2.5,None,
48,Second_Order,8.0,audwhat,stimulus/audwhat_stim/percussion mallet_high-pitch_D_loud.wav,stimulus/audwhat_stim/percussion mallet_low-pitch_Dtri_loud.wav,stimulus/audwhat_stim/string viola_high-pitch_F_loud.wav,stimulus/audwhat_stim/string viola_low-pitch_Dtri_loud.wav,stimulus/viswhat_stim/match_blank.png,stimulus/viswhat_stim/match_box.png,stimulus/viswhat_stim/match_yes.png,stimulus/viswhat_stim/match_no.png,1.0,Match,Category,Category,1,5.125,0,5.125,0,5.125,0,5.125,0,0.625,0.625,0,0.0,0,0.0,0,0.0,0,0.0,1,0.5,1,2.125,1,0.5,1,2.125,0,,,,,0,63,63,63,,,,,,,,,561.5483442500001,566.6713277910001,561.5483442500001,561.5483442500001,561.5483442500001,561.5483442500001,562.006198458,562.9951109159999,562.0095246246665,,563.6311437080001,564.6291838750001,563.6429937076664,,566.6713277910001,567.4026181659999,569.4838601250001,573.5186110409998,567.4026181659999,567.4026181659999,572.591875541,567.4026181659999,567.4026181659999,567.4026181659999,567.4026181659999,567.8187234999998,568.8819541659998,567.7886345826664,,569.4838601250001,570.5541075409999,569.4542858746668,,567.4026181659999,572.591875541,567.4026181659999,572.591875541,572.591875541,573.2445807080001,567.4026181659999,1,1,0.4140486670003156,reldom2_s019,001,2025-02-20_12h42.08.093,What-B-Scan_AC,2022.2.5,None,
0,0.0,None,fixation,stimulus/viswhat_stim/blank_white.png,stimulus/viswhat_stim/blank_white.png,stimulus/audwhat_stim/blank_white.png,stimulus/audwhat_stim/blank_white.png,stimulus/viswhat_stim/blank_white.png,stimulus/viswhat_stim/blank_white.png,stimulus/viswhat_stim/blank_white.png,stimulus/viswhat_stim/blank_white.png,0.0,0.0,0.0,0.0,0,0.0,0,0.0,0,0.0,0,0.0,0,0.0,0.0,0,0.0,0,0.0,0,0.0,0,0.0,0,0.0,0,0.0,0,0.0,0,0.0,16,,,,,0,64,64,64,,,,,,,,,573.5186110409998,573.5186110409998,573.5186110409998,573.5186110409998,573.5186110409998,573.5186110409998,573.5186110409998,573.5186110409998,573.4184741663333,573.5186110409998,573.5186110409998,573.5186110409998,573.4184741663333,573.5186110409998,573.5186110409998,573.5186110409998,573.5186110409998,573.5186110409998,573.5186110409998,573.5186110409998,573.5186110409998,573.5186110409998,573.5186110409998,573.5186110409998,573.5186110409998,573.5186110409998,573.5186110409998,573.4684741663333,573.5186110409998,573.5186110409998,573.5186110409998,573.4684741663333,573.5186110409998,573.5186110409998,573.5186110409998,573.5186110409998,573.5186110409998,578.706761833,578.706761833,589.6697302079999,None,0,,reldom2_s019,001,2025-02-20_12h42.08.093,What-B-Scan_AC,2022.2.5,None,
