Trial,Order,Block,Type,Stimuli_File1,Stimuli_File2,Stimuli_File3,Stimuli_File4,Cue_File1,Cue_File2,Response_File_Yes,Response_File_No,Match,Cue_Dimension,Pair1_Dimension,Pair2_Dimension,Key,Cue1_Duration,Cue1_Onset,Cue2_Duration,Cue2_Onset,ResponseYes_Duration,ResponseYes_Onset,ResponseNo_Duration,ResponseNo_Onset,ITI_Within,ITI_Between,Image1_Duration,Image1_Onset,Image2_Duration,Image2_Onset,Image3_Duration,Image3_Onset,Image4_Duration,Image4_Onset,Sound1_Duration,Sound1_Onset,Sound2_Duration,Sound2_Onset,Sound3_Duration,Sound3_Onset,Sound4_Duration,Sound4_Onset,Fixation_Duration,trials_2.thisRepN,trials_2.thisTrialN,trials_2.thisN,trials_2.thisIndex,trials.thisRepN,trials.thisTrialN,trials.thisN,trials.thisIndex,text_start.started,key_resp_start.started,key_resp_start.keys,key_resp_start.rt,text2.started,key_resp_2.started,key_resp_2.keys,key_resp_2.rt,cue_file1.started,cue_file1.stopped,image_1.started,image_1.stopped,image_2.started,image_2.stopped,sound_icon1.started,sound_icon1.stopped,sound_1.started,sound_1.stopped,sound_icon2.started,sound_icon2.stopped,sound_2.started,sound_2.stopped,image_blank_1.started,image_blank_1.stopped,key_press.started,key_press.stopped,fixation_text.started,cue_file2.started,cue_file2.stopped,image_3.started,image_3.stopped,image_4.started,image_4.stopped,sound_icon3.started,sound_icon3.stopped,sound_3.started,sound_3.stopped,sound_icon4.started,sound_icon4.stopped,sound_4.started,sound_4.stopped,response_yes.started,response_yes.stopped,response_no.started,response_no.stopped,iti_blank.started,iti_blank.stopped,fixation_text.stopped,key_press.keys,key_press.corr,key_press.rt,participant,session,date,expName,psychopyVersion,frameRate,
,,,,,,,,,,,,,,,,,,,,,,,,,,,,,,,,,,,,,,,,,,,,,,,,,,,,8.201483916999678,8.201483916999678,2,0.6703917910003838,,,,,,,,,,,,,,,,,,,,,,,,,,,,,,,,,,,,,,,,,,,,,,,,reldom2_s019,001,2025-02-20_13h04.47.103,Aud-B-Scan_AC,2022.2.5,None,
,,,,,,,,,,,,,,,,,,,,,,,,,,,,,,,,,,,,,,,,,,,,0,0,0,0,,,,,,,,,8.903318624999883,8.903318624999883,5,17.50716387500006,,,,,,,,,,,,,,,,,,,,,,,,,,,,,,,,,,,,,,,,,,,,reldom2_s019,001,2025-02-20_13h04.47.103,Aud-B-Scan_AC,2022.2.5,None,
,,,,,,,,,,,,,,,,,,,,,,,,,,,,,,,,,,,,,,,,,,,,1,0,1,0,,,,,,,,,26.429544749999877,26.429544749999877,5,1.9801978330006023,,,,,,,,,,,,,,,,,,,,,,,,,,,,,,,,,,,,,,,,,,,,reldom2_s019,001,2025-02-20_13h04.47.103,Aud-B-Scan_AC,2022.2.5,None,
,,,,,,,,,,,,,,,,,,,,,,,,,,,,,,,,,,,,,,,,,,,,2,0,2,0,,,,,,,,,28.425890416999664,28.425890416999664,5,1.9840584160006074,,,,,,,,,,,,,,,,,,,,,,,,,,,,,,,,,,,,,,,,,,,,reldom2_s019,001,2025-02-20_13h04.47.103,Aud-B-Scan_AC,2022.2.5,None,
,,,,,,,,,,,,,,,,,,,,,,,,,,,,,,,,,,,,,,,,,,,,3,0,3,0,,,,,,,,,30.418227832999946,30.418227832999946,5,1.99289250000038,,,,,,,,,,,,,,,,,,,,,,,,,,,,,,,,,,,,,,,,,,,,reldom2_s019,001,2025-02-20_13h04.47.103,Aud-B-Scan_AC,2022.2.5,None,
0,0.0,None,fixation,stimulus/audwhat_stim/blank_white.png,stimulus/audwhat_stim/blank_white.png,stimulus/audwhere_stim/blank_white.png,stimulus/audwhere_stim/blank_white.png,stimulus/audwhat_stim/blank_white.png,stimulus/audwhat_stim/blank_white.png,stimulus/audwhat_stim/blank_white.png,stimulus/audwhat_stim/blank_white.png,0.0,0.0,0.0,0.0,0,0.0,0,0.0,0,0.0,0,0.0,0,0.0,0.0,0,0,0,0,0,0,0,0,0,0.0,0,0.0,0,0.0,0,0.0,16,,,,,0,0,0,0,,,,,,,,,32.62398533299984,32.62398533299984,32.62398533299984,32.62398533299984,32.62398533299984,32.62398533299984,32.62398533299984,32.62398533299984,32.53215491666639,32.62398533299984,32.62398533299984,32.62398533299984,32.53215491666639,32.62398533299984,32.62398533299984,32.62398533299984,32.62398533299984,32.62398533299984,32.62398533299984,32.62398533299984,32.62398533299984,32.62398533299984,32.62398533299984,32.62398533299984,32.62398533299984,32.62398533299984,32.62398533299984,32.58215491666639,32.62398533299984,32.62398533299984,32.62398533299984,32.58215491666639,32.62398533299984,32.62398533299984,32.62398533299984,32.62398533299984,32.62398533299984,37.84215891699978,37.84215891699978,48.83540366699981,None,0,,reldom2_s019,001,2025-02-20_13h04.47.103,Aud-B-Scan_AC,2022.2.5,None,
1,First_Order,1.0,audwhat,stimulus/audwhat_stim/dummy.wav,stimulus/audwhat_stim/dummy.wav,stimulus/audwhat_stim/string viola_low-pitch_F_loud.wav,stimulus/audwhat_stim/string cello_high-pitch_Dtri_loud.wav,stimulus/audwhat_stim/blank_white.png,stimulus/audwhat_stim/pitch_box.png,stimulus/audwhat_stim/pitch_yes.png,stimulus/audwhat_stim/pitch_no.png,None,Pitch,None,Category,2,0.0,0,5.125,0,5.125,0,5.125,0,0.0,0.625,0,0,0,0,0,0,0,0,0,0.0,0,0.0,1,0.5,1,2.125,0,,,,,0,1,1,1,,,,,,,,,48.83540366699981,48.83540366699981,48.83540366699981,48.83540366699981,48.83540366699981,48.83540366699981,48.83540366699981,48.83540366699981,48.76018658299963,48.83540366699981,48.83540366699981,48.83540366699981,48.76018658299963,48.83540366699981,48.83540366699981,48.83540366699981,50.940314916999796,,48.83540366699981,48.83540366699981,53.9973289579998,48.83540366699981,48.83540366699981,48.83540366699981,48.83540366699981,49.29358762499987,50.34369137499971,49.26437516666671,,50.940314916999796,51.99330283299969,50.91069199966638,,48.83540366699981,53.9973289579998,48.83540366699981,53.9973289579998,54.03779633299973,54.72435691700002,48.83540366699981,2,1,1.2060415410001042,reldom2_s019,001,2025-02-20_13h04.47.103,Aud-B-Scan_AC,2022.2.5,None,
2,First_Order,1.0,audwhat,stimulus/audwhat_stim/dummy.wav,stimulus/audwhat_stim/dummy.wav,stimulus/audwhat_stim/percussion xylophone_high-pitch_Ftri_loud.wav,stimulus/audwhat_stim/string viola_high-pitch_Ftri_loud.wav,stimulus/audwhat_stim/blank_white.png,stimulus/audwhat_stim/pitch_box.png,stimulus/audwhat_stim/pitch_yes.png,stimulus/audwhat_stim/pitch_no.png,None,Pitch,None,Pitch,1,0.0,0,5.125,0,5.125,0,5.125,0,0.0,0.625,0,0,0,0,0,0,0,0,0,0.0,0,0.0,1,0.5,1,2.125,0,,,,,0,2,2,2,,,,,,,,,54.93490437499986,54.93490437499986,54.93490437499986,54.93490437499986,54.93490437499986,54.93490437499986,54.93490437499986,54.93490437499986,54.857690250333356,54.93490437499986,54.93490437499986,54.93490437499986,54.857690250333356,54.93490437499986,54.93490437499986,54.93490437499986,57.048865957999624,,54.93490437499986,54.93490437499986,60.08910862499988,54.93490437499986,54.93490437499986,54.93490437499986,54.93490437499986,55.394763499999954,56.45285304199979,55.36550095866666,56.40563829199982,57.048865957999624,58.111157291999916,57.019443083666616,,54.93490437499986,60.08910862499988,54.93490437499986,60.08910862499988,60.12962787499964,60.781653707999794,54.93490437499986,1,1,0.8159548330004327,reldom2_s019,001,2025-02-20_13h04.47.103,Aud-B-Scan_AC,2022.2.5,None,
3,First_Order,1.0,audwhat,stimulus/audwhat_stim/dummy.wav,stimulus/audwhat_stim/dummy.wav,stimulus/audwhat_stim/string viola_low-pitch_Dtri_loud.wav,stimulus/audwhat_stim/percussion mallet_low-pitch_Dtri_loud.wav,stimulus/audwhat_stim/blank_white.png,stimulus/audwhat_stim/category_box.png,stimulus/audwhat_stim/category_yes.png,stimulus/audwhat_stim/category_no.png,None,Category,None,Pitch,2,0.0,0,5.125,0,5.125,0,5.125,0,0.0,0.625,0,0,0,0,0,0,0,0,0,0.0,0,0.0,1,0.5,1,2.125,0,,,,,0,3,3,3,,,,,,,,,61.03463758299995,61.03463758299995,61.03463758299995,61.03463758299995,61.03463758299995,61.03463758299995,61.03463758299995,61.03463758299995,60.95535487533301,61.03463758299995,61.03463758299995,61.03463758299995,60.95535487533301,61.03463758299995,61.03463758299995,61.03463758299995,63.123955125000066,,61.03463758299995,61.03463758299995,66.18874324999979,61.03463758299995,61.03463758299995,61.03463758299995,61.03463758299995,61.49879387500005,62.56804199999988,61.4685274586666,,63.123955125000066,64.1951147499999,63.0937528336665,,61.03463758299995,66.18874324999979,61.03463758299995,66.18874324999979,66.22973145800006,66.88232887499998,61.03463758299995,2,1,1.2615224580003996,reldom2_s019,001,2025-02-20_13h04.47.103,Aud-B-Scan_AC,2022.2.5,None,
4,First_Order,1.0,audwhat,stimulus/audwhat_stim/dummy.wav,stimulus/audwhat_stim/dummy.wav,stimulus/audwhat_stim/percussion mallet_low-pitch_D_loud.wav,stimulus/audwhat_stim/percussion xylophone_high-pitch_Dtri_loud.wav,stimulus/audwhat_stim/blank_white.png,stimulus/audwhat_stim/pitch_box.png,stimulus/audwhat_stim/pitch_yes.png,stimulus/audwhat_stim/pitch_no.png,None,Pitch,None,Category,2,0.0,0,5.125,0,5.125,0,5.125,0,0.0,0.625,0,0,0,0,0,0,0,0,0,0.0,0,0.0,1,0.5,1,2.125,0,,,,,0,4,4,4,,,,,,,,,67.1396948329998,67.1396948329998,67.1396948329998,67.1396948329998,67.1396948329998,67.1396948329998,67.1396948329998,67.1396948329998,67.05662470833306,67.1396948329998,67.1396948329998,67.1396948329998,67.05662470833306,67.1396948329998,67.1396948329998,67.1396948329998,69.222892667,,67.1396948329998,67.1396948329998,72.32917891699981,67.1396948329998,67.1396948329998,67.1396948329998,67.1396948329998,67.60255329199981,68.66831341699981,67.57277341666646,,69.222892667,70.2902201249999,69.19330645866673,70.24384712499977,67.1396948329998,72.32917891699981,67.1396948329998,72.32917891699981,72.32917891699981,72.97983054199995,67.1396948329998,2,1,1.52482050000026,reldom2_s019,001,2025-02-20_13h04.47.103,Aud-B-Scan_AC,2022.2.5,None,
0,0.0,None,fixation,stimulus/audwhat_stim/blank_white.png,stimulus/audwhat_stim/blank_white.png,stimulus/audwhere_stim/blank_white.png,stimulus/audwhere_stim/blank_white.png,stimulus/audwhat_stim/blank_white.png,stimulus/audwhat_stim/blank_white.png,stimulus/audwhat_stim/blank_white.png,stimulus/audwhat_stim/blank_white.png,0.0,0.0,0.0,0.0,0,0.0,0,0.0,0,0.0,0,0.0,0,0.0,0.0,0,0,0,0,0,0,0,0,0,0.0,0,0.0,0,0.0,0,0.0,8,,,,,0,5,5,5,,,,,,,,,73.25391691699997,73.25391691699997,73.25391691699997,73.25391691699997,73.25391691699997,73.25391691699997,73.25391691699997,73.25391691699997,73.15373466633321,73.25391691699997,73.25391691699997,73.25391691699997,73.15373466633321,73.25391691699997,73.25391691699997,73.25391691699997,73.25391691699997,73.25391691699997,73.25391691699997,73.25391691699997,73.25391691699997,73.25391691699997,73.25391691699997,73.25391691699997,73.25391691699997,73.25391691699997,73.25391691699997,73.20373466633322,73.25391691699997,73.25391691699997,73.25391691699997,73.20373466633322,73.25391691699997,73.25391691699997,73.25391691699997,73.25391691699997,73.25391691699997,78.487467208,78.487467208,81.41198120799982,None,0,,reldom2_s019,001,2025-02-20_13h04.47.103,Aud-B-Scan_AC,2022.2.5,None,
5,Second_Order,1.0,audwhat,stimulus/audwhat_stim/percussion mallet_high-pitch_Dtri_loud.wav,stimulus/audwhat_stim/string cello_high-pitch_Dtri_loud.wav,stimulus/audwhat_stim/string viola_low-pitch_F_loud.wav,stimulus/audwhat_stim/percussion mallet_low-pitch_F_loud.wav,stimulus/audwhat_stim/match_blank.png,stimulus/audwhat_stim/match_box.png,stimulus/audwhat_stim/match_yes.png,stimulus/audwhat_stim/match_no.png,1.0,Match,Pitch,Pitch,1,5.125,0,5.125,0,5.125,0,5.125,0,0.75,0.75,0,0,0,0,0,0,0,0,1,0.5,1,2.125,1,0.5,1,2.125,0,,,,,0,6,6,6,,,,,,,,,81.41198120799982,86.52880587499976,81.41198120799982,81.41198120799982,81.41198120799982,81.41198120799982,81.86699649999991,82.86534333300006,81.87991391666652,,83.48827295799992,84.48589858299965,83.50034383366643,,86.52880587499976,87.37831145799964,89.45294479199993,93.36377462499968,87.37831145799964,87.37831145799964,92.5543607919999,87.37831145799964,87.37831145799964,87.37831145799964,87.37831145799964,87.83768324999983,88.89923887499981,87.8079323746663,,89.45294479199993,90.52037770800007,89.42346983366657,,87.37831145799964,92.5543607919999,87.37831145799964,92.5543607919999,92.5543607919999,,87.37831145799964,1,1,0.6351127490002,reldom2_s019,001,2025-02-20_13h04.47.103,Aud-B-Scan_AC,2022.2.5,None,
6,Second_Order,1.0,audwhat,stimulus/audwhat_stim/percussion mallet_low-pitch_F_loud.wav,stimulus/audwhat_stim/percussion mallet_high-pitch_Dtri_loud.wav,stimulus/audwhat_stim/string viola_low-pitch_Ftri_loud.wav,stimulus/audwhat_stim/percussion mallet_low-pitch_Ftri_loud.wav,stimulus/audwhat_stim/match_blank.png,stimulus/audwhat_stim/match_box.png,stimulus/audwhat_stim/match_yes.png,stimulus/audwhat_stim/match_no.png,2.0,Match,Category,Pitch,2,5.125,0,5.125,0,5.125,0,5.125,0,0.625,0.625,0,0,0,0,0,0,0,0,1,0.5,1,2.125,1,0.5,1,2.125,0,,,,,0,7,7,7,,,,,,,,,93.36377462499968,98.48496095799965,93.36377462499968,93.36377462499968,93.36377462499968,93.36377462499968,93.81132870800002,94.81005133300005,93.82416408366659,,95.45005283299997,96.4470430829997,95.46127195866644,,98.48496095799965,99.21999320799978,101.2816416669998,105.33538654199992,99.21999320799978,99.21999320799978,104.37291858299977,99.21999320799978,99.21999320799978,99.21999320799978,99.21999320799978,99.67601349999995,100.7310044169999,99.64668624966659,,101.2816416669998,102.34510270800001,101.25206658366666,,99.21999320799978,104.37291858299977,99.21999320799978,104.37291858299977,104.41306358299971,105.0618076249998,99.21999320799978,2,1,0.47360250000065207,reldom2_s019,001,2025-02-20_13h04.47.103,Aud-B-Scan_AC,2022.2.5,None,
0,0.0,None,fixation,stimulus/audwhat_stim/blank_white.png,stimulus/audwhat_stim/blank_white.png,stimulus/audwhere_stim/blank_white.png,stimulus/audwhere_stim/blank_white.png,stimulus/audwhat_stim/blank_white.png,stimulus/audwhat_stim/blank_white.png,stimulus/audwhat_stim/blank_white.png,stimulus/audwhat_stim/blank_white.png,0.0,0.0,0.0,0.0,0,0.0,0,0.0,0,0.0,0,0.0,0,0.0,0.0,0,0,0,0,0,0,0,0,0,0.0,0,0.0,0,0.0,0,0.0,10,,,,,0,8,8,8,,,,,,,,,105.33538654199992,105.33538654199992,105.33538654199992,105.33538654199992,105.33538654199992,105.33538654199992,105.33538654199992,105.33538654199992,105.23574325033326,105.33538654199992,105.33538654199992,105.33538654199992,105.23574325033326,105.33538654199992,105.33538654199992,105.33538654199992,105.33538654199992,105.33538654199992,105.33538654199992,105.33538654199992,105.33538654199992,105.33538654199992,105.33538654199992,105.33538654199992,105.33538654199992,105.33538654199992,105.33538654199992,105.28574325033327,105.33538654199992,105.33538654199992,105.33538654199992,105.28574325033327,105.33538654199992,105.33538654199992,105.33538654199992,105.33538654199992,105.33538654199992,110.54574249999996,110.54574249999996,115.57593212499978,None,0,,reldom2_s019,001,2025-02-20_13h04.47.103,Aud-B-Scan_AC,2022.2.5,None,
7,First_Order,2.0,audwhat,stimulus/audwhat_stim/dummy.wav,stimulus/audwhat_stim/dummy.wav,stimulus/audwhat_stim/percussion xylophone_high-pitch_F_loud.wav,stimulus/audwhat_stim/percussion mallet_low-pitch_D_loud.wav,stimulus/audwhat_stim/blank_white.png,stimulus/audwhat_stim/category_box.png,stimulus/audwhat_stim/category_yes.png,stimulus/audwhat_stim/category_no.png,None,Category,None,Category,1,0.0,0,5.125,0,5.125,0,5.125,0,0.0,0.625,0,0,0,0,0,0,0,0,0,0.0,0,0.0,1,0.5,1,2.125,0,,,,,0,9,9,9,,,,,,,,,115.57593212499978,115.57593212499978,115.57593212499978,115.57593212499978,115.57593212499978,115.57593212499978,115.57593212499978,115.57593212499978,115.5038515836665,115.57593212499978,115.57593212499978,115.57593212499978,115.5038515836665,115.57593212499978,115.57593212499978,115.57593212499978,117.67437508299963,121.69911324999975,115.57593212499978,115.57593212499978,120.74863787499999,115.57593212499978,115.57593212499978,115.57593212499978,115.57593212499978,116.04289829199979,117.11550604199965,116.01225495866653,117.06870770799969,117.67437508299963,118.7492984999999,117.6447130416666,,115.57593212499978,120.74863787499999,115.57593212499978,120.74863787499999,120.78983824999978,121.44519249999985,115.57593212499978,1,1,0.8723897920003765,reldom2_s019,001,2025-02-20_13h04.47.103,Aud-B-Scan_AC,2022.2.5,None,
8,First_Order,2.0,audwhat,stimulus/audwhat_stim/dummy.wav,stimulus/audwhat_stim/dummy.wav,stimulus/audwhat_stim/percussion mallet_low-pitch_D_loud.wav,stimulus/audwhat_stim/string viola_low-pitch_D_loud.wav,stimulus/audwhat_stim/blank_white.png,stimulus/audwhat_stim/pitch_box.png,stimulus/audwhat_stim/pitch_yes.png,stimulus/audwhat_stim/pitch_no.png,None,Pitch,None,Pitch,1,0.0,0,5.125,0,5.125,0,5.125,0,0.0,0.625,0,0,0,0,0,0,0,0,0,0.0,0,0.0,1,0.5,1,2.125,0,,,,,0,10,10,10,,,,,,,,,121.69911324999975,121.69911324999975,121.69911324999975,121.69911324999975,121.69911324999975,121.69911324999975,121.69911324999975,121.69911324999975,121.61900320833331,121.69911324999975,121.69911324999975,121.69911324999975,121.61900320833331,121.69911324999975,121.69911324999975,121.69911324999975,123.79025779199992,,121.69911324999975,121.69911324999975,126.85889745799977,121.69911324999975,121.69911324999975,121.69911324999975,121.69911324999975,122.16369591700004,123.23472408299995,122.13392924966662,,123.79025779199992,124.86384041699966,123.76012966666646,,121.69911324999975,126.85889745799977,121.69911324999975,126.85889745799977,126.90011749999985,127.55297320799991,121.69911324999975,1,1,0.5552084580003793,reldom2_s019,001,2025-02-20_13h04.47.103,Aud-B-Scan_AC,2022.2.5,None,
9,First_Order,2.0,audwhat,stimulus/audwhat_stim/dummy.wav,stimulus/audwhat_stim/dummy.wav,stimulus/audwhat_stim/percussion mallet_low-pitch_D_loud.wav,stimulus/audwhat_stim/percussion mallet_high-pitch_Ftri_loud.wav,stimulus/audwhat_stim/blank_white.png,stimulus/audwhat_stim/category_box.png,stimulus/audwhat_stim/category_yes.png,stimulus/audwhat_stim/category_no.png,None,Category,None,Category,1,0.0,0,5.125,0,5.125,0,5.125,0,0.0,0.625,0,0,0,0,0,0,0,0,0,0.0,0,0.0,1,0.5,1,2.125,0,,,,,0,11,11,11,,,,,,,,,127.80787949999967,127.80787949999967,127.80787949999967,127.80787949999967,127.80787949999967,127.80787949999967,127.80787949999967,127.80787949999967,127.72742175033329,127.80787949999967,127.80787949999967,127.80787949999967,127.72742175033329,127.80787949999967,127.80787949999967,127.80787949999967,129.90718554199975,133.9384869999999,127.80787949999967,127.80787949999967,132.9850645419997,127.80787949999967,127.80787949999967,127.80787949999967,127.80787949999967,128.27416799999992,129.30329354199966,128.24427933366658,,129.90718554199975,130.93709416699994,129.87717558366674,,127.80787949999967,132.9850645419997,127.80787949999967,132.9850645419997,133.02627333300006,133.68191966699987,127.80787949999967,1,1,0.4918308330002219,reldom2_s019,001,2025-02-20_13h04.47.103,Aud-B-Scan_AC,2022.2.5,None,
10,First_Order,2.0,audwhat,stimulus/audwhat_stim/dummy.wav,stimulus/audwhat_stim/dummy.wav,stimulus/audwhat_stim/string cello_high-pitch_F_loud.wav,stimulus/audwhat_stim/percussion mallet_high-pitch_F_loud.wav,stimulus/audwhat_stim/blank_white.png,stimulus/audwhat_stim/category_box.png,stimulus/audwhat_stim/category_yes.png,stimulus/audwhat_stim/category_no.png,None,Category,None,Pitch,2,0.0,0,5.125,0,5.125,0,5.125,0,0.0,0.625,0,0,0,0,0,0,0,0,0,0.0,0,0.0,1,0.5,1,2.125,0,,,,,0,12,12,12,,,,,,,,,133.9384869999999,133.9384869999999,133.9384869999999,133.9384869999999,133.9384869999999,133.9384869999999,133.9384869999999,133.9384869999999,133.85621762533324,133.9384869999999,133.9384869999999,133.9384869999999,133.85621762533324,133.9384869999999,133.9384869999999,133.9384869999999,136.03846095799963,,133.9384869999999,133.9384869999999,139.122607625,133.9384869999999,133.9384869999999,133.9384869999999,133.9384869999999,134.40457408299972,135.47974291699984,134.37433612466637,,136.03846095799963,137.06955895800002,136.0084393336663,,133.9384869999999,139.122607625,133.9384869999999,139.122607625,139.16404562499974,139.8211554579998,133.9384869999999,2,1,0.4212386250005693,reldom2_s019,001,2025-02-20_13h04.47.103,Aud-B-Scan_AC,2022.2.5,None,
0,0.0,None,fixation,stimulus/audwhat_stim/blank_white.png,stimulus/audwhat_stim/blank_white.png,stimulus/audwhere_stim/blank_white.png,stimulus/audwhere_stim/blank_white.png,stimulus/audwhat_stim/blank_white.png,stimulus/audwhat_stim/blank_white.png,stimulus/audwhat_stim/blank_white.png,stimulus/audwhat_stim/blank_white.png,0.0,0.0,0.0,0.0,0,0.0,0,0.0,0,0.0,0,0.0,0,0.0,0.0,0,0,0,0,0,0,0,0,0,0.0,0,0.0,0,0.0,0,0.0,8,,,,,0,13,13,13,,,,,,,,,140.05541858299966,140.05541858299966,140.05541858299966,140.05541858299966,140.05541858299966,140.05541858299966,140.05541858299966,140.05541858299966,139.95448879133315,140.05541858299966,140.05541858299966,140.05541858299966,139.95448879133315,140.05541858299966,140.05541858299966,140.05541858299966,140.05541858299966,140.05541858299966,140.05541858299966,140.05541858299966,140.05541858299966,140.05541858299966,140.05541858299966,140.05541858299966,140.05541858299966,140.05541858299966,140.05541858299966,140.00448879133313,140.05541858299966,140.05541858299966,140.05541858299966,140.00448879133313,140.05541858299966,140.05541858299966,140.05541858299966,140.05541858299966,140.05541858299966,145.25917608300006,145.25917608300006,148.1925007079999,None,0,,reldom2_s019,001,2025-02-20_13h04.47.103,Aud-B-Scan_AC,2022.2.5,None,
11,Second_Order,2.0,audwhat,stimulus/audwhat_stim/string viola_high-pitch_Dtri_loud.wav,stimulus/audwhat_stim/string cello_low-pitch_D_loud.wav,stimulus/audwhat_stim/percussion mallet_high-pitch_Dtri_loud.wav,stimulus/audwhat_stim/percussion mallet_low-pitch_Ftri_loud.wav,stimulus/audwhat_stim/match_blank.png,stimulus/audwhat_stim/match_box.png,stimulus/audwhat_stim/match_yes.png,stimulus/audwhat_stim/match_no.png,1.0,Match,Category,Category,1,5.125,0,5.125,0,5.125,0,5.125,0,0.75,0.75,0,0,0,0,0,0,0,0,1,0.5,1,2.125,1,0.5,1,2.125,0,,,,,0,14,14,14,,,,,,,,,148.1925007079999,153.31660958299972,148.1925007079999,148.1925007079999,148.1925007079999,148.1925007079999,148.65077712499988,149.63971091699977,148.6539751246667,,150.27592029199968,151.27344191699967,150.28804329166658,,153.31660958299972,154.16728745799992,156.208829875,,154.16728745799992,154.16728745799992,159.31992587499963,154.16728745799992,154.16728745799992,154.16728745799992,154.16728745799992,154.58556354199982,155.65261799999962,154.55555916666643,,156.208829875,157.28394633299968,156.1795320836666,,154.16728745799992,159.31992587499963,154.16728745799992,159.31992587499963,159.36128795800005,,154.16728745799992,1,1,0.49423654200018063,reldom2_s019,001,2025-02-20_13h04.47.103,Aud-B-Scan_AC,2022.2.5,None,
12,Second_Order,2.0,audwhat,stimulus/audwhat_stim/string viola_low-pitch_F_loud.wav,stimulus/audwhat_stim/string viola_high-pitch_Ftri_loud.wav,stimulus/audwhat_stim/percussion mallet_low-pitch_Ftri_loud.wav,stimulus/audwhat_stim/percussion xylophone_high-pitch_Dtri_loud.wav,stimulus/audwhat_stim/match_blank.png,stimulus/audwhat_stim/match_box.png,stimulus/audwhat_stim/match_yes.png,stimulus/audwhat_stim/match_no.png,1.0,Match,Category,Category,1,5.125,0,5.125,0,5.125,0,5.125,0,0.625,0.625,0,0,0,0,0,0,0,0,1,0.5,1,2.125,1,0.5,1,2.125,0,,,,,0,15,15,15,,,,,,,,,160.13288333299988,165.2560310419999,160.13288333299988,160.13288333299988,160.13288333299988,160.13288333299988,160.579945167,161.56865445799986,160.59440070866665,,162.21555924999984,163.20471962500005,162.21975745866646,,165.2560310419999,165.99203499999976,168.07347008299985,172.10477724999964,165.99203499999976,165.99203499999976,171.1773372079997,165.99203499999976,165.99203499999976,165.99203499999976,165.99203499999976,166.40663404199995,167.47152145799964,166.37675245866674,,168.07347008299985,169.14074620799965,168.0436206666666,169.09451570800002,165.99203499999976,171.1773372079997,165.99203499999976,171.1773372079997,171.1773372079997,171.83053379199964,165.99203499999976,1,1,0.7876424580003913,reldom2_s019,001,2025-02-20_13h04.47.103,Aud-B-Scan_AC,2022.2.5,None,
0,0.0,None,fixation,stimulus/audwhat_stim/blank_white.png,stimulus/audwhat_stim/blank_white.png,stimulus/audwhere_stim/blank_white.png,stimulus/audwhere_stim/blank_white.png,stimulus/audwhat_stim/blank_white.png,stimulus/audwhat_stim/blank_white.png,stimulus/audwhat_stim/blank_white.png,stimulus/audwhat_stim/blank_white.png,0.0,0.0,0.0,0.0,0,0.0,0,0.0,0,0.0,0,0.0,0,0.0,0.0,0,0,0,0,0,0,0,0,0,0.0,0,0.0,0,0.0,0,0.0,9,,,,,0,16,16,16,,,,,,,,,172.10477724999964,172.10477724999964,172.10477724999964,172.10477724999964,172.10477724999964,172.10477724999964,172.10477724999964,172.10477724999964,172.00486220833332,172.10477724999964,172.10477724999964,172.10477724999964,172.00486220833332,172.10477724999964,172.10477724999964,172.10477724999964,172.10477724999964,172.10477724999964,172.10477724999964,172.10477724999964,172.10477724999964,172.10477724999964,172.10477724999964,172.10477724999964,172.10477724999964,172.10477724999964,172.10477724999964,172.0548622083333,172.10477724999964,172.10477724999964,172.10477724999964,172.0548622083333,172.10477724999964,172.10477724999964,172.10477724999964,172.10477724999964,172.10477724999964,177.33417070799987,177.33417070799987,181.36959545799982,None,0,,reldom2_s019,001,2025-02-20_13h04.47.103,Aud-B-Scan_AC,2022.2.5,None,
13,First_Order,3.0,audwhere,stimulus/audwhere_stim/dummy.wav,stimulus/audwhere_stim/dummy.wav,stimulus/audwhere_stim/left_toward_290h.wav,stimulus/audwhere_stim/right_toward_280h.wav,stimulus/audwhere_stim/blank_white.png,stimulus/audwhere_stim/direction_box.png,stimulus/audwhere_stim/direction_yes.png,stimulus/audwhere_stim/direction_no.png,None,Direction,None,Direction,1,0.0,0,5.125,0,5.125,0,5.125,0,0.0,0.625,0,0,0,0,0,0,0,0,0,0.0,0,0.0,1,0.5,1,2.125,0,,,,,0,17,17,17,,,,,,,,,181.36959545799982,181.36959545799982,181.36959545799982,181.36959545799982,181.36959545799982,181.36959545799982,181.36959545799982,181.36959545799982,181.29722687466636,181.36959545799982,181.36959545799982,181.36959545799982,181.29722687466636,181.36959545799982,181.36959545799982,181.36959545799982,183.4710719579998,,181.36959545799982,181.36959545799982,186.5504834579997,181.36959545799982,181.36959545799982,181.36959545799982,181.36959545799982,181.83744587499996,182.91253845799974,181.80717249966645,,183.4710719579998,184.54724491699972,183.4407064996665,,181.36959545799982,186.5504834579997,181.36959545799982,186.5504834579997,186.59154312500004,187.24835399999984,181.36959545799982,1,1,1.119395708000411,reldom2_s019,001,2025-02-20_13h04.47.103,Aud-B-Scan_AC,2022.2.5,None,
14,First_Order,3.0,audwhere,stimulus/audwhere_stim/dummy.wav,stimulus/audwhere_stim/dummy.wav,stimulus/audwhere_stim/left_toward_270h.wav,stimulus/audwhere_stim/right_toward_290h.wav,stimulus/audwhere_stim/blank_white.png,stimulus/audwhere_stim/direction_box.png,stimulus/audwhere_stim/direction_yes.png,stimulus/audwhere_stim/direction_no.png,None,Direction,None,Direction,1,0.0,0,5.125,0,5.125,0,5.125,0,0.0,0.625,0,0,0,0,0,0,0,0,0,0.0,0,0.0,1,0.5,1,2.125,0,,,,,0,18,18,18,,,,,,,,,187.46149612499994,187.46149612499994,187.46149612499994,187.46149612499994,187.46149612499994,187.46149612499994,187.46149612499994,187.46149612499994,187.3816873333332,187.46149612499994,187.46149612499994,187.46149612499994,187.3816873333332,187.46149612499994,187.46149612499994,187.46149612499994,189.56358454199972,,187.46149612499994,187.46149612499994,192.6491219999998,187.46149612499994,187.46149612499994,187.46149612499994,187.46149612499994,187.92902916699995,189.0048327919999,187.89898004166642,,189.56358454199972,190.59614125000007,189.53336320866654,,187.46149612499994,192.6491219999998,187.46149612499994,192.6491219999998,192.69019149999986,193.34642379199977,187.46149612499994,1,1,0.9090512080006192,reldom2_s019,001,2025-02-20_13h04.47.103,Aud-B-Scan_AC,2022.2.5,None,
15,First_Order,3.0,audwhere,stimulus/audwhere_stim/dummy.wav,stimulus/audwhere_stim/dummy.wav,stimulus/audwhere_stim/left_away_290h.wav,stimulus/audwhere_stim/left_toward_280h.wav,stimulus/audwhere_stim/blank_white.png,stimulus/audwhere_stim/direction_box.png,stimulus/audwhere_stim/direction_yes.png,stimulus/audwhere_stim/direction_no.png,None,Direction,None,Side,2,0.0,0,5.125,0,5.125,0,5.125,0,0.0,0.625,0,0,0,0,0,0,0,0,0,0.0,0,0.0,1,0.5,1,2.125,0,,,,,0,19,19,19,,,,,,,,,193.55943224999965,193.55943224999965,193.55943224999965,193.55943224999965,193.55943224999965,193.55943224999965,193.55943224999965,193.55943224999965,193.47975712533312,193.55943224999965,193.55943224999965,193.55943224999965,193.47975712533312,193.55943224999965,193.55943224999965,193.55943224999965,195.66272854199997,,193.55943224999965,193.55943224999965,198.7476758749999,193.55943224999965,193.55943224999965,193.55943224999965,193.55943224999965,194.0264001669998,195.05576379199965,193.99671324966656,,195.66272854199997,196.69374408299973,195.63221499966656,,193.55943224999965,198.7476758749999,193.55943224999965,198.7476758749999,198.78897662500003,199.44822270799978,193.55943224999965,2,1,0.9178127080003833,reldom2_s019,001,2025-02-20_13h04.47.103,Aud-B-Scan_AC,2022.2.5,None,
16,First_Order,3.0,audwhere,stimulus/audwhere_stim/dummy.wav,stimulus/audwhere_stim/dummy.wav,stimulus/audwhere_stim/left_toward_300h.wav,stimulus/audwhere_stim/left_away_290h.wav,stimulus/audwhere_stim/blank_white.png,stimulus/audwhere_stim/direction_box.png,stimulus/audwhere_stim/direction_yes.png,stimulus/audwhere_stim/direction_no.png,None,Direction,None,Side,2,0.0,0,5.125,0,5.125,0,5.125,0,0.0,0.625,0,0,0,0,0,0,0,0,0,0.0,0,0.0,1,0.5,1,2.125,0,,,,,0,20,20,20,,,,,,,,,199.6607719579997,199.6607719579997,199.6607719579997,199.6607719579997,199.6607719579997,199.6607719579997,199.6607719579997,199.6607719579997,199.58155604133313,199.6607719579997,199.6607719579997,199.6607719579997,199.58155604133313,199.6607719579997,199.6607719579997,199.6607719579997,201.7639879999997,,199.6607719579997,199.6607719579997,204.85392816700005,199.6607719579997,199.6607719579997,199.6607719579997,199.6607719579997,200.12798133299975,201.2032778329999,200.0977017086664,,201.7639879999997,202.79611287499984,201.7335929996664,,199.6607719579997,204.85392816700005,199.6607719579997,204.85392816700005,204.85392816700005,205.51137712499985,199.6607719579997,2,1,1.0607796670001335,reldom2_s019,001,2025-02-20_13h04.47.103,Aud-B-Scan_AC,2022.2.5,None,
0,0.0,None,fixation,stimulus/audwhat_stim/blank_white.png,stimulus/audwhat_stim/blank_white.png,stimulus/audwhere_stim/blank_white.png,stimulus/audwhere_stim/blank_white.png,stimulus/audwhat_stim/blank_white.png,stimulus/audwhat_stim/blank_white.png,stimulus/audwhat_stim/blank_white.png,stimulus/audwhat_stim/blank_white.png,0.0,0.0,0.0,0.0,0,0.0,0,0.0,0,0.0,0,0.0,0,0.0,0.0,0,0,0,0,0,0,0,0,0,0.0,0,0.0,0,0.0,0,0.0,10,,,,,0,21,21,21,,,,,,,,,205.7861942919999,205.7861942919999,205.7861942919999,205.7861942919999,205.7861942919999,205.7861942919999,205.7861942919999,205.7861942919999,205.6855968333331,205.7861942919999,205.7861942919999,205.7861942919999,205.6855968333331,205.7861942919999,205.7861942919999,205.7861942919999,205.7861942919999,205.7861942919999,205.7861942919999,205.7861942919999,205.7861942919999,205.7861942919999,205.7861942919999,205.7861942919999,205.7861942919999,205.7861942919999,205.7861942919999,205.7355968333331,205.7861942919999,205.7861942919999,205.7861942919999,205.7355968333331,205.7861942919999,205.7861942919999,205.7861942919999,205.7861942919999,205.7861942919999,211.00166229199976,211.00166229199976,215.92630795800005,None,0,,reldom2_s019,001,2025-02-20_13h04.47.103,Aud-B-Scan_AC,2022.2.5,None,
17,Second_Order,3.0,audwhere,stimulus/audwhere_stim/right_toward_290h.wav,stimulus/audwhere_stim/right_away_290h.wav,stimulus/audwhere_stim/right_away_280h.wav,stimulus/audwhere_stim/left_away_300h.wav,stimulus/audwhat_stim/match_blank.png,stimulus/audwhat_stim/match_box.png,stimulus/audwhat_stim/match_yes.png,stimulus/audwhat_stim/match_no.png,2.0,Match,Side,Direction,2,5.125,0,5.125,0,5.125,0,5.125,0,0.75,0.75,0,0,0,0,0,0,0,0,1,0.5,1,2.125,1,0.5,1,2.125,0,,,,,0,22,22,22,,,,,,,,,215.92630795800005,221.03902691699977,215.92630795800005,215.92630795800005,215.92630795800005,215.92630795800005,216.37681158299984,217.36288183299985,216.3899598746664,,217.99845670800005,218.9968349169999,218.01070029166638,,221.03902691699977,221.88933595799972,223.93243383299978,,221.88933595799972,221.88933595799972,227.05143745799978,221.88933595799972,221.88933595799972,221.88933595799972,221.88933595799972,222.30712641699984,223.37589316699996,222.27748583366636,,223.93243383299978,225.00697241699982,223.90292495866632,,221.88933595799972,227.05143745799978,221.88933595799972,227.05143745799978,227.05143745799978,,221.88933595799972,2,1,0.8739641660004054,reldom2_s019,001,2025-02-20_13h04.47.103,Aud-B-Scan_AC,2022.2.5,None,
18,Second_Order,3.0,audwhere,stimulus/audwhere_stim/right_toward_270h.wav,stimulus/audwhere_stim/left_toward_270h.wav,stimulus/audwhere_stim/right_away_300h.wav,stimulus/audwhere_stim/left_away_280h.wav,stimulus/audwhat_stim/match_blank.png,stimulus/audwhat_stim/match_box.png,stimulus/audwhat_stim/match_yes.png,stimulus/audwhat_stim/match_no.png,1.0,Match,Direction,Direction,1,5.125,0,5.125,0,5.125,0,5.125,0,0.625,0.625,0,0,0,0,0,0,0,0,1,0.5,1,2.125,1,0.5,1,2.125,0,,,,,0,23,23,23,,,,,,,,,227.865934208,232.98379258299974,227.865934208,227.865934208,227.865934208,227.865934208,228.33507308299977,229.32353595799987,228.3350905416667,,229.94292612499976,230.94071866700006,229.95534749966671,230.9438716669997,232.98379258299974,233.71459174999973,235.79297974999963,239.8215856669999,233.71459174999973,233.71459174999973,238.895814083,233.71459174999973,233.71459174999973,233.71459174999973,233.71459174999973,234.1289053329997,235.19382320799969,234.09917633366675,,235.79297974999963,236.85956179200002,235.76342120866664,,233.71459174999973,238.895814083,233.71459174999973,238.895814083,238.895814083,239.54691716699972,233.71459174999973,1,1,0.7768810830002622,reldom2_s019,001,2025-02-20_13h04.47.103,Aud-B-Scan_AC,2022.2.5,None,
0,0.0,None,fixation,stimulus/audwhat_stim/blank_white.png,stimulus/audwhat_stim/blank_white.png,stimulus/audwhere_stim/blank_white.png,stimulus/audwhere_stim/blank_white.png,stimulus/audwhat_stim/blank_white.png,stimulus/audwhat_stim/blank_white.png,stimulus/audwhat_stim/blank_white.png,stimulus/audwhat_stim/blank_white.png,0.0,0.0,0.0,0.0,0,0.0,0,0.0,0,0.0,0,0.0,0,0.0,0.0,0,0,0,0,0,0,0,0,0,0.0,0,0.0,0,0.0,0,0.0,8,,,,,0,24,24,24,,,,,,,,,239.8215856669999,239.8215856669999,239.8215856669999,239.8215856669999,239.8215856669999,239.8215856669999,239.8215856669999,239.8215856669999,239.72107825033314,239.8215856669999,239.8215856669999,239.8215856669999,239.72107825033314,239.8215856669999,239.8215856669999,239.8215856669999,239.8215856669999,239.8215856669999,239.8215856669999,239.8215856669999,239.8215856669999,239.8215856669999,239.8215856669999,239.8215856669999,239.8215856669999,239.8215856669999,239.8215856669999,239.77107825033312,239.8215856669999,239.8215856669999,239.8215856669999,239.77107825033312,239.8215856669999,239.8215856669999,239.8215856669999,239.8215856669999,239.8215856669999,245.00436120799986,245.00436120799986,248.07341029200006,None,0,,reldom2_s019,001,2025-02-20_13h04.47.103,Aud-B-Scan_AC,2022.2.5,None,
19,First_Order,4.0,audwhere,stimulus/audwhere_stim/dummy.wav,stimulus/audwhere_stim/dummy.wav,stimulus/audwhere_stim/right_toward_280h.wav,stimulus/audwhere_stim/left_toward_280h.wav,stimulus/audwhere_stim/blank_white.png,stimulus/audwhere_stim/side_box.png,stimulus/audwhere_stim/side_yes.png,stimulus/audwhere_stim/side_no.png,None,Side,None,Direction,2,0.0,0,5.125,0,5.125,0,5.125,0,0.0,0.625,0,0,0,0,0,0,0,0,0,0.0,0,0.0,1,0.5,1,2.125,0,,,,,0,25,25,25,,,,,,,,,248.07341029200006,248.07341029200006,248.07341029200006,248.07341029200006,248.07341029200006,248.07341029200006,248.07341029200006,248.07341029200006,248.0011902086664,248.07341029200006,248.07341029200006,248.07341029200006,248.0011902086664,248.07341029200006,248.07341029200006,248.07341029200006,250.1626215829997,254.1863968749999,248.07341029200006,248.07341029200006,253.23581641700002,248.07341029200006,248.07341029200006,248.07341029200006,248.07341029200006,248.53930324999965,249.6062529169999,248.5097624586663,,250.1626215829997,251.23766479200003,250.13271629166664,,248.07341029200006,253.23581641700002,248.07341029200006,253.23581641700002,253.27707416699968,253.93248987499965,248.07341029200006,2,1,1.0480520420005632,reldom2_s019,001,2025-02-20_13h04.47.103,Aud-B-Scan_AC,2022.2.5,None,
20,First_Order,4.0,audwhere,stimulus/audwhere_stim/dummy.wav,stimulus/audwhere_stim/dummy.wav,stimulus/audwhere_stim/left_toward_290h.wav,stimulus/audwhere_stim/right_toward_270h.wav,stimulus/audwhere_stim/blank_white.png,stimulus/audwhere_stim/side_box.png,stimulus/audwhere_stim/side_yes.png,stimulus/audwhere_stim/side_no.png,None,Side,None,Direction,2,0.0,0,5.125,0,5.125,0,5.125,0,0.0,0.625,0,0,0,0,0,0,0,0,0,0.0,0,0.0,1,0.5,1,2.125,0,,,,,0,26,26,26,,,,,,,,,254.1863968749999,254.1863968749999,254.1863968749999,254.1863968749999,254.1863968749999,254.1863968749999,254.1863968749999,254.1863968749999,254.10680470833327,254.1863968749999,254.1863968749999,254.1863968749999,254.10680470833327,254.1863968749999,254.1863968749999,254.1863968749999,256.278124125,260.2980027079998,254.1863968749999,254.1863968749999,259.3503921669999,254.1863968749999,254.1863968749999,254.1863968749999,254.1863968749999,254.6526413329998,255.72131491699975,254.62263229166663,,256.278124125,257.3521613749999,256.2483509166666,,254.1863968749999,259.3503921669999,254.1863968749999,259.3503921669999,259.3909320829998,260.04530566699987,254.1863968749999,2,1,0.8643545410004663,reldom2_s019,001,2025-02-20_13h04.47.103,Aud-B-Scan_AC,2022.2.5,None,
21,First_Order,4.0,audwhere,stimulus/audwhere_stim/dummy.wav,stimulus/audwhere_stim/dummy.wav,stimulus/audwhere_stim/left_toward_270h.wav,stimulus/audwhere_stim/left_away_300h.wav,stimulus/audwhere_stim/blank_white.png,stimulus/audwhere_stim/side_box.png,stimulus/audwhere_stim/side_yes.png,stimulus/audwhere_stim/side_no.png,None,Side,None,Side,1,0.0,0,5.125,0,5.125,0,5.125,0,0.0,0.625,0,0,0,0,0,0,0,0,0,0.0,0,0.0,1,0.5,1,2.125,0,,,,,0,27,27,27,,,,,,,,,260.2980027079998,260.2980027079998,260.2980027079998,260.2980027079998,260.2980027079998,260.2980027079998,260.2980027079998,260.2980027079998,260.2190854583333,260.2980027079998,260.2980027079998,260.2980027079998,260.2190854583333,260.2980027079998,260.2980027079998,260.2980027079998,262.389199708,,260.2980027079998,260.2980027079998,265.4587777499996,260.2980027079998,260.2980027079998,260.2980027079998,260.2980027079998,260.7642327499998,261.83189724999966,260.73436020866643,,262.389199708,263.46370724999997,262.35926812466664,,260.2980027079998,265.4587777499996,260.2980027079998,265.4587777499996,265.49999016699985,266.15394720799986,260.2980027079998,1,1,0.8442757490001895,reldom2_s019,001,2025-02-20_13h04.47.103,Aud-B-Scan_AC,2022.2.5,None,
22,First_Order,4.0,audwhere,stimulus/audwhere_stim/dummy.wav,stimulus/audwhere_stim/dummy.wav,stimulus/audwhere_stim/left_away_290h.wav,stimulus/audwhere_stim/left_toward_270h.wav,stimulus/audwhere_stim/blank_white.png,stimulus/audwhere_stim/side_box.png,stimulus/audwhere_stim/side_yes.png,stimulus/audwhere_stim/side_no.png,None,Side,None,Side,1,0.0,0,5.125,0,5.125,0,5.125,0,0.0,0.625,0,0,0,0,0,0,0,0,0,0.0,0,0.0,1,0.5,1,2.125,0,,,,,0,28,28,28,,,,,,,,,266.408330667,266.408330667,266.408330667,266.408330667,266.408330667,266.408330667,266.408330667,266.408330667,266.3278519163333,266.408330667,266.408330667,266.408330667,266.3278519163333,266.408330667,266.408330667,266.408330667,268.500339833,272.54160720799973,266.408330667,266.408330667,271.57126120799967,266.408330667,266.408330667,266.408330667,266.408330667,266.87446158299963,267.94192533299974,266.84425299966665,,268.500339833,269.573176375,268.47012045866654,,266.408330667,271.57126120799967,266.408330667,271.57126120799967,271.6123662079999,272.26704870799995,266.408330667,1,1,0.9004432080000697,reldom2_s019,001,2025-02-20_13h04.47.103,Aud-B-Scan_AC,2022.2.5,None,
0,0.0,None,fixation,stimulus/audwhat_stim/blank_white.png,stimulus/audwhat_stim/blank_white.png,stimulus/audwhere_stim/blank_white.png,stimulus/audwhere_stim/blank_white.png,stimulus/audwhat_stim/blank_white.png,stimulus/audwhat_stim/blank_white.png,stimulus/audwhat_stim/blank_white.png,stimulus/audwhat_stim/blank_white.png,0.0,0.0,0.0,0.0,0,0.0,0,0.0,0,0.0,0,0.0,0,0.0,0.0,0,0,0,0,0,0,0,0,0,0.0,0,0.0,0,0.0,0,0.0,10,,,,,0,29,29,29,,,,,,,,,272.54160720799973,272.54160720799973,272.54160720799973,272.54160720799973,272.54160720799973,272.54160720799973,272.54160720799973,272.54160720799973,272.440659333333,272.54160720799973,272.54160720799973,272.54160720799973,272.440659333333,272.54160720799973,272.54160720799973,272.54160720799973,272.54160720799973,272.54160720799973,272.54160720799973,272.54160720799973,272.54160720799973,272.54160720799973,272.54160720799973,272.54160720799973,272.54160720799973,272.54160720799973,272.54160720799973,272.490659333333,272.54160720799973,272.54160720799973,272.54160720799973,272.490659333333,272.54160720799973,272.54160720799973,272.54160720799973,272.54160720799973,272.54160720799973,277.748375917,277.748375917,282.6717113329996,None,0,,reldom2_s019,001,2025-02-20_13h04.47.103,Aud-B-Scan_AC,2022.2.5,None,
23,Second_Order,4.0,audwhere,stimulus/audwhere_stim/right_toward_300h.wav,stimulus/audwhere_stim/left_toward_270h.wav,stimulus/audwhere_stim/left_away_300h.wav,stimulus/audwhere_stim/right_away_300h.wav,stimulus/audwhat_stim/match_blank.png,stimulus/audwhat_stim/match_box.png,stimulus/audwhat_stim/match_yes.png,stimulus/audwhat_stim/match_no.png,1.0,Match,Direction,Direction,1,5.125,0,5.125,0,5.125,0,5.125,0,0.75,0.75,0,0,0,0,0,0,0,0,1,0.5,1,2.125,1,0.5,1,2.125,0,,,,,0,30,30,30,,,,,,,,,282.6717113329996,287.793519542,282.6717113329996,282.6717113329996,282.6717113329996,282.6717113329996,283.128017042,284.11725183299995,283.13182579166664,,284.75407616699977,285.751188875,284.7653782916666,,287.793519542,288.6409346669998,290.68784616699986,,288.6409346669998,288.6409346669998,293.8055422499997,288.6409346669998,288.6409346669998,288.6409346669998,288.6409346669998,289.0599833749998,290.1286660419996,289.02974724966657,,290.68784616699986,291.76220933299965,290.6579510836666,,288.6409346669998,293.8055422499997,288.6409346669998,293.8055422499997,293.8055422499997,,288.6409346669998,1,1,0.6690242080003372,reldom2_s019,001,2025-02-20_13h04.47.103,Aud-B-Scan_AC,2022.2.5,None,
24,Second_Order,4.0,audwhere,stimulus/audwhere_stim/right_toward_300h.wav,stimulus/audwhere_stim/left_toward_300h.wav,stimulus/audwhere_stim/left_away_290h.wav,stimulus/audwhere_stim/right_away_280h.wav,stimulus/audwhat_stim/match_blank.png,stimulus/audwhat_stim/match_box.png,stimulus/audwhat_stim/match_yes.png,stimulus/audwhat_stim/match_no.png,1.0,Match,Direction,Direction,1,5.125,0,5.125,0,5.125,0,5.125,0,0.625,0.625,0,0,0,0,0,0,0,0,1,0.5,1,2.125,1,0.5,1,2.125,0,,,,,0,31,31,31,,,,,,,,,294.6214047919998,299.7382940419998,294.6214047919998,294.6214047919998,294.6214047919998,294.6214047919998,295.07640825,296.07497429199975,295.0891322496666,,296.6972539999997,297.6953291669997,296.70961445866646,,299.7382940419998,300.47055733299976,302.50876845799985,,300.47055733299976,300.47055733299976,305.66165566699965,300.47055733299976,300.47055733299976,300.47055733299976,300.47055733299976,300.8868983749999,301.95212108299984,300.8570797496666,,302.50876845799985,303.57911749999994,302.4786911246663,,300.47055733299976,305.66165566699965,300.47055733299976,305.66165566699965,305.66165566699965,306.31575833299985,300.47055733299976,1,1,0.5498545000004924,reldom2_s019,001,2025-02-20_13h04.47.103,Aud-B-Scan_AC,2022.2.5,None,
0,0.0,None,fixation,stimulus/audwhat_stim/blank_white.png,stimulus/audwhat_stim/blank_white.png,stimulus/audwhere_stim/blank_white.png,stimulus/audwhere_stim/blank_white.png,stimulus/audwhat_stim/blank_white.png,stimulus/audwhat_stim/blank_white.png,stimulus/audwhat_stim/blank_white.png,stimulus/audwhat_stim/blank_white.png,0.0,0.0,0.0,0.0,0,0.0,0,0.0,0,0.0,0,0.0,0,0.0,0.0,0,0,0,0,0,0,0,0,0,0.0,0,0.0,0,0.0,0,0.0,9,,,,,0,32,32,32,,,,,,,,,306.5509931249999,306.5509931249999,306.5509931249999,306.5509931249999,306.5509931249999,306.5509931249999,306.5509931249999,306.5509931249999,306.4490916663332,306.5509931249999,306.5509931249999,306.5509931249999,306.4490916663332,306.5509931249999,306.5509931249999,306.5509931249999,306.5509931249999,306.5509931249999,306.5509931249999,306.5509931249999,306.5509931249999,306.5509931249999,306.5509931249999,306.5509931249999,306.5509931249999,306.5509931249999,306.5509931249999,306.4990916663332,306.5509931249999,306.5509931249999,306.5509931249999,306.4990916663332,306.5509931249999,306.5509931249999,306.5509931249999,306.5509931249999,306.5509931249999,311.74383220799973,311.74383220799973,315.78446879199964,None,0,,reldom2_s019,001,2025-02-20_13h04.47.103,Aud-B-Scan_AC,2022.2.5,None,
25,First_Order,5.0,audwhat,stimulus/audwhat_stim/dummy.wav,stimulus/audwhat_stim/dummy.wav,stimulus/audwhat_stim/percussion xylophone_high-pitch_Ftri_loud.wav,stimulus/audwhat_stim/percussion mallet_low-pitch_F_loud.wav,stimulus/audwhat_stim/blank_white.png,stimulus/audwhat_stim/pitch_box.png,stimulus/audwhat_stim/pitch_yes.png,stimulus/audwhat_stim/pitch_no.png,None,Pitch,None,Category,2,0.0,0,5.125,0,5.125,0,5.125,0,0.0,0.625,0,0,0,0,0,0,0,0,0,0.0,0,0.0,1,0.5,1,2.125,0,,,,,0,33,33,33,,,,,,,,,315.78446879199964,315.78446879199964,315.78446879199964,315.78446879199964,315.78446879199964,315.78446879199964,315.78446879199964,315.78446879199964,315.7112096246666,315.78446879199964,315.78446879199964,315.78446879199964,315.7112096246666,315.78446879199964,315.78446879199964,315.78446879199964,317.87814608300005,321.8994204579999,315.78446879199964,315.78446879199964,320.94949341699976,315.78446879199964,315.78446879199964,315.78446879199964,315.78446879199964,316.25053308299994,317.3209194169999,316.2203318746663,317.2746632499998,317.87814608300005,318.9539703329997,317.84800858366657,,315.78446879199964,320.94949341699976,315.78446879199964,320.94949341699976,320.9907600419997,321.6455110419997,315.78446879199964,2,1,0.8350081660005344,reldom2_s019,001,2025-02-20_13h04.47.103,Aud-B-Scan_AC,2022.2.5,None,
26,First_Order,5.0,audwhat,stimulus/audwhat_stim/dummy.wav,stimulus/audwhat_stim/dummy.wav,stimulus/audwhat_stim/percussion mallet_low-pitch_Dtri_loud.wav,stimulus/audwhat_stim/percussion xylophone_high-pitch_Ftri_loud.wav,stimulus/audwhat_stim/blank_white.png,stimulus/audwhat_stim/category_box.png,stimulus/audwhat_stim/category_yes.png,stimulus/audwhat_stim/category_no.png,None,Category,None,Category,1,0.0,0,5.125,0,5.125,0,5.125,0,0.0,0.625,0,0,0,0,0,0,0,0,0,0.0,0,0.0,1,0.5,1,2.125,0,,,,,0,34,34,34,,,,,,,,,321.8994204579999,321.8994204579999,321.8994204579999,321.8994204579999,321.8994204579999,321.8994204579999,321.8994204579999,321.8994204579999,321.8196109583333,321.8994204579999,321.8994204579999,321.8994204579999,321.8196109583333,321.8994204579999,321.8994204579999,321.8994204579999,324.00214237499995,,321.8994204579999,321.8994204579999,327.090128458,321.8994204579999,321.8994204579999,321.8994204579999,321.8994204579999,322.3671536669999,323.44234012499965,322.33667599966634,,324.00214237499995,325.0354750419997,323.9719853336667,325.0354750419997,321.8994204579999,327.090128458,321.8994204579999,327.090128458,327.090128458,327.74830266699973,321.8994204579999,1,1,0.6507862910002586,reldom2_s019,001,2025-02-20_13h04.47.103,Aud-B-Scan_AC,2022.2.5,None,
27,First_Order,5.0,audwhat,stimulus/audwhat_stim/dummy.wav,stimulus/audwhat_stim/dummy.wav,stimulus/audwhat_stim/string cello_low-pitch_Dtri_loud.wav,stimulus/audwhat_stim/percussion mallet_low-pitch_Dtri_loud.wav,stimulus/audwhat_stim/blank_white.png,stimulus/audwhat_stim/pitch_box.png,stimulus/audwhat_stim/pitch_yes.png,stimulus/audwhat_stim/pitch_no.png,None,Pitch,None,Pitch,1,0.0,0,5.125,0,5.125,0,5.125,0,0.0,0.625,0,0,0,0,0,0,0,0,0,0.0,0,0.0,1,0.5,1,2.125,0,,,,,0,35,35,35,,,,,,,,,328.00256791699985,328.00256791699985,328.00256791699985,328.00256791699985,328.00256791699985,328.00256791699985,328.00256791699985,328.00256791699985,327.922005250333,328.00256791699985,328.00256791699985,328.00256791699985,327.922005250333,328.00256791699985,328.00256791699985,328.00256791699985,330.09779445799995,334.1273155829999,328.00256791699985,328.00256791699985,333.17480995799997,328.00256791699985,328.00256791699985,328.00256791699985,328.00256791699985,328.46922770799983,329.53968879199965,328.4387486666667,,330.09779445799995,331.12730858299983,330.06781912466636,,328.00256791699985,333.17480995799997,328.00256791699985,333.17480995799997,333.216111833,333.87253462499984,328.00256791699985,1,1,0.5673536660001446,reldom2_s019,001,2025-02-20_13h04.47.103,Aud-B-Scan_AC,2022.2.5,None,
28,First_Order,5.0,audwhat,stimulus/audwhat_stim/dummy.wav,stimulus/audwhat_stim/dummy.wav,stimulus/audwhat_stim/percussion xylophone_high-pitch_Ftri_loud.wav,stimulus/audwhat_stim/percussion mallet_low-pitch_F_loud.wav,stimulus/audwhat_stim/blank_white.png,stimulus/audwhat_stim/category_box.png,stimulus/audwhat_stim/category_yes.png,stimulus/audwhat_stim/category_no.png,None,Category,None,Category,1,0.0,0,5.125,0,5.125,0,5.125,0,0.0,0.625,0,0,0,0,0,0,0,0,0,0.0,0,0.0,1,0.5,1,2.125,0,,,,,0,36,36,36,,,,,,,,,334.1273155829999,334.1273155829999,334.1273155829999,334.1273155829999,334.1273155829999,334.1273155829999,334.1273155829999,334.1273155829999,334.04669779133303,334.1273155829999,334.1273155829999,334.1273155829999,334.04669779133303,334.1273155829999,334.1273155829999,334.1273155829999,336.23649266699977,,334.1273155829999,334.1273155829999,339.27954150000005,334.1273155829999,334.1273155829999,334.1273155829999,334.1273155829999,334.5980841669998,335.629185583,334.56777974966667,335.629185583,336.23649266699977,337.2712177499998,336.2061596246665,,334.1273155829999,339.27954150000005,334.1273155829999,339.27954150000005,339.32061799999974,339.9782476669998,334.1273155829999,1,1,0.6762754990004396,reldom2_s019,001,2025-02-20_13h04.47.103,Aud-B-Scan_AC,2022.2.5,None,
0,0.0,None,fixation,stimulus/audwhat_stim/blank_white.png,stimulus/audwhat_stim/blank_white.png,stimulus/audwhere_stim/blank_white.png,stimulus/audwhere_stim/blank_white.png,stimulus/audwhat_stim/blank_white.png,stimulus/audwhat_stim/blank_white.png,stimulus/audwhat_stim/blank_white.png,stimulus/audwhat_stim/blank_white.png,0.0,0.0,0.0,0.0,0,0.0,0,0.0,0,0.0,0,0.0,0,0.0,0.0,0,0,0,0,0,0,0,0,0,0.0,0,0.0,0,0.0,0,0.0,8,,,,,0,37,37,37,,,,,,,,,340.2533028749999,340.2533028749999,340.2533028749999,340.2533028749999,340.2533028749999,340.2533028749999,340.2533028749999,340.2533028749999,340.1525431253332,340.2533028749999,340.2533028749999,340.2533028749999,340.1525431253332,340.2533028749999,340.2533028749999,340.2533028749999,340.2533028749999,340.2533028749999,340.2533028749999,340.2533028749999,340.2533028749999,340.2533028749999,340.2533028749999,340.2533028749999,340.2533028749999,340.2533028749999,340.2533028749999,340.2025431253332,340.2533028749999,340.2533028749999,340.2533028749999,340.2025431253332,340.2533028749999,340.2533028749999,340.2533028749999,340.2533028749999,340.2533028749999,345.4768846669999,345.4768846669999,348.4172075419997,None,0,,reldom2_s019,001,2025-02-20_13h04.47.103,Aud-B-Scan_AC,2022.2.5,None,
29,Second_Order,5.0,audwhat,stimulus/audwhat_stim/string viola_low-pitch_Dtri_loud.wav,stimulus/audwhat_stim/percussion mallet_low-pitch_Dtri_loud.wav,stimulus/audwhat_stim/string viola_low-pitch_Dtri_loud.wav,stimulus/audwhat_stim/string cello_high-pitch_Ftri_loud.wav,stimulus/audwhat_stim/match_blank.png,stimulus/audwhat_stim/match_box.png,stimulus/audwhat_stim/match_yes.png,stimulus/audwhat_stim/match_no.png,2.0,Match,Pitch,Category,2,5.125,0,5.125,0,5.125,0,5.125,0,0.75,0.75,0,0,0,0,0,0,0,0,1,0.5,1,2.125,1,0.5,1,2.125,0,,,,,0,38,38,38,,,,,,,,,348.4172075419997,353.5406594169999,348.4172075419997,348.4172075419997,348.4172075419997,348.4172075419997,348.8653084580001,349.85234679199993,348.87966716666665,,350.4880802919997,351.486166917,350.5004709586667,,353.5406594169999,354.3953339169998,356.44442520799976,,354.3953339169998,354.3953339169998,359.56246570799976,354.3953339169998,354.3953339169998,354.3953339169998,354.3953339169998,354.814899125,355.88373020799963,354.7848103746667,,356.44442520799976,357.5173319579999,356.4125314166665,,354.3953339169998,359.56246570799976,354.3953339169998,359.56246570799976,359.56246570799976,,354.3953339169998,2,1,0.9966409580006257,reldom2_s019,001,2025-02-20_13h04.47.103,Aud-B-Scan_AC,2022.2.5,None,
30,Second_Order,5.0,audwhat,stimulus/audwhat_stim/string viola_high-pitch_Ftri_loud.wav,stimulus/audwhat_stim/percussion xylophone_high-pitch_Ftri_loud.wav,stimulus/audwhat_stim/string viola_low-pitch_D_loud.wav,stimulus/audwhat_stim/percussion mallet_low-pitch_D_loud.wav,stimulus/audwhat_stim/match_blank.png,stimulus/audwhat_stim/match_box.png,stimulus/audwhat_stim/match_yes.png,stimulus/audwhat_stim/match_no.png,1.0,Match,Pitch,Pitch,1,5.125,0,5.125,0,5.125,0,5.125,0,0.625,0.625,0,0,0,0,0,0,0,0,1,0.5,1,2.125,1,0.5,1,2.125,0,,,,,0,39,39,39,,,,,,,,,360.37720999999965,365.4893632919998,360.37720999999965,360.37720999999965,360.37720999999965,360.37720999999965,360.82873816699976,361.82652774999997,360.8416130836665,,362.46117183299975,363.4517499999997,362.46734420866665,363.46373970800005,365.4893632919998,366.2186460419998,368.3038191249998,,366.2186460419998,366.2186460419998,371.370835833,366.2186460419998,366.2186460419998,366.2186460419998,366.2186460419998,366.6372074169999,367.701290167,366.6076144166666,,368.3038191249998,369.376726083,368.27401749966634,,366.2186460419998,371.370835833,366.2186460419998,371.370835833,371.412039458,372.067772333,366.2186460419998,1,1,0.47336704100052884,reldom2_s019,001,2025-02-20_13h04.47.103,Aud-B-Scan_AC,2022.2.5,None,
0,0.0,None,fixation,stimulus/audwhat_stim/blank_white.png,stimulus/audwhat_stim/blank_white.png,stimulus/audwhere_stim/blank_white.png,stimulus/audwhere_stim/blank_white.png,stimulus/audwhat_stim/blank_white.png,stimulus/audwhat_stim/blank_white.png,stimulus/audwhat_stim/blank_white.png,stimulus/audwhat_stim/blank_white.png,0.0,0.0,0.0,0.0,0,0.0,0,0.0,0,0.0,0,0.0,0,0.0,0.0,0,0,0,0,0,0,0,0,0,0.0,0,0.0,0,0.0,0,0.0,9,,,,,0,40,40,40,,,,,,,,,372.3012262499997,372.3012262499997,372.3012262499997,372.3012262499997,372.3012262499997,372.3012262499997,372.3012262499997,372.3012262499997,372.2011056663333,372.3012262499997,372.3012262499997,372.3012262499997,372.2011056663333,372.3012262499997,372.3012262499997,372.3012262499997,372.3012262499997,372.3012262499997,372.3012262499997,372.3012262499997,372.3012262499997,372.3012262499997,372.3012262499997,372.3012262499997,372.3012262499997,372.3012262499997,372.3012262499997,372.25110566633333,372.3012262499997,372.3012262499997,372.3012262499997,372.25110566633333,372.3012262499997,372.3012262499997,372.3012262499997,372.3012262499997,372.3012262499997,377.4955554999997,377.4955554999997,381.53482770799974,None,0,,reldom2_s019,001,2025-02-20_13h04.47.103,Aud-B-Scan_AC,2022.2.5,None,
31,First_Order,6.0,audwhat,stimulus/audwhat_stim/dummy.wav,stimulus/audwhat_stim/dummy.wav,stimulus/audwhat_stim/string viola_low-pitch_D_loud.wav,stimulus/audwhat_stim/percussion mallet_low-pitch_D_loud.wav,stimulus/audwhat_stim/blank_white.png,stimulus/audwhat_stim/category_box.png,stimulus/audwhat_stim/category_yes.png,stimulus/audwhat_stim/category_no.png,None,Category,None,Pitch,2,0.0,0,5.125,0,5.125,0,5.125,0,0.0,0.625,0,0,0,0,0,0,0,0,0,0.0,0,0.0,1,0.5,1,2.125,0,,,,,0,41,41,41,,,,,,,,,381.53482770799974,381.53482770799974,381.53482770799974,381.53482770799974,381.53482770799974,381.53482770799974,381.53482770799974,381.53482770799974,381.4622267916667,381.53482770799974,381.53482770799974,381.53482770799974,381.4622267916667,381.53482770799974,381.53482770799974,381.53482770799974,383.63916979199985,,381.53482770799974,381.53482770799974,386.7218633329999,381.53482770799974,381.53482770799974,381.53482770799974,381.53482770799974,382.0025513749997,383.0313920419999,381.97230541666636,,383.63916979199985,384.6710143329997,383.60849141666654,,381.53482770799974,386.7218633329999,381.53482770799974,386.7218633329999,386.762976,387.419895042,381.53482770799974,2,1,0.7397547080004188,reldom2_s019,001,2025-02-20_13h04.47.103,Aud-B-Scan_AC,2022.2.5,None,
32,First_Order,6.0,audwhat,stimulus/audwhat_stim/dummy.wav,stimulus/audwhat_stim/dummy.wav,stimulus/audwhat_stim/percussion mallet_high-pitch_Dtri_loud.wav,stimulus/audwhat_stim/string viola_high-pitch_Dtri_loud.wav,stimulus/audwhat_stim/blank_white.png,stimulus/audwhat_stim/pitch_box.png,stimulus/audwhat_stim/pitch_yes.png,stimulus/audwhat_stim/pitch_no.png,None,Pitch,None,Pitch,1,0.0,0,5.125,0,5.125,0,5.125,0,0.0,0.625,0,0,0,0,0,0,0,0,0,0.0,0,0.0,1,0.5,1,2.125,0,,,,,0,42,42,42,,,,,,,,,387.63383891700005,387.63383891700005,387.63383891700005,387.63383891700005,387.63383891700005,387.63383891700005,387.63383891700005,387.63383891700005,387.55322837533333,387.63383891700005,387.63383891700005,387.63383891700005,387.55322837533333,387.63383891700005,387.63383891700005,387.63383891700005,389.72988204199964,393.75363312499985,387.63383891700005,387.63383891700005,392.80355800000007,387.63383891700005,387.63383891700005,387.63383891700005,387.63383891700005,388.09914387499975,389.17067933299995,388.0690564166664,,389.72988204199964,390.80505545799997,389.6994943336665,,387.63383891700005,392.80355800000007,387.63383891700005,392.80355800000007,392.8448995829999,393.4999029579999,387.63383891700005,1,1,0.42701641600069706,reldom2_s019,001,2025-02-20_13h04.47.103,Aud-B-Scan_AC,2022.2.5,None,
33,First_Order,6.0,audwhat,stimulus/audwhat_stim/dummy.wav,stimulus/audwhat_stim/dummy.wav,stimulus/audwhat_stim/string cello_high-pitch_D_loud.wav,stimulus/audwhat_stim/string viola_low-pitch_F_loud.wav,stimulus/audwhat_stim/blank_white.png,stimulus/audwhat_stim/pitch_box.png,stimulus/audwhat_stim/pitch_yes.png,stimulus/audwhat_stim/pitch_no.png,None,Pitch,None,Category,2,0.0,0,5.125,0,5.125,0,5.125,0,0.0,0.625,0,0,0,0,0,0,0,0,0,0.0,0,0.0,1,0.5,1,2.125,0,,,,,0,43,43,43,,,,,,,,,393.75363312499985,393.75363312499985,393.75363312499985,393.75363312499985,393.75363312499985,393.75363312499985,393.75363312499985,393.75363312499985,393.67404320833305,393.75363312499985,393.75363312499985,393.75363312499985,393.67404320833305,393.75363312499985,393.75363312499985,393.75363312499985,395.8474854169999,399.87360191699963,393.75363312499985,393.75363312499985,398.92082574999995,393.75363312499985,393.75363312499985,393.75363312499985,393.75363312499985,394.21857520799995,395.289320333,394.1885627086665,,395.8474854169999,396.9197624169997,395.81739920866653,,393.75363312499985,398.92082574999995,393.75363312499985,398.92082574999995,398.9623339579998,399.6184251249997,393.75363312499985,2,1,1.1058879160004835,reldom2_s019,001,2025-02-20_13h04.47.103,Aud-B-Scan_AC,2022.2.5,None,
34,First_Order,6.0,audwhat,stimulus/audwhat_stim/dummy.wav,stimulus/audwhat_stim/dummy.wav,stimulus/audwhat_stim/percussion mallet_low-pitch_F_loud.wav,stimulus/audwhat_stim/string viola_low-pitch_F_loud.wav,stimulus/audwhat_stim/blank_white.png,stimulus/audwhat_stim/category_box.png,stimulus/audwhat_stim/category_yes.png,stimulus/audwhat_stim/category_no.png,None,Category,None,Pitch,2,0.0,0,5.125,0,5.125,0,5.125,0,0.0,0.625,0,0,0,0,0,0,0,0,0,0.0,0,0.0,1,0.5,1,2.125,0,,,,,0,44,44,44,,,,,,,,,399.87360191699963,399.87360191699963,399.87360191699963,399.87360191699963,399.87360191699963,399.87360191699963,399.87360191699963,399.87360191699963,399.7928194163334,399.87360191699963,399.87360191699963,399.87360191699963,399.7928194163334,399.87360191699963,399.87360191699963,399.87360191699963,401.980549292,,399.87360191699963,399.87360191699963,405.02334374999964,399.87360191699963,399.87360191699963,399.87360191699963,399.87360191699963,400.34174379199976,401.37288991700007,400.31141066666646,,401.980549292,403.01532599999973,401.95070745866656,,399.87360191699963,405.02334374999964,399.87360191699963,405.02334374999964,405.0649479169997,405.7217406249997,399.87360191699963,2,1,0.5788695420001204,reldom2_s019,001,2025-02-20_13h04.47.103,Aud-B-Scan_AC,2022.2.5,None,
0,0.0,None,fixation,stimulus/audwhat_stim/blank_white.png,stimulus/audwhat_stim/blank_white.png,stimulus/audwhere_stim/blank_white.png,stimulus/audwhere_stim/blank_white.png,stimulus/audwhat_stim/blank_white.png,stimulus/audwhat_stim/blank_white.png,stimulus/audwhat_stim/blank_white.png,stimulus/audwhat_stim/blank_white.png,0.0,0.0,0.0,0.0,0,0.0,0,0.0,0,0.0,0,0.0,0,0.0,0.0,0,0,0,0,0,0,0,0,0,0.0,0,0.0,0,0.0,0,0.0,9,,,,,0,45,45,45,,,,,,,,,405.998161083,405.998161083,405.998161083,405.998161083,405.998161083,405.998161083,405.998161083,405.998161083,405.89622754133336,405.998161083,405.998161083,405.998161083,405.89622754133336,405.998161083,405.998161083,405.998161083,405.998161083,405.998161083,405.998161083,405.998161083,405.998161083,405.998161083,405.998161083,405.998161083,405.998161083,405.998161083,405.998161083,405.94622754133337,405.998161083,405.998161083,405.998161083,405.94622754133337,405.998161083,405.998161083,405.998161083,405.998161083,405.998161083,411.21392379200006,411.21392379200006,415.17219483300005,None,0,,reldom2_s019,001,2025-02-20_13h04.47.103,Aud-B-Scan_AC,2022.2.5,None,
35,Second_Order,6.0,audwhat,stimulus/audwhat_stim/string cello_low-pitch_D_loud.wav,stimulus/audwhat_stim/percussion mallet_low-pitch_D_loud.wav,stimulus/audwhat_stim/percussion mallet_low-pitch_D_loud.wav,stimulus/audwhat_stim/percussion xylophone_high-pitch_Ftri_loud.wav,stimulus/audwhat_stim/match_blank.png,stimulus/audwhat_stim/match_box.png,stimulus/audwhat_stim/match_yes.png,stimulus/audwhat_stim/match_no.png,2.0,Match,Pitch,Category,2,5.125,0,5.125,0,5.125,0,5.125,0,0.75,0.75,0,0,0,0,0,0,0,0,1,0.5,1,2.125,1,0.5,1,2.125,0,,,,,0,46,46,46,,,,,,,,,415.17219483300005,420.2952970419997,415.17219483300005,415.17219483300005,415.17219483300005,415.17219483300005,415.6195712499998,416.60625708299995,415.6337784166665,,417.255030542,418.24502104199973,417.2589269996663,,420.2952970419997,421.1476387079997,423.19423708299973,,421.1476387079997,421.1476387079997,426.31416183300007,421.1476387079997,421.1476387079997,421.1476387079997,421.1476387079997,421.56523608299995,422.636107625,421.53533658366655,,423.19423708299973,424.26521645799994,423.1638413746666,424.2184911669997,421.1476387079997,426.31416183300007,421.1476387079997,426.31416183300007,426.31416183300007,,421.1476387079997,2,1,1.5482737500005896,reldom2_s019,001,2025-02-20_13h04.47.103,Aud-B-Scan_AC,2022.2.5,None,
36,Second_Order,6.0,audwhat,stimulus/audwhat_stim/string cello_low-pitch_Dtri_loud.wav,stimulus/audwhat_stim/percussion mallet_low-pitch_Dtri_loud.wav,stimulus/audwhat_stim/string viola_high-pitch_F_loud.wav,stimulus/audwhat_stim/percussion xylophone_high-pitch_F_loud.wav,stimulus/audwhat_stim/match_blank.png,stimulus/audwhat_stim/match_box.png,stimulus/audwhat_stim/match_yes.png,stimulus/audwhat_stim/match_no.png,1.0,Match,Pitch,Pitch,1,5.125,0,5.125,0,5.125,0,5.125,0,0.625,0.625,0,0,0,0,0,0,0,0,1,0.5,1,2.125,1,0.5,1,2.125,0,,,,,0,47,47,47,,,,,,,,,427.1294924169997,432.243301083,427.1294924169997,427.1294924169997,427.1294924169997,427.1294924169997,427.58010695799976,428.56712979199983,427.59490762466635,,429.2026062499999,430.20132395799965,429.21536358366643,,432.243301083,432.975704167,435.01505675,,432.975704167,432.975704167,438.12689570799967,432.975704167,432.975704167,432.975704167,432.975704167,433.3928904999998,434.45862554199994,433.3631584586667,,435.01505675,436.08817420800005,434.9851122916664,436.04187645799993,432.975704167,438.12689570799967,432.975704167,438.12689570799967,438.16794716699997,438.82016887500004,432.975704167,1,1,0.32753370800037374,reldom2_s019,001,2025-02-20_13h04.47.103,Aud-B-Scan_AC,2022.2.5,None,
0,0.0,None,fixation,stimulus/audwhat_stim/blank_white.png,stimulus/audwhat_stim/blank_white.png,stimulus/audwhere_stim/blank_white.png,stimulus/audwhere_stim/blank_white.png,stimulus/audwhat_stim/blank_white.png,stimulus/audwhat_stim/blank_white.png,stimulus/audwhat_stim/blank_white.png,stimulus/audwhat_stim/blank_white.png,0.0,0.0,0.0,0.0,0,0.0,0,0.0,0,0.0,0,0.0,0,0.0,0.0,0,0,0,0,0,0,0,0,0,0.0,0,0.0,0,0.0,0,0.0,10,,,,,0,48,48,48,,,,,,,,,439.05411374999994,439.05411374999994,439.05411374999994,439.05411374999994,439.05411374999994,439.05411374999994,439.05411374999994,439.05411374999994,438.95350220833336,439.05411374999994,439.05411374999994,439.05411374999994,438.95350220833336,439.05411374999994,439.05411374999994,439.05411374999994,439.05411374999994,439.05411374999994,439.05411374999994,439.05411374999994,439.05411374999994,439.05411374999994,439.05411374999994,439.05411374999994,439.05411374999994,439.05411374999994,439.05411374999994,439.0035022083334,439.05411374999994,439.05411374999994,439.05411374999994,439.0035022083334,439.05411374999994,439.05411374999994,439.05411374999994,439.05411374999994,439.05411374999994,444.2460733749999,444.2460733749999,449.31141283299985,None,0,,reldom2_s019,001,2025-02-20_13h04.47.103,Aud-B-Scan_AC,2022.2.5,None,
37,First_Order,7.0,audwhere,stimulus/audwhere_stim/dummy.wav,stimulus/audwhere_stim/dummy.wav,stimulus/audwhere_stim/right_toward_300h.wav,stimulus/audwhere_stim/left_toward_290h.wav,stimulus/audwhere_stim/blank_white.png,stimulus/audwhere_stim/direction_box.png,stimulus/audwhere_stim/direction_yes.png,stimulus/audwhere_stim/direction_no.png,None,Direction,None,Direction,1,0.0,0,5.125,0,5.125,0,5.125,0,0.0,0.625,0,0,0,0,0,0,0,0,0,0.0,0,0.0,1,0.5,1,2.125,0,,,,,0,49,49,49,,,,,,,,,449.31141283299985,449.31141283299985,449.31141283299985,449.31141283299985,449.31141283299985,449.31141283299985,449.31141283299985,449.31141283299985,449.2385336666663,449.31141283299985,449.31141283299985,449.31141283299985,449.2385336666663,449.31141283299985,449.31141283299985,449.31141283299985,451.41788104199986,,449.31141283299985,449.31141283299985,454.49338791699984,449.31141283299985,449.31141283299985,449.31141283299985,449.31141283299985,449.7804901249997,450.8099600829996,449.75042720866645,,451.41788104199986,452.45134445799977,451.3874706246663,,449.31141283299985,454.49338791699984,449.31141283299985,454.49338791699984,454.535063583,455.19659820800007,449.31141283299985,1,1,0.8491051240002889,reldom2_s019,001,2025-02-20_13h04.47.103,Aud-B-Scan_AC,2022.2.5,None,
38,First_Order,7.0,audwhere,stimulus/audwhere_stim/dummy.wav,stimulus/audwhere_stim/dummy.wav,stimulus/audwhere_stim/right_toward_290h.wav,stimulus/audwhere_stim/right_away_270h.wav,stimulus/audwhere_stim/blank_white.png,stimulus/audwhere_stim/side_box.png,stimulus/audwhere_stim/side_yes.png,stimulus/audwhere_stim/side_no.png,None,Side,None,Side,1,0.0,0,5.125,0,5.125,0,5.125,0,0.0,0.625,0,0,0,0,0,0,0,0,0,0.0,0,0.0,1,0.5,1,2.125,0,,,,,0,50,50,50,,,,,,,,,455.4097929999998,455.4097929999998,455.4097929999998,455.4097929999998,455.4097929999998,455.4097929999998,455.4097929999998,455.4097929999998,455.3299315413334,455.4097929999998,455.4097929999998,455.4097929999998,455.3299315413334,455.4097929999998,455.4097929999998,455.4097929999998,457.4850220829999,,455.4097929999998,455.4097929999998,460.58254608299967,455.4097929999998,455.4097929999998,455.4097929999998,455.4097929999998,455.8759353749997,456.92496062500004,455.8457708336666,,457.4850220829999,458.51448916699974,457.4545882916666,,455.4097929999998,460.58254608299967,455.4097929999998,460.58254608299967,460.62381770799993,461.3061430419998,455.4097929999998,1,1,0.5468749160004336,reldom2_s019,001,2025-02-20_13h04.47.103,Aud-B-Scan_AC,2022.2.5,None,
39,First_Order,7.0,audwhere,stimulus/audwhere_stim/dummy.wav,stimulus/audwhere_stim/dummy.wav,stimulus/audwhere_stim/left_away_290h.wav,stimulus/audwhere_stim/left_toward_290h.wav,stimulus/audwhere_stim/blank_white.png,stimulus/audwhere_stim/direction_box.png,stimulus/audwhere_stim/direction_yes.png,stimulus/audwhere_stim/direction_no.png,None,Direction,None,Side,2,0.0,0,5.125,0,5.125,0,5.125,0,0.0,0.625,0,0,0,0,0,0,0,0,0,0.0,0,0.0,1,0.5,1,2.125,0,,,,,0,51,51,51,,,,,,,,,461.5204450829997,461.5204450829997,461.5204450829997,461.5204450829997,461.5204450829997,461.5204450829997,461.5204450829997,461.5204450829997,461.43947637533313,461.5204450829997,461.5204450829997,461.5204450829997,461.43947637533313,461.5204450829997,461.5204450829997,461.5204450829997,463.63319299999966,467.63600533299996,461.5204450829997,461.5204450829997,466.6830797919997,461.5204450829997,461.5204450829997,461.5204450829997,461.5204450829997,461.99914316700006,463.06852787499975,461.96725558366666,,463.63319299999966,464.67020550000007,463.6025049586667,,461.5204450829997,466.6830797919997,461.5204450829997,466.6830797919997,466.72418958299977,467.3815737499999,461.5204450829997,2,1,0.78646712400041,reldom2_s019,001,2025-02-20_13h04.47.103,Aud-B-Scan_AC,2022.2.5,None,
40,First_Order,7.0,audwhere,stimulus/audwhere_stim/dummy.wav,stimulus/audwhere_stim/dummy.wav,stimulus/audwhere_stim/right_away_280h.wav,stimulus/audwhere_stim/right_toward_290h.wav,stimulus/audwhere_stim/blank_white.png,stimulus/audwhere_stim/direction_box.png,stimulus/audwhere_stim/direction_yes.png,stimulus/audwhere_stim/direction_no.png,None,Direction,None,Side,2,0.0,0,5.125,0,5.125,0,5.125,0,0.0,0.625,0,0,0,0,0,0,0,0,0,0.0,0,0.0,1,0.5,1,2.125,0,,,,,0,52,52,52,,,,,,,,,467.63600533299996,467.63600533299996,467.63600533299996,467.63600533299996,467.63600533299996,467.63600533299996,467.63600533299996,467.63600533299996,467.55593725033316,467.63600533299996,467.63600533299996,467.63600533299996,467.55593725033316,467.63600533299996,467.63600533299996,467.63600533299996,469.7450153329996,,467.63600533299996,467.63600533299996,472.79181633300004,467.63600533299996,467.63600533299996,467.63600533299996,467.63600533299996,468.10547670799997,469.1366738749998,468.0750498336663,,469.7450153329996,470.77886820799995,469.71477024966657,,467.63600533299996,472.79181633300004,467.63600533299996,472.79181633300004,472.8333336669998,473.4916519999997,467.63600533299996,2,1,1.0746746250006254,reldom2_s019,001,2025-02-20_13h04.47.103,Aud-B-Scan_AC,2022.2.5,None,
0,0.0,None,fixation,stimulus/audwhat_stim/blank_white.png,stimulus/audwhat_stim/blank_white.png,stimulus/audwhere_stim/blank_white.png,stimulus/audwhere_stim/blank_white.png,stimulus/audwhat_stim/blank_white.png,stimulus/audwhat_stim/blank_white.png,stimulus/audwhat_stim/blank_white.png,stimulus/audwhat_stim/blank_white.png,0.0,0.0,0.0,0.0,0,0.0,0,0.0,0,0.0,0,0.0,0,0.0,0.0,0,0,0,0,0,0,0,0,0,0.0,0,0.0,0,0.0,0,0.0,8,,,,,0,53,53,53,,,,,,,,,473.767399542,473.767399542,473.767399542,473.767399542,473.767399542,473.767399542,473.767399542,473.767399542,473.66591325033335,473.767399542,473.767399542,473.767399542,473.66591325033335,473.767399542,473.767399542,473.767399542,473.767399542,473.767399542,473.767399542,473.767399542,473.767399542,473.767399542,473.767399542,473.767399542,473.767399542,473.767399542,473.767399542,473.71591325033336,473.767399542,473.767399542,473.767399542,473.71591325033336,473.767399542,473.767399542,473.767399542,473.767399542,473.767399542,478.98984579199987,478.98984579199987,481.93313316700005,None,0,,reldom2_s019,001,2025-02-20_13h04.47.103,Aud-B-Scan_AC,2022.2.5,None,
41,Second_Order,7.0,audwhere,stimulus/audwhere_stim/left_toward_300h.wav,stimulus/audwhere_stim/right_toward_280h.wav,stimulus/audwhere_stim/right_toward_270h.wav,stimulus/audwhere_stim/right_away_290h.wav,stimulus/audwhat_stim/match_blank.png,stimulus/audwhat_stim/match_box.png,stimulus/audwhat_stim/match_yes.png,stimulus/audwhat_stim/match_no.png,2.0,Match,Direction,Side,2,5.125,0,5.125,0,5.125,0,5.125,0,0.75,0.75,0,0,0,0,0,0,0,0,1,0.5,1,2.125,1,0.5,1,2.125,0,,,,,0,54,54,54,,,,,,,,,481.93313316700005,487.0537353329996,481.93313316700005,481.93313316700005,481.93313316700005,481.93313316700005,482.39237287499964,483.39120424999965,482.40509312466634,,484.01317633300005,485.01111979200004,484.0254327496666,,487.0537353329996,487.904024208,489.95524075000003,493.8926162499997,487.904024208,487.904024208,493.0774071249998,487.904024208,487.904024208,487.904024208,487.904024208,488.3231472079997,489.39627679199975,488.2930031246667,,489.95524075000003,490.985801583,489.92495141666654,,487.904024208,493.0774071249998,487.904024208,493.0774071249998,493.0774071249998,,487.904024208,2,1,0.7154845410004782,reldom2_s019,001,2025-02-20_13h04.47.103,Aud-B-Scan_AC,2022.2.5,None,
42,Second_Order,7.0,audwhere,stimulus/audwhere_stim/right_toward_290h.wav,stimulus/audwhere_stim/left_toward_270h.wav,stimulus/audwhere_stim/left_toward_290h.wav,stimulus/audwhere_stim/left_away_280h.wav,stimulus/audwhat_stim/match_blank.png,stimulus/audwhat_stim/match_box.png,stimulus/audwhat_stim/match_yes.png,stimulus/audwhat_stim/match_no.png,2.0,Match,Direction,Side,2,5.125,0,5.125,0,5.125,0,5.125,0,0.625,0.625,0,0,0,0,0,0,0,0,1,0.5,1,2.125,1,0.5,1,2.125,0,,,,,0,55,55,55,,,,,,,,,493.8926162499997,499.0148724579999,493.8926162499997,493.8926162499997,493.8926162499997,493.8926162499997,494.3534373329999,495.3517658329997,494.36605004166654,,495.97564358299996,496.972237083,495.98668041666656,,499.0148724579999,499.74532,501.786260375,,499.74532,499.74532,504.905196917,499.74532,499.74532,499.74532,499.74532,500.16179799999964,501.22998708299974,500.1315798336666,,501.786260375,502.8617093329999,501.7563877086666,,499.74532,504.905196917,499.74532,504.905196917,504.905196917,505.5588271669999,499.74532,2,1,0.7170604160005496,reldom2_s019,001,2025-02-20_13h04.47.103,Aud-B-Scan_AC,2022.2.5,None,
0,0.0,None,fixation,stimulus/audwhat_stim/blank_white.png,stimulus/audwhat_stim/blank_white.png,stimulus/audwhere_stim/blank_white.png,stimulus/audwhere_stim/blank_white.png,stimulus/audwhat_stim/blank_white.png,stimulus/audwhat_stim/blank_white.png,stimulus/audwhat_stim/blank_white.png,stimulus/audwhat_stim/blank_white.png,0.0,0.0,0.0,0.0,0,0.0,0,0.0,0,0.0,0,0.0,0,0.0,0.0,0,0,0,0,0,0,0,0,0,0.0,0,0.0,0,0.0,0,0.0,10,,,,,0,56,56,56,,,,,,,,,505.8332063749999,505.8332063749999,505.8332063749999,505.8332063749999,505.8332063749999,505.8332063749999,505.8332063749999,505.8332063749999,505.7325632913331,505.8332063749999,505.8332063749999,505.8332063749999,505.7325632913331,505.8332063749999,505.8332063749999,505.8332063749999,505.8332063749999,505.8332063749999,505.8332063749999,505.8332063749999,505.8332063749999,505.8332063749999,505.8332063749999,505.8332063749999,505.8332063749999,505.8332063749999,505.8332063749999,505.78256329133313,505.8332063749999,505.8332063749999,505.8332063749999,505.78256329133313,505.8332063749999,505.8332063749999,505.8332063749999,505.8332063749999,505.8332063749999,511.03055370799984,511.03055370799984,516.0955806669999,None,0,,reldom2_s019,001,2025-02-20_13h04.47.103,Aud-B-Scan_AC,2022.2.5,None,
43,First_Order,8.0,audwhere,stimulus/audwhere_stim/dummy.wav,stimulus/audwhere_stim/dummy.wav,stimulus/audwhere_stim/right_toward_270h.wav,stimulus/audwhere_stim/left_toward_300h.wav,stimulus/audwhere_stim/blank_white.png,stimulus/audwhere_stim/side_box.png,stimulus/audwhere_stim/side_yes.png,stimulus/audwhere_stim/side_no.png,None,Side,None,Direction,2,0.0,0,5.125,0,5.125,0,5.125,0,0.0,0.625,0,0,0,0,0,0,0,0,0,0.0,0,0.0,1,0.5,1,2.125,0,,,,,0,57,57,57,,,,,,,,,516.0955806669999,516.0955806669999,516.0955806669999,516.0955806669999,516.0955806669999,516.0955806669999,516.0955806669999,516.0955806669999,516.0239377086665,516.0955806669999,516.0955806669999,516.0955806669999,516.0239377086665,516.0955806669999,516.0955806669999,516.0955806669999,518.1931615419999,522.218104042,516.0955806669999,516.0955806669999,521.2684532079998,516.0955806669999,516.0955806669999,516.0955806669999,516.0955806669999,516.5636528329997,517.634931,516.5335507496663,,518.1931615419999,519.2243431669999,518.1626741666666,,516.0955806669999,521.2684532079998,516.0955806669999,521.2684532079998,521.3097522079997,521.9646998329999,516.0955806669999,2,1,0.7797027910000907,reldom2_s019,001,2025-02-20_13h04.47.103,Aud-B-Scan_AC,2022.2.5,None,
44,First_Order,8.0,audwhere,stimulus/audwhere_stim/dummy.wav,stimulus/audwhere_stim/dummy.wav,stimulus/audwhere_stim/right_toward_270h.wav,stimulus/audwhere_stim/left_toward_280h.wav,stimulus/audwhere_stim/blank_white.png,stimulus/audwhere_stim/side_box.png,stimulus/audwhere_stim/side_yes.png,stimulus/audwhere_stim/side_no.png,None,Side,None,Direction,2,0.0,0,5.125,0,5.125,0,5.125,0,0.0,0.625,0,0,0,0,0,0,0,0,0,0.0,0,0.0,1,0.5,1,2.125,0,,,,,0,58,58,58,,,,,,,,,522.218104042,522.218104042,522.218104042,522.218104042,522.218104042,522.218104042,522.218104042,522.218104042,522.1390070003332,522.218104042,522.218104042,522.218104042,522.1390070003332,522.218104042,522.218104042,522.218104042,524.310404375,528.3347844579998,522.218104042,522.218104042,527.3840141249998,522.218104042,522.218104042,522.218104042,522.218104042,522.6846930419997,523.7536396249998,522.6548989166665,,524.310404375,525.3404866669998,524.2805561666667,,522.218104042,527.3840141249998,522.218104042,527.3840141249998,527.4249493329999,528.0812367499998,522.218104042,2,1,0.761242833000324,reldom2_s019,001,2025-02-20_13h04.47.103,Aud-B-Scan_AC,2022.2.5,None,
45,First_Order,8.0,audwhere,stimulus/audwhere_stim/dummy.wav,stimulus/audwhere_stim/dummy.wav,stimulus/audwhere_stim/right_toward_270h.wav,stimulus/audwhere_stim/left_toward_290h.wav,stimulus/audwhere_stim/blank_white.png,stimulus/audwhere_stim/direction_box.png,stimulus/audwhere_stim/direction_yes.png,stimulus/audwhere_stim/direction_no.png,None,Direction,None,Direction,1,0.0,0,5.125,0,5.125,0,5.125,0,0.0,0.625,0,0,0,0,0,0,0,0,0,0.0,0,0.0,1,0.5,1,2.125,0,,,,,0,59,59,59,,,,,,,,,528.3347844579998,528.3347844579998,528.3347844579998,528.3347844579998,528.3347844579998,528.3347844579998,528.3347844579998,528.3347844579998,528.255395875333,528.3347844579998,528.3347844579998,528.3347844579998,528.255395875333,528.3347844579998,528.3347844579998,528.3347844579998,530.4437109999999,,528.3347844579998,528.3347844579998,533.4854728329997,528.3347844579998,528.3347844579998,528.3347844579998,528.3347844579998,528.8048582920001,529.8339878329998,528.7746238746665,,530.4437109999999,531.475510667,530.4117957496667,,528.3347844579998,533.4854728329997,528.3347844579998,533.4854728329997,533.5270125829998,534.183377333,528.3347844579998,1,1,0.9264741250003681,reldom2_s019,001,2025-02-20_13h04.47.103,Aud-B-Scan_AC,2022.2.5,None,
46,First_Order,8.0,audwhere,stimulus/audwhere_stim/dummy.wav,stimulus/audwhere_stim/dummy.wav,stimulus/audwhere_stim/left_away_300h.wav,stimulus/audwhere_stim/left_toward_300h.wav,stimulus/audwhere_stim/blank_white.png,stimulus/audwhere_stim/side_box.png,stimulus/audwhere_stim/side_yes.png,stimulus/audwhere_stim/side_no.png,None,Side,None,Side,1,0.0,0,5.125,0,5.125,0,5.125,0,0.0,0.625,0,0,0,0,0,0,0,0,0,0.0,0,0.0,1,0.5,1,2.125,0,,,,,0,60,60,60,,,,,,,,,534.4391273749998,534.4391273749998,534.4391273749998,534.4391273749998,534.4391273749998,534.4391273749998,534.4391273749998,534.4391273749998,534.3578803753331,534.4391273749998,534.4391273749998,534.4391273749998,534.3578803753331,534.4391273749998,534.4391273749998,534.4391273749998,536.538159917,540.5884807079997,534.4391273749998,534.4391273749998,539.6135528749996,534.4391273749998,534.4391273749998,534.4391273749998,534.4391273749998,534.9066079169997,535.9779881249997,534.8764823336667,,536.538159917,537.5681222499998,536.5080877916664,,534.4391273749998,539.6135528749996,534.4391273749998,539.6135528749996,539.655335125,540.3122937499998,534.4391273749998,1,1,0.7345449170006759,reldom2_s019,001,2025-02-20_13h04.47.103,Aud-B-Scan_AC,2022.2.5,None,
0,0.0,None,fixation,stimulus/audwhat_stim/blank_white.png,stimulus/audwhat_stim/blank_white.png,stimulus/audwhere_stim/blank_white.png,stimulus/audwhere_stim/blank_white.png,stimulus/audwhat_stim/blank_white.png,stimulus/audwhat_stim/blank_white.png,stimulus/audwhat_stim/blank_white.png,stimulus/audwhat_stim/blank_white.png,0.0,0.0,0.0,0.0,0,0.0,0,0.0,0,0.0,0,0.0,0,0.0,0.0,0,0,0,0,0,0,0,0,0,0.0,0,0.0,0,0.0,0,0.0,9,,,,,0,61,61,61,,,,,,,,,540.5884807079997,540.5884807079997,540.5884807079997,540.5884807079997,540.5884807079997,540.5884807079997,540.5884807079997,540.5884807079997,540.4864219583334,540.5884807079997,540.5884807079997,540.5884807079997,540.4864219583334,540.5884807079997,540.5884807079997,540.5884807079997,540.5884807079997,540.5884807079997,540.5884807079997,540.5884807079997,540.5884807079997,540.5884807079997,540.5884807079997,540.5884807079997,540.5884807079997,540.5884807079997,540.5884807079997,540.5364219583333,540.5884807079997,540.5884807079997,540.5884807079997,540.5364219583333,540.5884807079997,540.5884807079997,540.5884807079997,540.5884807079997,540.5884807079997,545.7986611249999,545.7986611249999,549.751904917,None,0,,reldom2_s019,001,2025-02-20_13h04.47.103,Aud-B-Scan_AC,2022.2.5,None,
47,Second_Order,8.0,audwhere,stimulus/audwhere_stim/right_away_300h.wav,stimulus/audwhere_stim/right_toward_270h.wav,stimulus/audwhere_stim/left_away_280h.wav,stimulus/audwhere_stim/left_toward_270h.wav,stimulus/audwhat_stim/match_blank.png,stimulus/audwhat_stim/match_box.png,stimulus/audwhat_stim/match_yes.png,stimulus/audwhat_stim/match_no.png,1.0,Match,Side,Side,1,5.125,0,5.125,0,5.125,0,5.125,0,0.75,0.75,0,0,0,0,0,0,0,0,1,0.5,1,2.125,1,0.5,1,2.125,0,,,,,0,62,62,62,,,,,,,,,549.751904917,554.8772238329998,549.751904917,549.751904917,549.751904917,549.751904917,550.2122786669997,551.201318125,550.2124680416666,,551.8380762499996,552.8343146249999,551.8494708746664,,554.8772238329998,555.7255137919997,557.775849958,561.713366292,555.7255137919997,555.7255137919997,560.9001748329997,555.7255137919997,555.7255137919997,555.7255137919997,555.7255137919997,556.1454356669997,557.2171283749999,556.1151523336664,,557.775849958,558.8519175419997,557.7456801246665,,555.7255137919997,560.9001748329997,555.7255137919997,560.9001748329997,560.9001748329997,,555.7255137919997,1,1,1.0190594580003562,reldom2_s019,001,2025-02-20_13h04.47.103,Aud-B-Scan_AC,2022.2.5,None,
48,Second_Order,8.0,audwhere,stimulus/audwhere_stim/right_toward_270h.wav,stimulus/audwhere_stim/right_away_270h.wav,stimulus/audwhere_stim/left_away_280h.wav,stimulus/audwhere_stim/left_toward_290h.wav,stimulus/audwhat_stim/match_blank.png,stimulus/audwhat_stim/match_box.png,stimulus/audwhat_stim/match_yes.png,stimulus/audwhat_stim/match_no.png,1.0,Match,Side,Side,1,5.125,0,5.125,0,5.125,0,5.125,0,0.625,0.625,0,0,0,0,0,0,0,0,1,0.5,1,2.125,1,0.5,1,2.125,0,,,,,0,63,63,63,,,,,,,,,561.713366292,566.8390738749999,561.713366292,561.713366292,561.713366292,561.713366292,562.1726280419998,563.1617308749996,562.1757834586663,563.1617308749996,563.7971149579998,564.795522292,563.8095347916667,,566.8390738749999,567.563986917,569.6510655829998,,567.563986917,567.563986917,572.7198668329997,567.563986917,567.563986917,567.563986917,567.563986917,568.0266136249998,569.095879042,567.9967393746663,,569.6510655829998,570.723944333,569.6209685416663,,567.563986917,572.7198668329997,567.563986917,572.7198668329997,572.7608552919996,573.415142667,567.563986917,1,1,0.7836846250002054,reldom2_s019,001,2025-02-20_13h04.47.103,Aud-B-Scan_AC,2022.2.5,None,
0,0.0,None,fixation,stimulus/audwhat_stim/blank_white.png,stimulus/audwhat_stim/blank_white.png,stimulus/audwhere_stim/blank_white.png,stimulus/audwhere_stim/blank_white.png,stimulus/audwhat_stim/blank_white.png,stimulus/audwhat_stim/blank_white.png,stimulus/audwhat_stim/blank_white.png,stimulus/audwhat_stim/blank_white.png,0.0,0.0,0.0,0.0,0,0.0,0,0.0,0,0.0,0,0.0,0,0.0,0.0,0,0,0,0,0,0,0,0,0,0.0,0,0.0,0,0.0,0,0.0,16,,,,,0,64,64,64,,,,,,,,,573.6490841669997,573.6490841669997,573.6490841669997,573.6490841669997,573.6490841669997,573.6490841669997,573.6490841669997,573.6490841669997,573.5484760003334,573.6490841669997,573.6490841669997,573.6490841669997,573.5484760003334,573.6490841669997,573.6490841669997,573.6490841669997,573.6490841669997,573.6490841669997,573.6490841669997,573.6490841669997,573.6490841669997,573.6490841669997,573.6490841669997,573.6490841669997,573.6490841669997,573.6490841669997,573.6490841669997,573.5984760003333,573.6490841669997,573.6490841669997,573.6490841669997,573.5984760003333,573.6490841669997,573.6490841669997,573.6490841669997,573.6490841669997,573.6490841669997,578.8551191669999,578.8551191669999,589.7902061669997,None,0,,reldom2_s019,001,2025-02-20_13h04.47.103,Aud-B-Scan_AC,2022.2.5,None,
