Trial,Order,Block,Type,Stimuli_File1,Stimuli_File2,Stimuli_File3,Stimuli_File4,Cue_File1,Cue_File2,Response_File_Yes,Response_File_No,Match,Cue_Dimension,Pair1_Dimension,Pair2_Dimension,Key,Cue1_Duration,Cue1_Onset,Cue2_Duration,Cue2_Onset,ResponseYes_Duration,ResponseYes_Onset,ResponseNo_Duration,ResponseNo_Onset,ITI_Within,ITI_Between,Image1_Duration,Image1_Onset,Image2_Duration,Image2_Onset,Image3_Duration,Image3_Onset,Image4_Duration,Image4_Onset,Sound1_Duration,Sound1_Onset,Sound2_Duration,Sound2_Onset,Sound3_Duration,Sound3_Onset,Sound4_Duration,Sound4_Onset,Fixation_Duration,trials_2.thisRepN,trials_2.thisTrialN,trials_2.thisN,trials_2.thisIndex,trials.thisRepN,trials.thisTrialN,trials.thisN,trials.thisIndex,text_start.started,key_resp_start.started,key_resp_start.keys,key_resp_start.rt,text2.started,key_resp_2.started,key_resp_2.keys,key_resp_2.rt,cue_file1.started,cue_file1.stopped,image_1.started,image_1.stopped,image_2.started,image_2.stopped,sound_icon1.started,sound_icon1.stopped,sound_1.started,sound_1.stopped,sound_icon2.started,sound_icon2.stopped,sound_2.started,sound_2.stopped,image_blank_1.started,image_blank_1.stopped,key_press.started,key_press.stopped,fixation_text.started,cue_file2.started,cue_file2.stopped,image_3.started,image_3.stopped,image_4.started,image_4.stopped,sound_icon3.started,sound_icon3.stopped,sound_3.started,sound_3.stopped,sound_icon4.started,sound_icon4.stopped,sound_4.started,sound_4.stopped,response_yes.started,response_yes.stopped,response_no.started,response_no.stopped,iti_blank.started,iti_blank.stopped,fixation_text.stopped,key_press.keys,key_press.corr,key_press.rt,participant,session,date,expName,psychopyVersion,frameRate,
,,,,,,,,,,,,,,,,,,,,,,,,,,,,,,,,,,,,,,,,,,,,,,,,,,,,11.121675791000143,11.121675791000143,2,0.9015741250000247,,,,,,,,,,,,,,,,,,,,,,,,,,,,,,,,,,,,,,,,,,,,,,,,reldom2_s019,001,2025-02-20_12h53.26.056,Where-B-Scan_AC,2022.2.5,None,
,,,,,,,,,,,,,,,,,,,,,,,,,,,,,,,,,,,,,,,,,,,,0,0,0,0,,,,,,,,,12.05521275000001,12.05521275000001,5,16.927921083,,,,,,,,,,,,,,,,,,,,,,,,,,,,,,,,,,,,,,,,,,,,reldom2_s019,001,2025-02-20_12h53.26.056,Where-B-Scan_AC,2022.2.5,None,
,,,,,,,,,,,,,,,,,,,,,,,,,,,,,,,,,,,,,,,,,,,,1,0,1,0,,,,,,,,,29.003665499999897,29.003665499999897,5,1.9802977080003075,,,,,,,,,,,,,,,,,,,,,,,,,,,,,,,,,,,,,,,,,,,,reldom2_s019,001,2025-02-20_12h53.26.056,Where-B-Scan_AC,2022.2.5,None,
,,,,,,,,,,,,,,,,,,,,,,,,,,,,,,,,,,,,,,,,,,,,2,0,2,0,,,,,,,,,31.00294308299999,31.00294308299999,5,1.981588874999943,,,,,,,,,,,,,,,,,,,,,,,,,,,,,,,,,,,,,,,,,,,,reldom2_s019,001,2025-02-20_12h53.26.056,Where-B-Scan_AC,2022.2.5,None,
,,,,,,,,,,,,,,,,,,,,,,,,,,,,,,,,,,,,,,,,,,,,3,0,3,0,,,,,,,,,32.99570770799983,32.99570770799983,5,1.987440500000048,,,,,,,,,,,,,,,,,,,,,,,,,,,,,,,,,,,,,,,,,,,,reldom2_s019,001,2025-02-20_12h53.26.056,Where-B-Scan_AC,2022.2.5,None,
0,0.0,None,fixation,stimulus/audwhere_stim/blank_white.png,stimulus/audwhere_stim/blank_white.png,stimulus/viswhere_stim/blank_white.png,stimulus/viswhere_stim/blank_white.png,stimulus/audwhere_stim/blank_white.png,stimulus/audwhere_stim/blank_white.png,stimulus/audwhere_stim/blank_white.png,stimulus/audwhere_stim/blank_white.png,0.0,0.0,0.0,0.0,0,0.0,0,0.0,0,0.0,0,0.0,0,0.0,0.0,0,0.0,0,0.0,0,0.0,0,0.0,0,0.0,0,0.0,0,0.0,0,0.0,16,,,,,0,0,0,0,,,,,,,,,35.204489000000194,35.204489000000194,35.204489000000194,35.204489000000194,35.204489000000194,35.204489000000194,35.204489000000194,35.204489000000194,35.10794495766674,35.204489000000194,35.204489000000194,35.204489000000194,35.10794495766674,35.204489000000194,35.204489000000194,35.204489000000194,35.204489000000194,35.204489000000194,35.204489000000194,35.204489000000194,35.204489000000194,35.204489000000194,35.204489000000194,35.204489000000194,35.204489000000194,35.204489000000194,35.204489000000194,35.157944957666736,35.204489000000194,35.204489000000194,35.204489000000194,35.157944957666736,35.204489000000194,35.204489000000194,35.204489000000194,35.204489000000194,35.204489000000194,40.3894100829998,40.3894100829998,51.414263375000246,None,0,,reldom2_s019,001,2025-02-20_12h53.26.056,Where-B-Scan_AC,2022.2.5,None,
1,First_Order,1.0,audwhere,stimulus/audwhere_stim/dummy.wav,stimulus/audwhere_stim/dummy.wav,stimulus/audwhere_stim/right_away_290h.wav,stimulus/audwhere_stim/right_toward_300h.wav,stimulus/audwhere_stim/blank_white.png,stimulus/audwhere_stim/direction_box.png,stimulus/audwhere_stim/direction_yes.png,stimulus/audwhere_stim/direction_no.png,None,Direction,None,Side,2,0.0,0,5.125,0,5.125,0,5.125,0,0.0,0.625,0,0.0,0,0.0,0,0.0,0,0.0,0,0.0,0,0.0,1,0.5,1,2.125,0,,,,,0,1,1,1,,,,,,,,,51.414263375000246,51.414263375000246,51.414263375000246,51.414263375000246,51.414263375000246,51.414263375000246,51.414263375000246,51.414263375000246,51.33800749999991,51.414263375000246,51.414263375000246,51.414263375000246,51.33800749999991,51.414263375000246,51.414263375000246,51.414263375000246,53.526064958000006,57.53391787500004,51.414263375000246,51.414263375000246,56.59833629100012,51.414263375000246,51.414263375000246,51.414263375000246,51.414263375000246,51.87478445800025,52.9284106250002,51.84507108266668,,53.526064958000006,54.580801874999906,53.4969092496665,,51.414263375000246,56.59833629100012,51.414263375000246,56.59833629100012,56.638796833000015,57.32313420799983,51.414263375000246,2,1,1.0299682079999002,reldom2_s019,001,2025-02-20_12h53.26.056,Where-B-Scan_AC,2022.2.5,None,
2,First_Order,1.0,audwhere,stimulus/audwhere_stim/dummy.wav,stimulus/audwhere_stim/dummy.wav,stimulus/audwhere_stim/left_toward_290h.wav,stimulus/audwhere_stim/right_toward_280h.wav,stimulus/audwhere_stim/blank_white.png,stimulus/audwhere_stim/side_box.png,stimulus/audwhere_stim/side_yes.png,stimulus/audwhere_stim/side_no.png,None,Side,None,Direction,2,0.0,0,5.125,0,5.125,0,5.125,0,0.0,0.625,0,0.0,0,0.0,0,0.0,0,0.0,0,0.0,0,0.0,1,0.5,1,2.125,0,,,,,0,2,2,2,,,,,,,,,57.53391787500004,57.53391787500004,57.53391787500004,57.53391787500004,57.53391787500004,57.53391787500004,57.53391787500004,57.53391787500004,57.45646754133316,57.53391787500004,57.53391787500004,57.53391787500004,57.45646754133316,57.53391787500004,57.53391787500004,57.53391787500004,59.64294791600014,63.658396249999896,57.53391787500004,57.53391787500004,62.71786358300005,57.53391787500004,57.53391787500004,57.53391787500004,57.53391787500004,57.99080975000015,59.04756220799982,57.961307832666776,,59.64294791600014,60.69998908300022,59.61355991666666,,57.53391787500004,62.71786358300005,57.53391787500004,62.71786358300005,62.75859824999998,63.44551316600018,57.53391787500004,2,1,0.9999203749998742,reldom2_s019,001,2025-02-20_12h53.26.056,Where-B-Scan_AC,2022.2.5,None,
3,First_Order,1.0,audwhere,stimulus/audwhere_stim/dummy.wav,stimulus/audwhere_stim/dummy.wav,stimulus/audwhere_stim/right_toward_280h.wav,stimulus/audwhere_stim/right_away_300h.wav,stimulus/audwhere_stim/blank_white.png,stimulus/audwhere_stim/direction_box.png,stimulus/audwhere_stim/direction_yes.png,stimulus/audwhere_stim/direction_no.png,None,Direction,None,Side,2,0.0,0,5.125,0,5.125,0,5.125,0,0.0,0.625,0,0.0,0,0.0,0,0.0,0,0.0,0,0.0,0,0.0,1,0.5,1,2.125,0,,,,,0,3,3,3,,,,,,,,,63.658396249999896,63.658396249999896,63.658396249999896,63.658396249999896,63.658396249999896,63.658396249999896,63.658396249999896,63.658396249999896,63.578846499333515,63.658396249999896,63.658396249999896,63.658396249999896,63.578846499333515,63.658396249999896,63.658396249999896,63.658396249999896,65.73840974999985,,63.658396249999896,63.658396249999896,68.84152845800008,63.658396249999896,63.658396249999896,63.658396249999896,63.658396249999896,64.12104450000015,65.18541183300022,64.09127758266665,,65.73840974999985,66.80341649999991,65.70866149966675,,63.658396249999896,68.84152845800008,63.658396249999896,68.84152845800008,68.88231075000022,69.53562916600004,63.658396249999896,2,1,1.0377622919995702,reldom2_s019,001,2025-02-20_12h53.26.056,Where-B-Scan_AC,2022.2.5,None,
4,First_Order,1.0,audwhere,stimulus/audwhere_stim/dummy.wav,stimulus/audwhere_stim/dummy.wav,stimulus/audwhere_stim/left_toward_270h.wav,stimulus/audwhere_stim/right_toward_300h.wav,stimulus/audwhere_stim/blank_white.png,stimulus/audwhere_stim/direction_box.png,stimulus/audwhere_stim/direction_yes.png,stimulus/audwhere_stim/direction_no.png,None,Direction,None,Direction,1,0.0,0,5.125,0,5.125,0,5.125,0,0.0,0.625,0,0.0,0,0.0,0,0.0,0,0.0,0,0.0,0,0.0,1,0.5,1,2.125,0,,,,,0,4,4,4,,,,,,,,,69.74763395799982,69.74763395799982,69.74763395799982,69.74763395799982,69.74763395799982,69.74763395799982,69.74763395799982,69.74763395799982,69.66896249933336,69.74763395799982,69.74763395799982,69.74763395799982,69.66896249933336,69.74763395799982,69.74763395799982,69.74763395799982,71.83911483300017,,69.74763395799982,69.74763395799982,74.90535591600019,69.74763395799982,69.74763395799982,69.74763395799982,69.74763395799982,70.21216533300003,71.28295662500022,70.18211324966684,,71.83911483300017,72.91096841599983,71.80934037466683,,69.74763395799982,74.90535591600019,69.74763395799982,74.90535591600019,74.94691895799997,75.60314320799989,69.74763395799982,1,1,0.904732082999999,reldom2_s019,001,2025-02-20_12h53.26.056,Where-B-Scan_AC,2022.2.5,None,
0,0.0,None,fixation,stimulus/audwhere_stim/blank_white.png,stimulus/audwhere_stim/blank_white.png,stimulus/viswhere_stim/blank_white.png,stimulus/viswhere_stim/blank_white.png,stimulus/audwhere_stim/blank_white.png,stimulus/audwhere_stim/blank_white.png,stimulus/audwhere_stim/blank_white.png,stimulus/audwhere_stim/blank_white.png,0.0,0.0,0.0,0.0,0,0.0,0,0.0,0,0.0,0,0.0,0,0.0,0.0,0,0.0,0,0.0,0,0.0,0,0.0,0,0.0,0,0.0,0,0.0,0,0.0,10,,,,,0,5,5,5,,,,,,,,,75.87675383299984,75.87675383299984,75.87675383299984,75.87675383299984,75.87675383299984,75.87675383299984,75.87675383299984,75.87675383299984,75.7773838743334,75.87675383299984,75.87675383299984,75.87675383299984,75.7773838743334,75.87675383299984,75.87675383299984,75.87675383299984,75.87675383299984,75.87675383299984,75.87675383299984,75.87675383299984,75.87675383299984,75.87675383299984,75.87675383299984,75.87675383299984,75.87675383299984,75.87675383299984,75.87675383299984,75.8273838743334,75.87675383299984,75.87675383299984,75.87675383299984,75.8273838743334,75.87675383299984,75.87675383299984,75.87675383299984,75.87675383299984,75.87675383299984,81.10976591600001,81.10976591600001,86.00970404100008,None,0,,reldom2_s019,001,2025-02-20_12h53.26.056,Where-B-Scan_AC,2022.2.5,None,
5,Second_Order,1.0,audwhere,stimulus/audwhere_stim/right_toward_300h.wav,stimulus/audwhere_stim/left_toward_280h.wav,stimulus/audwhere_stim/right_toward_280h.wav,stimulus/audwhere_stim/right_away_280h.wav,stimulus/audwhere_stim/match_blank.png,stimulus/audwhere_stim/match_box.png,stimulus/audwhere_stim/match_yes.png,stimulus/audwhere_stim/match_no.png,2.0,Match,Direction,Side,2,5.125,0,5.125,0,5.125,0,5.125,0,0.75,0.75,0,0.0,0,0.0,0,0.0,0,0.0,1,0.5,1,2.125,1,0.5,1,2.125,0,,,,,0,6,6,6,,,,,,,,,86.00970404100008,91.12576616600018,86.00970404100008,86.00970404100008,86.00970404100008,86.00970404100008,86.46308320800017,87.4492036659999,86.47640341666671,,88.0859404580001,89.08293370799993,88.09728174966655,89.08644412500007,91.12576616600018,91.97698195800012,94.04764320799995,,91.97698195800012,91.97698195800012,97.13759758300012,91.97698195800012,91.97698195800012,91.97698195800012,91.97698195800012,92.38850058300022,93.44891404100008,92.35938741666656,,94.04764320799995,95.11486366600002,94.01792587466686,,91.97698195800012,97.13759758300012,91.97698195800012,97.13759758300012,97.13759758300012,,91.97698195800012,2,1,1.67991129200027,reldom2_s019,001,2025-02-20_12h53.26.056,Where-B-Scan_AC,2022.2.5,None,
6,Second_Order,1.0,audwhere,stimulus/audwhere_stim/right_toward_270h.wav,stimulus/audwhere_stim/right_away_290h.wav,stimulus/audwhere_stim/left_toward_300h.wav,stimulus/audwhere_stim/left_away_290h.wav,stimulus/audwhere_stim/match_blank.png,stimulus/audwhere_stim/match_box.png,stimulus/audwhere_stim/match_yes.png,stimulus/audwhere_stim/match_no.png,1.0,Match,Side,Side,1,5.125,0,5.125,0,5.125,0,5.125,0,0.625,0.625,0,0.0,0,0.0,0,0.0,0,0.0,1,0.5,1,2.125,1,0.5,1,2.125,0,,,,,0,7,7,7,,,,,,,,,97.9465163750001,103.06943954100007,97.9465163750001,97.9465163750001,97.9465163750001,97.9465163750001,98.40381995799999,99.3939396249998,98.40800083266664,,100.02967129099989,101.02669629100001,100.04133449966663,,103.06943954100007,103.80083749999994,105.86196400000017,109.90401412500023,103.80083749999994,103.80083749999994,108.98572791600009,103.80083749999994,103.80083749999994,103.80083749999994,103.80083749999994,104.25544541599993,105.31215595799995,104.22604187466665,,105.86196400000017,106.91754087500021,105.8323174996665,,103.80083749999994,108.98572791600009,103.80083749999994,108.98572791600009,108.98572791600009,109.67236970800013,103.80083749999994,1,1,1.7533609580000302,reldom2_s019,001,2025-02-20_12h53.26.056,Where-B-Scan_AC,2022.2.5,None,
0,0.0,None,fixation,stimulus/audwhere_stim/blank_white.png,stimulus/audwhere_stim/blank_white.png,stimulus/viswhere_stim/blank_white.png,stimulus/viswhere_stim/blank_white.png,stimulus/audwhere_stim/blank_white.png,stimulus/audwhere_stim/blank_white.png,stimulus/audwhere_stim/blank_white.png,stimulus/audwhere_stim/blank_white.png,0.0,0.0,0.0,0.0,0,0.0,0,0.0,0,0.0,0,0.0,0,0.0,0.0,0,0.0,0,0.0,0,0.0,0,0.0,0,0.0,0,0.0,0,0.0,0,0.0,9,,,,,0,8,8,8,,,,,,,,,109.90401412500023,109.90401412500023,109.90401412500023,109.90401412500023,109.90401412500023,109.90401412500023,109.90401412500023,109.90401412500023,109.80570304133346,109.90401412500023,109.90401412500023,109.90401412500023,109.80570304133346,109.90401412500023,109.90401412500023,109.90401412500023,109.90401412500023,109.90401412500023,109.90401412500023,109.90401412500023,109.90401412500023,109.90401412500023,109.90401412500023,109.90401412500023,109.90401412500023,109.90401412500023,109.90401412500023,109.85570304133347,109.90401412500023,109.90401412500023,109.90401412500023,109.85570304133347,109.90401412500023,109.90401412500023,109.90401412500023,109.90401412500023,109.90401412500023,115.09895687500011,115.09895687500011,119.16670699999986,None,0,,reldom2_s019,001,2025-02-20_12h53.26.056,Where-B-Scan_AC,2022.2.5,None,
7,First_Order,2.0,audwhere,stimulus/audwhere_stim/dummy.wav,stimulus/audwhere_stim/dummy.wav,stimulus/audwhere_stim/left_toward_270h.wav,stimulus/audwhere_stim/right_toward_270h.wav,stimulus/audwhere_stim/blank_white.png,stimulus/audwhere_stim/direction_box.png,stimulus/audwhere_stim/direction_yes.png,stimulus/audwhere_stim/direction_no.png,None,Direction,None,Direction,1,0.0,0,5.125,0,5.125,0,5.125,0,0.0,0.625,0,0.0,0,0.0,0,0.0,0,0.0,0,0.0,0,0.0,1,0.5,1,2.125,0,,,,,0,9,9,9,,,,,,,,,119.16670699999986,119.16670699999986,119.16670699999986,119.16670699999986,119.16670699999986,119.16670699999986,119.16670699999986,119.16670699999986,119.09338137466663,119.16670699999986,119.16670699999986,119.16670699999986,119.09338137466663,119.16670699999986,119.16670699999986,119.16670699999986,121.25658433299986,,119.16670699999986,119.16670699999986,124.32600441600016,119.16670699999986,119.16670699999986,119.16670699999986,119.16670699999986,119.63050841599988,120.69832091599983,119.60055424966664,,121.25658433299986,122.32770733300003,121.22690720766674,,119.16670699999986,124.32600441600016,119.16670699999986,124.32600441600016,124.36693933300012,125.01980216599986,119.16670699999986,1,1,1.1989225419997638,reldom2_s019,001,2025-02-20_12h53.26.056,Where-B-Scan_AC,2022.2.5,None,
8,First_Order,2.0,audwhere,stimulus/audwhere_stim/dummy.wav,stimulus/audwhere_stim/dummy.wav,stimulus/audwhere_stim/left_toward_280h.wav,stimulus/audwhere_stim/right_toward_290h.wav,stimulus/audwhere_stim/blank_white.png,stimulus/audwhere_stim/side_box.png,stimulus/audwhere_stim/side_yes.png,stimulus/audwhere_stim/side_no.png,None,Side,None,Direction,2,0.0,0,5.125,0,5.125,0,5.125,0,0.0,0.625,0,0.0,0,0.0,0,0.0,0,0.0,0,0.0,0,0.0,1,0.5,1,2.125,0,,,,,0,10,10,10,,,,,,,,,125.27337820799994,125.27337820799994,125.27337820799994,125.27337820799994,125.27337820799994,125.27337820799994,125.27337820799994,125.27337820799994,125.19417008333323,125.27337820799994,125.27337820799994,125.27337820799994,125.19417008333323,125.27337820799994,125.27337820799994,125.27337820799994,127.35594429100001,131.4030013749998,125.27337820799994,125.27337820799994,130.455710791,125.27337820799994,125.27337820799994,125.27337820799994,125.27337820799994,125.73466387500002,126.79961370799992,125.7055269166665,,127.35594429100001,128.42270908299997,127.32622191666657,,125.27337820799994,130.455710791,125.27337820799994,130.455710791,130.49630250000018,131.14939437500016,125.27337820799994,2,1,1.0678582909999932,reldom2_s019,001,2025-02-20_12h53.26.056,Where-B-Scan_AC,2022.2.5,None,
9,First_Order,2.0,audwhere,stimulus/audwhere_stim/dummy.wav,stimulus/audwhere_stim/dummy.wav,stimulus/audwhere_stim/left_away_270h.wav,stimulus/audwhere_stim/left_toward_290h.wav,stimulus/audwhere_stim/blank_white.png,stimulus/audwhere_stim/side_box.png,stimulus/audwhere_stim/side_yes.png,stimulus/audwhere_stim/side_no.png,None,Side,None,Side,1,0.0,0,5.125,0,5.125,0,5.125,0,0.0,0.625,0,0.0,0,0.0,0,0.0,0,0.0,0,0.0,0,0.0,1,0.5,1,2.125,0,,,,,0,11,11,11,,,,,,,,,131.4030013749998,131.4030013749998,131.4030013749998,131.4030013749998,131.4030013749998,131.4030013749998,131.4030013749998,131.4030013749998,131.3231842083334,131.4030013749998,131.4030013749998,131.4030013749998,131.3231842083334,131.4030013749998,131.4030013749998,131.4030013749998,133.48685424999985,,131.4030013749998,131.4030013749998,136.59249550000004,131.4030013749998,131.4030013749998,131.4030013749998,131.4030013749998,131.86598187500022,132.9297017079998,131.8363328326666,,133.48685424999985,134.55544491599994,133.45688237466655,,131.4030013749998,136.59249550000004,131.4030013749998,136.59249550000004,136.59249550000004,137.245419416,131.4030013749998,1,1,0.9013286250001329,reldom2_s019,001,2025-02-20_12h53.26.056,Where-B-Scan_AC,2022.2.5,None,
10,First_Order,2.0,audwhere,stimulus/audwhere_stim/dummy.wav,stimulus/audwhere_stim/dummy.wav,stimulus/audwhere_stim/right_away_290h.wav,stimulus/audwhere_stim/right_toward_290h.wav,stimulus/audwhere_stim/blank_white.png,stimulus/audwhere_stim/side_box.png,stimulus/audwhere_stim/side_yes.png,stimulus/audwhere_stim/side_no.png,None,Side,None,Side,1,0.0,0,5.125,0,5.125,0,5.125,0,0.0,0.625,0,0.0,0,0.0,0,0.0,0,0.0,0,0.0,0,0.0,1,0.5,1,2.125,0,,,,,0,12,12,12,,,,,,,,,137.4975810410001,137.4975810410001,137.4975810410001,137.4975810410001,137.4975810410001,137.4975810410001,137.4975810410001,137.4975810410001,137.41961387433335,137.4975810410001,137.4975810410001,137.4975810410001,137.41961387433335,137.4975810410001,137.4975810410001,137.4975810410001,139.58194345799984,,137.4975810410001,137.4975810410001,142.69173616599983,137.4975810410001,137.4975810410001,137.4975810410001,137.4975810410001,137.9613676250001,139.02596645799986,137.93128279166675,,139.58194345799984,140.6514051250001,139.5521648746665,,137.4975810410001,142.69173616599983,137.4975810410001,142.69173616599983,142.69173616599983,143.345237,137.4975810410001,1,1,0.8812982089998513,reldom2_s019,001,2025-02-20_12h53.26.056,Where-B-Scan_AC,2022.2.5,None,
0,0.0,None,fixation,stimulus/audwhere_stim/blank_white.png,stimulus/audwhere_stim/blank_white.png,stimulus/viswhere_stim/blank_white.png,stimulus/viswhere_stim/blank_white.png,stimulus/audwhere_stim/blank_white.png,stimulus/audwhere_stim/blank_white.png,stimulus/audwhere_stim/blank_white.png,stimulus/audwhere_stim/blank_white.png,0.0,0.0,0.0,0.0,0,0.0,0,0.0,0,0.0,0,0.0,0,0.0,0.0,0,0.0,0,0.0,0,0.0,0,0.0,0,0.0,0,0.0,0,0.0,0,0.0,9,,,,,0,13,13,13,,,,,,,,,143.6195092500002,143.6195092500002,143.6195092500002,143.6195092500002,143.6195092500002,143.6195092500002,143.6195092500002,143.6195092500002,143.5192212913336,143.6195092500002,143.6195092500002,143.6195092500002,143.5192212913336,143.6195092500002,143.6195092500002,143.6195092500002,143.6195092500002,143.6195092500002,143.6195092500002,143.6195092500002,143.6195092500002,143.6195092500002,143.6195092500002,143.6195092500002,143.6195092500002,143.6195092500002,143.6195092500002,143.56922129133358,143.6195092500002,143.6195092500002,143.6195092500002,143.56922129133358,143.6195092500002,143.6195092500002,143.6195092500002,143.6195092500002,143.6195092500002,148.80224425000006,148.80224425000006,152.7938639580002,None,0,,reldom2_s019,001,2025-02-20_12h53.26.056,Where-B-Scan_AC,2022.2.5,None,
11,Second_Order,2.0,audwhere,stimulus/audwhere_stim/left_toward_280h.wav,stimulus/audwhere_stim/left_away_290h.wav,stimulus/audwhere_stim/left_away_290h.wav,stimulus/audwhere_stim/right_away_280h.wav,stimulus/audwhere_stim/match_blank.png,stimulus/audwhere_stim/match_box.png,stimulus/audwhere_stim/match_yes.png,stimulus/audwhere_stim/match_no.png,2.0,Match,Side,Direction,2,5.125,0,5.125,0,5.125,0,5.125,0,0.75,0.75,0,0.0,0,0.0,0,0.0,0,0.0,1,0.5,1,2.125,1,0.5,1,2.125,0,,,,,0,14,14,14,,,,,,,,,152.7938639580002,157.91428350000024,152.7938639580002,152.7938639580002,152.7938639580002,152.7938639580002,153.248690333,154.23641933299996,153.26369183266686,,154.8726124159998,155.87035312499984,154.8848243326668,,157.91428350000024,158.7669314159998,160.8483958329998,164.76695466599995,158.7669314159998,158.7669314159998,163.95532224999988,158.7669314159998,158.7669314159998,158.7669314159998,158.7669314159998,159.18319487500003,160.24840137499996,159.15367737466684,,160.8483958329998,161.91740837499992,160.81875462466658,,158.7669314159998,163.95532224999988,158.7669314159998,163.95532224999988,163.95532224999988,,158.7669314159998,2,1,0.8210585420001735,reldom2_s019,001,2025-02-20_12h53.26.056,Where-B-Scan_AC,2022.2.5,None,
12,Second_Order,2.0,audwhere,stimulus/audwhere_stim/left_away_270h.wav,stimulus/audwhere_stim/left_toward_280h.wav,stimulus/audwhere_stim/right_away_280h.wav,stimulus/audwhere_stim/right_toward_300h.wav,stimulus/audwhere_stim/match_blank.png,stimulus/audwhere_stim/match_box.png,stimulus/audwhere_stim/match_yes.png,stimulus/audwhere_stim/match_no.png,1.0,Match,Side,Side,1,5.125,0,5.125,0,5.125,0,5.125,0,0.625,0.625,0,0.0,0,0.0,0,0.0,0,0.0,1,0.5,1,2.125,1,0.5,1,2.125,0,,,,,0,15,15,15,,,,,,,,,164.76695466599995,169.89125983299982,164.76695466599995,164.76695466599995,164.76695466599995,164.76695466599995,165.22527200000013,166.2156074999998,165.22840741666667,166.2156074999998,166.85042699999985,167.8480089579998,166.8623907076665,,169.89125983299982,170.62123820800025,172.6884019160002,,170.62123820800025,170.62123820800025,175.78654458300025,170.62123820800025,170.62123820800025,170.62123820800025,170.62123820800025,171.07801254100013,172.13637445799986,171.0491267496666,,172.6884019160002,173.75262220800005,172.65878766666654,,170.62123820800025,175.78654458300025,170.62123820800025,175.78654458300025,175.78654458300025,176.43753141600018,170.62123820800025,1,1,0.8087957910001933,reldom2_s019,001,2025-02-20_12h53.26.056,Where-B-Scan_AC,2022.2.5,None,
0,0.0,None,fixation,stimulus/audwhere_stim/blank_white.png,stimulus/audwhere_stim/blank_white.png,stimulus/viswhere_stim/blank_white.png,stimulus/viswhere_stim/blank_white.png,stimulus/audwhere_stim/blank_white.png,stimulus/audwhere_stim/blank_white.png,stimulus/audwhere_stim/blank_white.png,stimulus/audwhere_stim/blank_white.png,0.0,0.0,0.0,0.0,0,0.0,0,0.0,0,0.0,0,0.0,0,0.0,0.0,0,0.0,0,0.0,0,0.0,0,0.0,0,0.0,0,0.0,0,0.0,0,0.0,8,,,,,0,16,16,16,,,,,,,,,176.70989691600016,176.70989691600016,176.70989691600016,176.70989691600016,176.70989691600016,176.70989691600016,176.70989691600016,176.70989691600016,176.61167354133354,176.70989691600016,176.70989691600016,176.70989691600016,176.61167354133354,176.70989691600016,176.70989691600016,176.70989691600016,176.70989691600016,176.70989691600016,176.70989691600016,176.70989691600016,176.70989691600016,176.70989691600016,176.70989691600016,176.70989691600016,176.70989691600016,176.70989691600016,176.70989691600016,176.66167354133353,176.70989691600016,176.70989691600016,176.70989691600016,176.66167354133353,176.70989691600016,176.70989691600016,176.70989691600016,176.70989691600016,176.70989691600016,181.93301216600003,181.93301216600003,184.8884521660002,None,0,,reldom2_s019,001,2025-02-20_12h53.26.056,Where-B-Scan_AC,2022.2.5,None,
13,First_Order,3.0,viswhere,stimulus/viswhere_stim/blank_white.png,stimulus/viswhere_stim/blank_white.png,stimulus/viswhere_stim/150-deg_dot-left_seagreen.png,stimulus/viswhere_stim/150-deg_dot-right_royalblue.png,stimulus/viswhere_stim/blank_white.png,stimulus/viswhere_stim/line_box.png,stimulus/viswhere_stim/line_yes.png,stimulus/viswhere_stim/line_no.png,None,Line,None,Line,1,0.0,0,5.125,0,5.125,0,5.125,0,0.0,0.625,0,0.0,0,0.0,1,0.5,1,2.125,0,0.0,0,0.0,0,0.0,0,0.0,0,,,,,0,17,17,17,,,,,,,,,184.8884521660002,184.8884521660002,184.8884521660002,184.8884521660002,184.8884521660002,184.8884521660002,184.8884521660002,184.8884521660002,184.8689634576669,184.8884521660002,184.8884521660002,184.8884521660002,184.8689634576669,184.8884521660002,184.8884521660002,184.8884521660002,186.99485154100012,190.94853087499996,184.8884521660002,184.8884521660002,190.0172858750002,185.372646541,186.37708762500006,186.99485154100012,188.00505487500004,184.8884521660002,184.8884521660002,184.8689634576669,184.8884521660002,184.8884521660002,184.8884521660002,184.8689634576669,184.8884521660002,184.8884521660002,190.0172858750002,184.8884521660002,190.0172858750002,190.1320801249999,190.76067049999983,184.8884521660002,1,1,0.8697843329996431,reldom2_s019,001,2025-02-20_12h53.26.056,Where-B-Scan_AC,2022.2.5,None,
14,First_Order,3.0,viswhere,stimulus/viswhere_stim/blank_white.png,stimulus/viswhere_stim/blank_white.png,stimulus/viswhere_stim/90-deg_dot-right_cyan.png,stimulus/viswhere_stim/90-deg_dot-left_turquoise.png,stimulus/viswhere_stim/blank_white.png,stimulus/viswhere_stim/line_box.png,stimulus/viswhere_stim/line_yes.png,stimulus/viswhere_stim/line_no.png,None,Line,None,Line,1,0.0,0,5.125,0,5.125,0,5.125,0,0.0,0.625,0,0.0,0,0.0,1,0.5,1,2.125,0,0.0,0,0.0,0,0.0,0,0.0,0,,,,,0,18,18,18,,,,,,,,,190.94853087499996,190.94853087499996,190.94853087499996,190.94853087499996,190.94853087499996,190.94853087499996,190.94853087499996,190.94853087499996,190.9275630833334,190.94853087499996,190.94853087499996,190.94853087499996,190.9275630833334,190.94853087499996,190.94853087499996,190.94853087499996,193.05763312499994,197.01365725000005,190.94853087499996,190.94853087499996,196.0737099160001,191.4292009579999,192.44414670800006,193.05763312499994,194.06090062500016,190.94853087499996,190.94853087499996,190.9442297500001,190.94853087499996,190.94853087499996,190.94853087499996,190.9442297500001,190.94853087499996,190.94853087499996,196.0737099160001,190.94853087499996,196.0737099160001,196.17015949999995,196.7972263749998,190.94853087499996,1,1,0.45191704199987726,reldom2_s019,001,2025-02-20_12h53.26.056,Where-B-Scan_AC,2022.2.5,None,
15,First_Order,3.0,viswhere,stimulus/viswhere_stim/blank_white.png,stimulus/viswhere_stim/blank_white.png,stimulus/viswhere_stim/60-deg_dot-right_salmon.png,stimulus/viswhere_stim/150-deg_dot-right_turquoise.png,stimulus/viswhere_stim/blank_white.png,stimulus/viswhere_stim/dot_box.png,stimulus/viswhere_stim/dot_yes.png,stimulus/viswhere_stim/dot_no.png,None,Dot,None,Dot,1,0.0,0,5.125,0,5.125,0,5.125,0,0.0,0.625,0,0.0,0,0.0,1,0.5,1,2.125,0,0.0,0,0.0,0,0.0,0,0.0,0,,,,,0,19,19,19,,,,,,,,,197.01365725000005,197.01365725000005,197.01365725000005,197.01365725000005,197.01365725000005,197.01365725000005,197.01365725000005,197.01365725000005,196.99124933333346,197.01365725000005,197.01365725000005,197.01365725000005,196.99124933333346,197.01365725000005,197.01365725000005,197.01365725000005,199.1230036249999,203.07808454099995,197.01365725000005,197.01365725000005,202.13797991599995,197.49380945800021,198.50973875,199.1230036249999,200.12570841600018,197.01365725000005,197.01365725000005,197.00791600000014,197.01365725000005,197.01365725000005,197.01365725000005,197.00791600000014,197.01365725000005,197.01365725000005,202.13797991599995,197.01365725000005,202.13797991599995,202.23476879100008,202.86126166600025,197.01365725000005,1,1,0.8300848750000114,reldom2_s019,001,2025-02-20_12h53.26.056,Where-B-Scan_AC,2022.2.5,None,
16,First_Order,3.0,viswhere,stimulus/viswhere_stim/blank_white.png,stimulus/viswhere_stim/blank_white.png,stimulus/viswhere_stim/120-deg_dot-left_peru.png,stimulus/viswhere_stim/120-deg_dot-right_royalblue.png,stimulus/viswhere_stim/blank_white.png,stimulus/viswhere_stim/dot_box.png,stimulus/viswhere_stim/dot_yes.png,stimulus/viswhere_stim/dot_no.png,None,Dot,None,Line,2,0.0,0,5.125,0,5.125,0,5.125,0,0.0,0.625,0,0.0,0,0.0,1,0.5,1,2.125,0,0.0,0,0.0,0,0.0,0,0.0,0,,,,,0,20,20,20,,,,,,,,,203.07808454099995,203.07808454099995,203.07808454099995,203.07808454099995,203.07808454099995,203.07808454099995,203.07808454099995,203.07808454099995,203.0553403743332,203.07808454099995,203.07808454099995,203.07808454099995,203.0553403743332,203.07808454099995,203.07808454099995,203.07808454099995,205.19117066599983,209.2180283329999,203.07808454099995,203.07808454099995,208.22380854099993,203.5541169160001,204.56247862500004,205.19117066599983,206.20854954100014,203.07808454099995,203.07808454099995,203.0720070409999,203.07808454099995,203.07808454099995,203.07808454099995,203.0720070409999,203.07808454099995,203.07808454099995,208.22380854099993,203.07808454099995,208.22380854099993,208.29480783300005,208.92544937499997,203.07808454099995,2,1,0.6874398330000986,reldom2_s019,001,2025-02-20_12h53.26.056,Where-B-Scan_AC,2022.2.5,None,
0,0.0,None,fixation,stimulus/audwhere_stim/blank_white.png,stimulus/audwhere_stim/blank_white.png,stimulus/viswhere_stim/blank_white.png,stimulus/viswhere_stim/blank_white.png,stimulus/audwhere_stim/blank_white.png,stimulus/audwhere_stim/blank_white.png,stimulus/audwhere_stim/blank_white.png,stimulus/audwhere_stim/blank_white.png,0.0,0.0,0.0,0.0,0,0.0,0,0.0,0,0.0,0,0.0,0,0.0,0.0,0,0.0,0,0.0,0,0.0,0,0.0,0,0.0,0,0.0,0,0.0,0,0.0,10,,,,,0,21,21,21,,,,,,,,,209.2180283329999,209.2180283329999,209.2180283329999,209.2180283329999,209.2180283329999,209.2180283329999,209.2180283329999,209.2180283329999,209.11968591633317,209.2180283329999,209.2180283329999,209.2180283329999,209.11968591633317,209.2180283329999,209.2180283329999,209.2180283329999,209.2180283329999,209.2180283329999,209.2180283329999,209.2180283329999,209.2180283329999,209.2180283329999,209.2180283329999,209.2180283329999,209.2180283329999,209.2180283329999,209.2180283329999,209.16968591633318,209.2180283329999,209.2180283329999,209.2180283329999,209.16968591633318,209.2180283329999,209.2180283329999,209.2180283329999,209.2180283329999,209.2180283329999,214.4172323329999,214.4172323329999,219.36104225000008,None,0,,reldom2_s019,001,2025-02-20_12h53.26.056,Where-B-Scan_AC,2022.2.5,None,
17,Second_Order,3.0,viswhere,stimulus/viswhere_stim/90-deg_dot-left_lightsseagreen.png,stimulus/viswhere_stim/90-deg_dot-right_lightsseagreen.png,stimulus/viswhere_stim/120-deg_dot-right_cyan.png,stimulus/viswhere_stim/60-deg_dot-right_royalblue.png,stimulus/audwhere_stim/match_blank.png,stimulus/audwhere_stim/match_box.png,stimulus/audwhere_stim/match_yes.png,stimulus/audwhere_stim/match_no.png,2.0,Match,Line,Dot,2,5.125,0,5.125,0,5.125,0,5.125,0,0.75,0.75,1,0.5,1,2.125,1,0.5,1,2.125,0,0.0,0,0.0,0,0.0,0,0.0,0,,,,,0,22,22,22,,,,,,,,,219.36104225000008,224.48414912499993,219.83710791600015,220.824132791,221.45895016600025,222.4575652909998,219.36104225000008,219.36104225000008,219.37497549933337,219.36104225000008,219.36104225000008,219.36104225000008,219.37497549933337,219.36104225000008,224.48414912499993,225.27706783299982,227.3529484159999,231.24682441599998,225.27706783299982,225.27706783299982,230.411558625,225.72076604099993,226.7374124580001,227.3529484159999,228.35842866600024,225.27706783299982,225.27706783299982,225.26665241600023,225.27706783299982,225.27706783299982,225.27706783299982,225.26665241600023,225.27706783299982,225.27706783299982,230.411558625,225.27706783299982,230.411558625,230.47235845800014,231.24682441599998,225.27706783299982,2,1,0.6021297920001416,reldom2_s019,001,2025-02-20_12h53.26.056,Where-B-Scan_AC,2022.2.5,None,
18,Second_Order,3.0,viswhere,stimulus/viswhere_stim/90-deg_dot-left_lightsseagreen.png,stimulus/viswhere_stim/60-deg_dot-left_mediumslateblue.png,stimulus/viswhere_stim/60-deg_dot-right_lightsseagreen.png,stimulus/viswhere_stim/30-deg_dot-right_goldenrod.png,stimulus/audwhere_stim/match_blank.png,stimulus/audwhere_stim/match_box.png,stimulus/audwhere_stim/match_yes.png,stimulus/audwhere_stim/match_no.png,1.0,Match,Dot,Dot,1,5.125,0,5.125,0,5.125,0,5.125,0,0.625,0.625,1,0.5,1,2.125,1,0.5,1,2.125,0,0.0,0,0.0,0,0.0,0,0.0,0,,,,,0,23,23,23,,,,,,,,,231.24682441599998,236.36102387500023,231.73291345799998,232.73134941599983,233.35365141600005,234.3515735000001,231.24682441599998,231.24682441599998,231.26010675000026,231.24682441599998,231.24682441599998,231.24682441599998,231.26010675000026,231.24682441599998,236.36102387500023,237.03282045800006,239.1060815410001,243.1489498750002,237.03282045800006,237.03282045800006,242.15811050000002,237.47738945799983,238.49216149999984,239.1060815410001,240.10774175000006,237.03282045800006,237.03282045800006,237.0078509163332,237.03282045800006,237.03282045800006,237.03282045800006,237.0078509163332,237.03282045800006,237.03282045800006,242.15811050000002,237.03282045800006,242.15811050000002,242.2267338329998,242.85374762499987,237.03282045800006,1,1,0.4930918339996424,reldom2_s019,001,2025-02-20_12h53.26.056,Where-B-Scan_AC,2022.2.5,None,
0,0.0,None,fixation,stimulus/audwhere_stim/blank_white.png,stimulus/audwhere_stim/blank_white.png,stimulus/viswhere_stim/blank_white.png,stimulus/viswhere_stim/blank_white.png,stimulus/audwhere_stim/blank_white.png,stimulus/audwhere_stim/blank_white.png,stimulus/audwhere_stim/blank_white.png,stimulus/audwhere_stim/blank_white.png,0.0,0.0,0.0,0.0,0,0.0,0,0.0,0,0.0,0,0.0,0,0.0,0.0,0,0.0,0,0.0,0,0.0,0,0.0,0,0.0,0,0.0,0,0.0,0,0.0,9,,,,,0,24,24,24,,,,,,,,,243.1489498750002,243.1489498750002,243.1489498750002,243.1489498750002,243.1489498750002,243.1489498750002,243.1489498750002,243.1489498750002,243.04738183333333,243.1489498750002,243.1489498750002,243.1489498750002,243.04738183333333,243.1489498750002,243.1489498750002,243.1489498750002,243.1489498750002,243.1489498750002,243.1489498750002,243.1489498750002,243.1489498750002,243.1489498750002,243.1489498750002,243.1489498750002,243.1489498750002,243.1489498750002,243.1489498750002,243.09738183333334,243.1489498750002,243.1489498750002,243.1489498750002,243.09738183333334,243.1489498750002,243.1489498750002,243.1489498750002,243.1489498750002,243.1489498750002,248.32863954100003,248.32863954100003,252.36605312500024,None,0,,reldom2_s019,001,2025-02-20_12h53.26.056,Where-B-Scan_AC,2022.2.5,None,
19,First_Order,4.0,viswhere,stimulus/viswhere_stim/blank_white.png,stimulus/viswhere_stim/blank_white.png,stimulus/viswhere_stim/90-deg_dot-left_seagreen.png,stimulus/viswhere_stim/150-deg_dot-left_lightsseagreen.png,stimulus/viswhere_stim/blank_white.png,stimulus/viswhere_stim/dot_box.png,stimulus/viswhere_stim/dot_yes.png,stimulus/viswhere_stim/dot_no.png,None,Dot,None,Dot,1,0.0,0,5.125,0,5.125,0,5.125,0,0.0,0.625,0,0.0,0,0.0,1,0.5,1,2.125,0,0.0,0,0.0,0,0.0,0,0.0,0,,,,,0,25,25,25,,,,,,,,,252.36605312500024,252.36605312500024,252.36605312500024,252.36605312500024,252.36605312500024,252.36605312500024,252.36605312500024,252.36605312500024,252.3464519576666,252.36605312500024,252.36605312500024,252.36605312500024,252.3464519576666,252.36605312500024,252.36605312500024,252.36605312500024,254.47964629099988,258.4295550410002,252.36605312500024,252.36605312500024,257.5043890410002,252.8469681659999,253.86612716599984,254.47964629099988,255.48732637500007,252.36605312500024,252.36605312500024,252.3464519576666,252.36605312500024,252.36605312500024,252.36605312500024,252.3464519576666,252.36605312500024,252.36605312500024,257.5043890410002,252.36605312500024,257.5043890410002,257.5877833750001,258.21326758299983,252.36605312500024,1,1,0.586086540999986,reldom2_s019,001,2025-02-20_12h53.26.056,Where-B-Scan_AC,2022.2.5,None,
20,First_Order,4.0,viswhere,stimulus/viswhere_stim/blank_white.png,stimulus/viswhere_stim/blank_white.png,stimulus/viswhere_stim/30-deg_dot-left_peru.png,stimulus/viswhere_stim/30-deg_dot-right_salmon.png,stimulus/viswhere_stim/blank_white.png,stimulus/viswhere_stim/dot_box.png,stimulus/viswhere_stim/dot_yes.png,stimulus/viswhere_stim/dot_no.png,None,Dot,None,Line,2,0.0,0,5.125,0,5.125,0,5.125,0,0.0,0.625,0,0.0,0,0.0,1,0.5,1,2.125,0,0.0,0,0.0,0,0.0,0,0.0,0,,,,,0,26,26,26,,,,,,,,,258.4295550410002,258.4295550410002,258.4295550410002,258.4295550410002,258.4295550410002,258.4295550410002,258.4295550410002,258.4295550410002,258.40834945833313,258.4295550410002,258.4295550410002,258.4295550410002,258.40834945833313,258.4295550410002,258.4295550410002,258.4295550410002,260.545851458,264.494156666,258.4295550410002,258.4295550410002,263.5683290000002,258.905437291,259.917913708,260.545851458,261.565018625,258.4295550410002,258.4295550410002,258.4250161249998,258.4295550410002,258.4295550410002,258.4295550410002,258.4250161249998,258.4295550410002,258.4295550410002,263.5683290000002,258.4295550410002,263.5683290000002,263.65162329099985,264.27711979100013,258.4295550410002,2,1,0.6021610409998175,reldom2_s019,001,2025-02-20_12h53.26.056,Where-B-Scan_AC,2022.2.5,None,
21,First_Order,4.0,viswhere,stimulus/viswhere_stim/blank_white.png,stimulus/viswhere_stim/blank_white.png,stimulus/viswhere_stim/60-deg_dot-left_lightsseagreen.png,stimulus/viswhere_stim/30-deg_dot-left_slateblue.png,stimulus/viswhere_stim/blank_white.png,stimulus/viswhere_stim/line_box.png,stimulus/viswhere_stim/line_yes.png,stimulus/viswhere_stim/line_no.png,None,Line,None,Dot,2,0.0,0,5.125,0,5.125,0,5.125,0,0.0,0.625,0,0.0,0,0.0,1,0.5,1,2.125,0,0.0,0,0.0,0,0.0,0,0.0,0,,,,,0,27,27,27,,,,,,,,,264.494156666,264.494156666,264.494156666,264.494156666,264.494156666,264.494156666,264.494156666,264.494156666,264.47307799933316,264.494156666,264.494156666,264.494156666,264.47307799933316,264.494156666,264.494156666,264.494156666,266.59606379100023,270.5554738750002,264.494156666,264.494156666,269.6254341250001,264.9722293330001,265.98603541600005,266.59606379100023,267.5993386660002,264.494156666,264.494156666,264.4897446659998,264.494156666,264.494156666,264.494156666,264.4897446659998,264.494156666,264.494156666,269.6254341250001,264.494156666,269.6254341250001,269.71293724999987,270.33801833300004,264.494156666,2,1,0.6744717500000661,reldom2_s019,001,2025-02-20_12h53.26.056,Where-B-Scan_AC,2022.2.5,None,
22,First_Order,4.0,viswhere,stimulus/viswhere_stim/blank_white.png,stimulus/viswhere_stim/blank_white.png,stimulus/viswhere_stim/120-deg_dot-right_peru.png,stimulus/viswhere_stim/150-deg_dot-right_peru.png,stimulus/viswhere_stim/blank_white.png,stimulus/viswhere_stim/line_box.png,stimulus/viswhere_stim/line_yes.png,stimulus/viswhere_stim/line_no.png,None,Line,None,Dot,2,0.0,0,5.125,0,5.125,0,5.125,0,0.0,0.625,0,0.0,0,0.0,1,0.5,1,2.125,0,0.0,0,0.0,0,0.0,0,0.0,0,,,,,0,28,28,28,,,,,,,,,270.5554738750002,270.5554738750002,270.5554738750002,270.5554738750002,270.5554738750002,270.5554738750002,270.5554738750002,270.5554738750002,270.5343423333332,270.5554738750002,270.5554738750002,270.5554738750002,270.5343423333332,270.5554738750002,270.5554738750002,270.5554738750002,272.66909666599986,276.7009319160002,270.5554738750002,270.5554738750002,275.6796529160001,271.0368762080002,272.055458625,272.66909666599986,273.6770315409999,270.5554738750002,270.5554738750002,270.55100899999985,270.5554738750002,270.5554738750002,270.5554738750002,270.55100899999985,270.5554738750002,270.5554738750002,275.6796529160001,270.5554738750002,275.6796529160001,275.77691504099994,276.40236483299987,270.5554738750002,1,0,0.7419866250002087,reldom2_s019,001,2025-02-20_12h53.26.056,Where-B-Scan_AC,2022.2.5,None,
0,0.0,None,fixation,stimulus/audwhere_stim/blank_white.png,stimulus/audwhere_stim/blank_white.png,stimulus/viswhere_stim/blank_white.png,stimulus/viswhere_stim/blank_white.png,stimulus/audwhere_stim/blank_white.png,stimulus/audwhere_stim/blank_white.png,stimulus/audwhere_stim/blank_white.png,stimulus/audwhere_stim/blank_white.png,0.0,0.0,0.0,0.0,0,0.0,0,0.0,0,0.0,0,0.0,0,0.0,0.0,0,0.0,0,0.0,0,0.0,0,0.0,0,0.0,0,0.0,0,0.0,0,0.0,10,,,,,0,29,29,29,,,,,,,,,276.7009319160002,276.7009319160002,276.7009319160002,276.7009319160002,276.7009319160002,276.7009319160002,276.7009319160002,276.7009319160002,276.6027869583334,276.7009319160002,276.7009319160002,276.7009319160002,276.6027869583334,276.7009319160002,276.7009319160002,276.7009319160002,276.7009319160002,276.7009319160002,276.7009319160002,276.7009319160002,276.7009319160002,276.7009319160002,276.7009319160002,276.7009319160002,276.7009319160002,276.7009319160002,276.7009319160002,276.6527869583334,276.7009319160002,276.7009319160002,276.7009319160002,276.6527869583334,276.7009319160002,276.7009319160002,276.7009319160002,276.7009319160002,276.7009319160002,281.9016872500001,281.9016872500001,286.8398082499998,None,0,,reldom2_s019,001,2025-02-20_12h53.26.056,Where-B-Scan_AC,2022.2.5,None,
23,Second_Order,4.0,viswhere,stimulus/viswhere_stim/60-deg_dot-right_peru.png,stimulus/viswhere_stim/60-deg_dot-left_royalblue.png,stimulus/viswhere_stim/90-deg_dot-left_slateblue.png,stimulus/viswhere_stim/90-deg_dot-right_royalblue.png,stimulus/audwhere_stim/match_blank.png,stimulus/audwhere_stim/match_box.png,stimulus/audwhere_stim/match_yes.png,stimulus/audwhere_stim/match_no.png,1.0,Match,Line,Line,1,5.125,0,5.125,0,5.125,0,5.125,0,0.75,0.75,1,0.5,1,2.125,1,0.5,1,2.125,0,0.0,0,0.0,0,0.0,0,0.0,0,,,,,0,30,30,30,,,,,,,,,286.8398082499998,291.9555477499998,287.32420654099997,288.3142349579998,288.94904229099984,289.9468798749999,286.8398082499998,286.8398082499998,286.85430974933354,286.8398082499998,286.8398082499998,286.8398082499998,286.85430974933354,286.8398082499998,291.9555477499998,292.74806483300017,294.8340176659999,298.7214335409999,292.74806483300017,292.74806483300017,297.872373875,293.19633562499985,294.19967025000005,294.8340176659999,295.8455248330001,292.74806483300017,292.74806483300017,292.72362533333353,292.74806483300017,292.74806483300017,292.74806483300017,292.72362533333353,292.74806483300017,292.74806483300017,297.872373875,292.74806483300017,297.872373875,297.9421117500001,298.7214335409999,292.74806483300017,1,1,0.4845751249999921,reldom2_s019,001,2025-02-20_12h53.26.056,Where-B-Scan_AC,2022.2.5,None,
24,Second_Order,4.0,viswhere,stimulus/viswhere_stim/120-deg_dot-left_peru.png,stimulus/viswhere_stim/120-deg_dot-right_peru.png,stimulus/viswhere_stim/30-deg_dot-right_peru.png,stimulus/viswhere_stim/30-deg_dot-left_lightsseagreen.png,stimulus/audwhere_stim/match_blank.png,stimulus/audwhere_stim/match_box.png,stimulus/audwhere_stim/match_yes.png,stimulus/audwhere_stim/match_no.png,1.0,Match,Line,Line,1,5.125,0,5.125,0,5.125,0,5.125,0,0.625,0.625,1,0.5,1,2.125,1,0.5,1,2.125,0,0.0,0,0.0,0,0.0,0,0.0,0,,,,,0,31,31,31,,,,,,,,,298.7214335409999,303.83368500000006,299.2051483330001,300.20382308299986,300.8266789160002,301.82416854099984,298.7214335409999,298.7214335409999,298.7355855409999,298.7214335409999,298.7214335409999,298.7214335409999,298.7355855409999,298.7214335409999,303.83368500000006,304.5050450829999,306.579148583,310.6175786660001,304.5050450829999,304.5050450829999,309.6415672500002,304.95016824999993,305.96674491600015,306.579148583,307.58483379100016,304.5050450829999,304.5050450829999,304.4804309583333,304.5050450829999,304.5050450829999,304.5050450829999,304.4804309583333,304.5050450829999,304.5050450829999,309.6415672500002,304.5050450829999,309.6415672500002,309.69627687499997,310.32303579100017,304.5050450829999,1,1,0.6329908329998943,reldom2_s019,001,2025-02-20_12h53.26.056,Where-B-Scan_AC,2022.2.5,None,
0,0.0,None,fixation,stimulus/audwhere_stim/blank_white.png,stimulus/audwhere_stim/blank_white.png,stimulus/viswhere_stim/blank_white.png,stimulus/viswhere_stim/blank_white.png,stimulus/audwhere_stim/blank_white.png,stimulus/audwhere_stim/blank_white.png,stimulus/audwhere_stim/blank_white.png,stimulus/audwhere_stim/blank_white.png,0.0,0.0,0.0,0.0,0,0.0,0,0.0,0,0.0,0,0.0,0,0.0,0.0,0,0.0,0,0.0,0,0.0,0,0.0,0,0.0,0,0.0,0,0.0,0,0.0,9,,,,,0,32,32,32,,,,,,,,,310.6175786660001,310.6175786660001,310.6175786660001,310.6175786660001,310.6175786660001,310.6175786660001,310.6175786660001,310.6175786660001,310.5172069583335,310.6175786660001,310.6175786660001,310.6175786660001,310.5172069583335,310.6175786660001,310.6175786660001,310.6175786660001,310.6175786660001,310.6175786660001,310.6175786660001,310.6175786660001,310.6175786660001,310.6175786660001,310.6175786660001,310.6175786660001,310.6175786660001,310.6175786660001,310.6175786660001,310.5672069583335,310.6175786660001,310.6175786660001,310.6175786660001,310.5672069583335,310.6175786660001,310.6175786660001,310.6175786660001,310.6175786660001,310.6175786660001,315.8077882910002,315.8077882910002,319.846608541,None,0,,reldom2_s019,001,2025-02-20_12h53.26.056,Where-B-Scan_AC,2022.2.5,None,
25,First_Order,5.0,audwhere,stimulus/audwhere_stim/dummy.wav,stimulus/audwhere_stim/dummy.wav,stimulus/audwhere_stim/right_toward_280h.wav,stimulus/audwhere_stim/right_away_290h.wav,stimulus/audwhere_stim/blank_white.png,stimulus/audwhere_stim/side_box.png,stimulus/audwhere_stim/side_yes.png,stimulus/audwhere_stim/side_no.png,None,Side,None,Side,1,0.0,0,5.125,0,5.125,0,5.125,0,0.0,0.625,0,0.0,0,0.0,0,0.0,0,0.0,0,0.0,0,0.0,1,0.5,1,2.125,0,,,,,0,33,33,33,,,,,,,,,319.846608541,319.846608541,319.846608541,319.846608541,319.846608541,319.846608541,319.846608541,319.846608541,319.7744352916667,319.846608541,319.846608541,319.846608541,319.7744352916667,319.846608541,319.846608541,319.846608541,321.9365776660002,,319.846608541,319.846608541,325.0056313750001,319.846608541,319.846608541,319.846608541,319.846608541,320.31059374999995,321.37888625000005,320.28066574966647,,321.9365776660002,323.0097626659999,321.9065617496665,,319.846608541,325.0056313750001,319.846608541,325.0056313750001,325.047233666,325.702527166,319.846608541,1,1,0.6774616249999781,reldom2_s019,001,2025-02-20_12h53.26.056,Where-B-Scan_AC,2022.2.5,None,
26,First_Order,5.0,audwhere,stimulus/audwhere_stim/dummy.wav,stimulus/audwhere_stim/dummy.wav,stimulus/audwhere_stim/right_toward_300h.wav,stimulus/audwhere_stim/left_toward_270h.wav,stimulus/audwhere_stim/blank_white.png,stimulus/audwhere_stim/direction_box.png,stimulus/audwhere_stim/direction_yes.png,stimulus/audwhere_stim/direction_no.png,None,Direction,None,Direction,1,0.0,0,5.125,0,5.125,0,5.125,0,0.0,0.625,0,0.0,0,0.0,0,0.0,0,0.0,0,0.0,0,0.0,1,0.5,1,2.125,0,,,,,0,34,34,34,,,,,,,,,325.9568195410002,325.9568195410002,325.9568195410002,325.9568195410002,325.9568195410002,325.9568195410002,325.9568195410002,325.9568195410002,325.87684062433357,325.9568195410002,325.9568195410002,325.9568195410002,325.87684062433357,325.9568195410002,325.9568195410002,325.9568195410002,328.0594464579999,,325.9568195410002,325.9568195410002,331.1412337080001,325.9568195410002,325.9568195410002,325.9568195410002,325.9568195410002,326.42460233300017,327.4538030829999,326.3942864576668,,328.0594464579999,329.0915785410002,328.0293087076668,,325.9568195410002,331.1412337080001,325.9568195410002,331.1412337080001,331.1825140830001,331.839338666,325.9568195410002,1,1,0.9362793749996854,reldom2_s019,001,2025-02-20_12h53.26.056,Where-B-Scan_AC,2022.2.5,None,
27,First_Order,5.0,audwhere,stimulus/audwhere_stim/dummy.wav,stimulus/audwhere_stim/dummy.wav,stimulus/audwhere_stim/left_toward_290h.wav,stimulus/audwhere_stim/left_away_300h.wav,stimulus/audwhere_stim/blank_white.png,stimulus/audwhere_stim/direction_box.png,stimulus/audwhere_stim/direction_yes.png,stimulus/audwhere_stim/direction_no.png,None,Direction,None,Side,2,0.0,0,5.125,0,5.125,0,5.125,0,0.0,0.625,0,0.0,0,0.0,0,0.0,0,0.0,0,0.0,0,0.0,1,0.5,1,2.125,0,,,,,0,35,35,35,,,,,,,,,332.052628166,332.052628166,332.052628166,332.052628166,332.052628166,332.052628166,332.052628166,332.052628166,331.97267199933333,332.052628166,332.052628166,332.052628166,331.97267199933333,332.052628166,332.052628166,332.052628166,334.1449509160002,338.17019141599985,332.052628166,332.052628166,337.21683354100014,332.052628166,332.052628166,332.052628166,332.052628166,332.51823483299995,333.58763495799985,332.4888724996665,,334.1449509160002,335.21639970800015,334.1146931246665,,332.052628166,337.21683354100014,332.052628166,337.21683354100014,337.258149583,337.9160954580002,332.052628166,2,1,0.883462917000088,reldom2_s019,001,2025-02-20_12h53.26.056,Where-B-Scan_AC,2022.2.5,None,
28,First_Order,5.0,audwhere,stimulus/audwhere_stim/dummy.wav,stimulus/audwhere_stim/dummy.wav,stimulus/audwhere_stim/right_away_300h.wav,stimulus/audwhere_stim/right_toward_290h.wav,stimulus/audwhere_stim/blank_white.png,stimulus/audwhere_stim/direction_box.png,stimulus/audwhere_stim/direction_yes.png,stimulus/audwhere_stim/direction_no.png,None,Direction,None,Side,2,0.0,0,5.125,0,5.125,0,5.125,0,0.0,0.625,0,0.0,0,0.0,0,0.0,0,0.0,0,0.0,0,0.0,1,0.5,1,2.125,0,,,,,0,36,36,36,,,,,,,,,338.17019141599985,338.17019141599985,338.17019141599985,338.17019141599985,338.17019141599985,338.17019141599985,338.17019141599985,338.17019141599985,338.09068379133316,338.17019141599985,338.17019141599985,338.17019141599985,338.09068379133316,338.17019141599985,338.17019141599985,338.17019141599985,340.2729582910001,,338.17019141599985,338.17019141599985,343.35929725000005,338.17019141599985,338.17019141599985,338.17019141599985,338.17019141599985,338.63831166599994,339.71345091600006,338.6077554166666,,340.2729582910001,341.3038848330002,340.24283958266665,,338.17019141599985,343.35929725000005,338.17019141599985,343.35929725000005,343.4005149579998,344.05790804100025,338.17019141599985,2,1,1.0847057089999907,reldom2_s019,001,2025-02-20_12h53.26.056,Where-B-Scan_AC,2022.2.5,None,
0,0.0,None,fixation,stimulus/audwhere_stim/blank_white.png,stimulus/audwhere_stim/blank_white.png,stimulus/viswhere_stim/blank_white.png,stimulus/viswhere_stim/blank_white.png,stimulus/audwhere_stim/blank_white.png,stimulus/audwhere_stim/blank_white.png,stimulus/audwhere_stim/blank_white.png,stimulus/audwhere_stim/blank_white.png,0.0,0.0,0.0,0.0,0,0.0,0,0.0,0,0.0,0,0.0,0,0.0,0.0,0,0.0,0,0.0,0,0.0,0,0.0,0,0.0,0,0.0,0,0.0,0,0.0,10,,,,,0,37,37,37,,,,,,,,,344.29343737499994,344.29343737499994,344.29343737499994,344.29343737499994,344.29343737499994,344.29343737499994,344.29343737499994,344.29343737499994,344.1912413743336,344.29343737499994,344.29343737499994,344.29343737499994,344.1912413743336,344.29343737499994,344.29343737499994,344.29343737499994,344.29343737499994,344.29343737499994,344.29343737499994,344.29343737499994,344.29343737499994,344.29343737499994,344.29343737499994,344.29343737499994,344.29343737499994,344.29343737499994,344.29343737499994,344.2412413743336,344.29343737499994,344.29343737499994,344.29343737499994,344.2412413743336,344.29343737499994,344.29343737499994,344.29343737499994,344.29343737499994,344.29343737499994,349.50532950000024,349.50532950000024,354.426697291,None,0,,reldom2_s019,001,2025-02-20_12h53.26.056,Where-B-Scan_AC,2022.2.5,None,
29,Second_Order,5.0,audwhere,stimulus/audwhere_stim/right_toward_270h.wav,stimulus/audwhere_stim/right_away_280h.wav,stimulus/audwhere_stim/left_away_270h.wav,stimulus/audwhere_stim/right_away_300h.wav,stimulus/audwhere_stim/match_blank.png,stimulus/audwhere_stim/match_box.png,stimulus/audwhere_stim/match_yes.png,stimulus/audwhere_stim/match_no.png,2.0,Match,Side,Direction,2,5.125,0,5.125,0,5.125,0,5.125,0,0.75,0.75,0,0.0,0,0.0,0,0.0,0,0.0,1,0.5,1,2.125,1,0.5,1,2.125,0,,,,,0,38,38,38,,,,,,,,,354.426697291,359.54646950000006,354.426697291,354.426697291,354.426697291,354.426697291,354.8838312080002,355.8822061249998,354.8967262916665,,356.50486916599993,357.5032551250001,356.51727041666686,,359.54646950000006,360.3960817080001,362.44054808300007,,360.3960817080001,360.3960817080001,365.55777579100004,360.3960817080001,360.3960817080001,360.3960817080001,360.3960817080001,360.8138118329998,361.88352429099996,360.7839251666667,,362.44054808300007,363.51512245799995,362.41057462466665,,360.3960817080001,365.55777579100004,360.3960817080001,365.55777579100004,365.55777579100004,,360.3960817080001,2,1,0.5850418749996606,reldom2_s019,001,2025-02-20_12h53.26.056,Where-B-Scan_AC,2022.2.5,None,
30,Second_Order,5.0,audwhere,stimulus/audwhere_stim/right_away_300h.wav,stimulus/audwhere_stim/right_toward_300h.wav,stimulus/audwhere_stim/left_toward_290h.wav,stimulus/audwhere_stim/left_away_270h.wav,stimulus/audwhere_stim/match_blank.png,stimulus/audwhere_stim/match_box.png,stimulus/audwhere_stim/match_yes.png,stimulus/audwhere_stim/match_no.png,1.0,Match,Side,Side,1,5.125,0,5.125,0,5.125,0,5.125,0,0.625,0.625,0,0.0,0,0.0,0,0.0,0,0.0,1,0.5,1,2.125,1,0.5,1,2.125,0,,,,,0,39,39,39,,,,,,,,,366.3710903750002,371.4917435000002,366.3710903750002,366.3710903750002,366.3710903750002,366.3710903750002,366.82822883300014,367.82683700000007,366.8410515826665,,368.4501565830001,369.447178333,368.4614440416665,,371.4917435000002,372.21803124999997,374.30180500000006,378.33744312499994,372.21803124999997,372.21803124999997,377.4093681250001,372.21803124999997,372.21803124999997,372.21803124999997,372.21803124999997,372.6794292499999,373.74562908300004,372.6493667076668,,374.30180500000006,375.3718247910001,374.27217354166646,,372.21803124999997,377.4093681250001,372.21803124999997,377.4093681250001,377.4093681250001,378.0637417500002,372.21803124999997,1,1,0.6875131249998958,reldom2_s019,001,2025-02-20_12h53.26.056,Where-B-Scan_AC,2022.2.5,None,
0,0.0,None,fixation,stimulus/audwhere_stim/blank_white.png,stimulus/audwhere_stim/blank_white.png,stimulus/viswhere_stim/blank_white.png,stimulus/viswhere_stim/blank_white.png,stimulus/audwhere_stim/blank_white.png,stimulus/audwhere_stim/blank_white.png,stimulus/audwhere_stim/blank_white.png,stimulus/audwhere_stim/blank_white.png,0.0,0.0,0.0,0.0,0,0.0,0,0.0,0,0.0,0,0.0,0,0.0,0.0,0,0.0,0,0.0,0,0.0,0,0.0,0,0.0,0,0.0,0,0.0,0,0.0,8,,,,,0,40,40,40,,,,,,,,,378.33744312499994,378.33744312499994,378.33744312499994,378.33744312499994,378.33744312499994,378.33744312499994,378.33744312499994,378.33744312499994,378.2378455833333,378.33744312499994,378.33744312499994,378.33744312499994,378.2378455833333,378.33744312499994,378.33744312499994,378.33744312499994,378.33744312499994,378.33744312499994,378.33744312499994,378.33744312499994,378.33744312499994,378.33744312499994,378.33744312499994,378.33744312499994,378.33744312499994,378.33744312499994,378.33744312499994,378.2878455833333,378.33744312499994,378.33744312499994,378.33744312499994,378.2878455833333,378.33744312499994,378.33744312499994,378.33744312499994,378.33744312499994,378.33744312499994,383.5716224160001,383.5716224160001,386.59193862500024,None,0,,reldom2_s019,001,2025-02-20_12h53.26.056,Where-B-Scan_AC,2022.2.5,None,
31,First_Order,6.0,audwhere,stimulus/audwhere_stim/dummy.wav,stimulus/audwhere_stim/dummy.wav,stimulus/audwhere_stim/left_toward_270h.wav,stimulus/audwhere_stim/right_toward_280h.wav,stimulus/audwhere_stim/blank_white.png,stimulus/audwhere_stim/side_box.png,stimulus/audwhere_stim/side_yes.png,stimulus/audwhere_stim/side_no.png,None,Side,None,Direction,2,0.0,0,5.125,0,5.125,0,5.125,0,0.0,0.625,0,0.0,0,0.0,0,0.0,0,0.0,0,0.0,0,0.0,1,0.5,1,2.125,0,,,,,0,41,41,41,,,,,,,,,386.59193862500024,386.59193862500024,386.59193862500024,386.59193862500024,386.59193862500024,386.59193862500024,386.59193862500024,386.59193862500024,386.51937829166684,386.59193862500024,386.59193862500024,386.59193862500024,386.51937829166684,386.59193862500024,386.59193862500024,386.59193862500024,388.68189941599985,,386.59193862500024,386.59193862500024,391.74854887499987,386.59193862500024,386.59193862500024,386.59193862500024,386.59193862500024,387.0576317499999,388.1245569580001,387.0271644576667,,388.68189941599985,389.75414304100013,388.6518135826666,,386.59193862500024,391.74854887499987,386.59193862500024,391.74854887499987,391.78923458300005,392.442988666,386.59193862500024,2,1,0.8334745420002037,reldom2_s019,001,2025-02-20_12h53.26.056,Where-B-Scan_AC,2022.2.5,None,
32,First_Order,6.0,audwhere,stimulus/audwhere_stim/dummy.wav,stimulus/audwhere_stim/dummy.wav,stimulus/audwhere_stim/right_toward_280h.wav,stimulus/audwhere_stim/left_toward_290h.wav,stimulus/audwhere_stim/blank_white.png,stimulus/audwhere_stim/direction_box.png,stimulus/audwhere_stim/direction_yes.png,stimulus/audwhere_stim/direction_no.png,None,Direction,None,Direction,1,0.0,0,5.125,0,5.125,0,5.125,0,0.0,0.625,0,0.0,0,0.0,0,0.0,0,0.0,0,0.0,0,0.0,1,0.5,1,2.125,0,,,,,0,42,42,42,,,,,,,,,392.6966307910002,392.6966307910002,392.6966307910002,392.6966307910002,392.6966307910002,392.6966307910002,392.6966307910002,392.6966307910002,392.6173596243335,392.6966307910002,392.6966307910002,392.6966307910002,392.6173596243335,392.6966307910002,392.6966307910002,392.6966307910002,394.80067737499985,,392.6966307910002,392.6966307910002,397.8875732910001,392.6966307910002,392.6966307910002,392.6966307910002,392.6966307910002,393.166532833,394.240110875,393.13600933266684,,394.80067737499985,395.83571166599995,394.77035124966665,,392.6966307910002,397.8875732910001,392.6966307910002,397.8875732910001,397.8875732910001,398.5439799159999,392.6966307910002,1,1,0.8040905419998126,reldom2_s019,001,2025-02-20_12h53.26.056,Where-B-Scan_AC,2022.2.5,None,
33,First_Order,6.0,audwhere,stimulus/audwhere_stim/dummy.wav,stimulus/audwhere_stim/dummy.wav,stimulus/audwhere_stim/left_toward_270h.wav,stimulus/audwhere_stim/left_away_300h.wav,stimulus/audwhere_stim/blank_white.png,stimulus/audwhere_stim/side_box.png,stimulus/audwhere_stim/side_yes.png,stimulus/audwhere_stim/side_no.png,None,Side,None,Side,1,0.0,0,5.125,0,5.125,0,5.125,0,0.0,0.625,0,0.0,0,0.0,0,0.0,0,0.0,0,0.0,0,0.0,1,0.5,1,2.125,0,,,,,0,43,43,43,,,,,,,,,398.79780762500013,398.79780762500013,398.79780762500013,398.79780762500013,398.79780762500013,398.79780762500013,398.79780762500013,398.79780762500013,398.7183667913333,398.79780762500013,398.79780762500013,398.79780762500013,398.7183667913333,398.79780762500013,398.79780762500013,398.79780762500013,400.88896241600014,,398.79780762500013,398.79780762500013,403.9569583329999,398.79780762500013,398.79780762500013,398.79780762500013,398.79780762500013,399.26490112500005,400.33261779099985,399.2348622496668,,400.88896241600014,401.9633529580001,400.8592883746667,,398.79780762500013,403.9569583329999,398.79780762500013,403.9569583329999,403.9980578330001,404.65253541599986,398.79780762500013,1,1,0.7370760839999093,reldom2_s019,001,2025-02-20_12h53.26.056,Where-B-Scan_AC,2022.2.5,None,
34,First_Order,6.0,audwhere,stimulus/audwhere_stim/dummy.wav,stimulus/audwhere_stim/dummy.wav,stimulus/audwhere_stim/right_toward_300h.wav,stimulus/audwhere_stim/left_toward_290h.wav,stimulus/audwhere_stim/blank_white.png,stimulus/audwhere_stim/side_box.png,stimulus/audwhere_stim/side_yes.png,stimulus/audwhere_stim/side_no.png,None,Side,None,Direction,2,0.0,0,5.125,0,5.125,0,5.125,0,0.0,0.625,0,0.0,0,0.0,0,0.0,0,0.0,0,0.0,0,0.0,1,0.5,1,2.125,0,,,,,0,44,44,44,,,,,,,,,404.9067533749999,404.9067533749999,404.9067533749999,404.9067533749999,404.9067533749999,404.9067533749999,404.9067533749999,404.9067533749999,404.82681208333327,404.9067533749999,404.9067533749999,404.9067533749999,404.82681208333327,404.9067533749999,404.9067533749999,404.9067533749999,406.9930989999998,,404.9067533749999,404.9067533749999,410.068705916,404.9067533749999,404.9067533749999,404.9067533749999,404.9067533749999,405.3726025410001,406.43503150000015,405.3428746666666,,406.9930989999998,408.065117958,406.9619725826667,,404.9067533749999,410.068705916,404.9067533749999,410.068705916,410.110050666,410.76429737499984,404.9067533749999,2,1,1.0093583749999198,reldom2_s019,001,2025-02-20_12h53.26.056,Where-B-Scan_AC,2022.2.5,None,
0,0.0,None,fixation,stimulus/audwhere_stim/blank_white.png,stimulus/audwhere_stim/blank_white.png,stimulus/viswhere_stim/blank_white.png,stimulus/viswhere_stim/blank_white.png,stimulus/audwhere_stim/blank_white.png,stimulus/audwhere_stim/blank_white.png,stimulus/audwhere_stim/blank_white.png,stimulus/audwhere_stim/blank_white.png,0.0,0.0,0.0,0.0,0,0.0,0,0.0,0,0.0,0,0.0,0,0.0,0.0,0,0.0,0,0.0,0,0.0,0,0.0,0,0.0,0,0.0,0,0.0,0,0.0,8,,,,,0,45,45,45,,,,,,,,,411.0393841250002,411.0393841250002,411.0393841250002,411.0393841250002,411.0393841250002,411.0393841250002,411.0393841250002,411.0393841250002,410.93832558333327,411.0393841250002,411.0393841250002,411.0393841250002,410.93832558333327,411.0393841250002,411.0393841250002,411.0393841250002,411.0393841250002,411.0393841250002,411.0393841250002,411.0393841250002,411.0393841250002,411.0393841250002,411.0393841250002,411.0393841250002,411.0393841250002,411.0393841250002,411.0393841250002,410.9883255833333,411.0393841250002,411.0393841250002,411.0393841250002,410.9883255833333,411.0393841250002,411.0393841250002,411.0393841250002,411.0393841250002,411.0393841250002,416.2355204999999,416.2355204999999,419.2174903750001,None,0,,reldom2_s019,001,2025-02-20_12h53.26.056,Where-B-Scan_AC,2022.2.5,None,
35,Second_Order,6.0,audwhere,stimulus/audwhere_stim/left_toward_280h.wav,stimulus/audwhere_stim/right_toward_270h.wav,stimulus/audwhere_stim/left_away_300h.wav,stimulus/audwhere_stim/right_away_280h.wav,stimulus/audwhere_stim/match_blank.png,stimulus/audwhere_stim/match_box.png,stimulus/audwhere_stim/match_yes.png,stimulus/audwhere_stim/match_no.png,1.0,Match,Direction,Direction,1,5.125,0,5.125,0,5.125,0,5.125,0,0.75,0.75,0,0.0,0,0.0,0,0.0,0,0.0,1,0.5,1,2.125,1,0.5,1,2.125,0,,,,,0,46,46,46,,,,,,,,,419.2174903750001,424.34050670800025,419.2174903750001,419.2174903750001,419.2174903750001,419.2174903750001,419.67984045799994,420.66854779100004,419.67984662466665,,421.3001975830002,422.29070175000015,421.30330266666647,422.29070175000015,424.34050670800025,425.19258633300024,427.2369685409999,,425.19258633300024,425.19258633300024,430.3489949159998,425.19258633300024,425.19258633300024,425.19258633300024,425.19258633300024,425.6092950000002,426.678068833,425.5793733746666,,427.2369685409999,428.31022491600015,427.2067854166669,,425.19258633300024,430.3489949159998,425.19258633300024,430.3489949159998,430.390149416,,425.19258633300024,1,1,0.7448183330002394,reldom2_s019,001,2025-02-20_12h53.26.056,Where-B-Scan_AC,2022.2.5,None,
36,Second_Order,6.0,audwhere,stimulus/audwhere_stim/left_toward_300h.wav,stimulus/audwhere_stim/right_toward_280h.wav,stimulus/audwhere_stim/left_away_300h.wav,stimulus/audwhere_stim/right_away_300h.wav,stimulus/audwhere_stim/match_blank.png,stimulus/audwhere_stim/match_box.png,stimulus/audwhere_stim/match_yes.png,stimulus/audwhere_stim/match_no.png,1.0,Match,Direction,Direction,1,5.125,0,5.125,0,5.125,0,5.125,0,0.625,0.625,0,0.0,0,0.0,0,0.0,0,0.0,1,0.5,1,2.125,1,0.5,1,2.125,0,,,,,0,47,47,47,,,,,,,,,431.16272045799997,436.28491537499985,431.16272045799997,431.16272045799997,431.16272045799997,431.16272045799997,431.61117720799984,432.6101089580002,431.6240023326666,,433.2489839579998,434.2469139159998,433.2612799576666,,436.28491537499985,437.0209258750001,439.05841820800015,443.13708995800016,437.0209258750001,437.0209258750001,442.16964020800015,437.0209258750001,437.0209258750001,437.0209258750001,437.0209258750001,437.4363961660001,438.5009707909999,437.40632770766683,,439.05841820800015,440.1294658329998,439.0285178746665,,437.0209258750001,442.16964020800015,437.0209258750001,442.16964020800015,442.2101653750001,442.8623900829998,437.0209258750001,1,1,0.7750220420002734,reldom2_s019,001,2025-02-20_12h53.26.056,Where-B-Scan_AC,2022.2.5,None,
0,0.0,None,fixation,stimulus/audwhere_stim/blank_white.png,stimulus/audwhere_stim/blank_white.png,stimulus/viswhere_stim/blank_white.png,stimulus/viswhere_stim/blank_white.png,stimulus/audwhere_stim/blank_white.png,stimulus/audwhere_stim/blank_white.png,stimulus/audwhere_stim/blank_white.png,stimulus/audwhere_stim/blank_white.png,0.0,0.0,0.0,0.0,0,0.0,0,0.0,0,0.0,0,0.0,0,0.0,0.0,0,0.0,0,0.0,0,0.0,0,0.0,0,0.0,0,0.0,0,0.0,0,0.0,10,,,,,0,48,48,48,,,,,,,,,443.13708995800016,443.13708995800016,443.13708995800016,443.13708995800016,443.13708995800016,443.13708995800016,443.13708995800016,443.13708995800016,443.03629233333334,443.13708995800016,443.13708995800016,443.13708995800016,443.03629233333334,443.13708995800016,443.13708995800016,443.13708995800016,443.13708995800016,443.13708995800016,443.13708995800016,443.13708995800016,443.13708995800016,443.13708995800016,443.13708995800016,443.13708995800016,443.13708995800016,443.13708995800016,443.13708995800016,443.08629233333335,443.13708995800016,443.13708995800016,443.13708995800016,443.08629233333335,443.13708995800016,443.13708995800016,443.13708995800016,443.13708995800016,443.13708995800016,448.365290875,448.365290875,453.30991937499994,None,0,,reldom2_s019,001,2025-02-20_12h53.26.056,Where-B-Scan_AC,2022.2.5,None,
37,First_Order,7.0,viswhere,stimulus/viswhere_stim/blank_white.png,stimulus/viswhere_stim/blank_white.png,stimulus/viswhere_stim/150-deg_dot-left_turquoise.png,stimulus/viswhere_stim/120-deg_dot-left_mediumslateblue.png,stimulus/viswhere_stim/blank_white.png,stimulus/viswhere_stim/line_box.png,stimulus/viswhere_stim/line_yes.png,stimulus/viswhere_stim/line_no.png,None,Line,None,Dot,2,0.0,0,5.125,0,5.125,0,5.125,0,0.0,0.625,0,0.0,0,0.0,1,0.5,1,2.125,0,0.0,0,0.0,0,0.0,0,0.0,0,,,,,0,49,49,49,,,,,,,,,453.30991937499994,453.30991937499994,453.30991937499994,453.30991937499994,453.30991937499994,453.30991937499994,453.30991937499994,453.30991937499994,453.28926870766657,453.30991937499994,453.30991937499994,453.30991937499994,453.28926870766657,453.30991937499994,453.30991937499994,453.30991937499994,455.40438466600017,459.3750273750002,453.30991937499994,453.30991937499994,458.4439332080001,453.79194154100014,454.808552125,455.40438466600017,456.40806591599994,453.30991937499994,453.30991937499994,453.3059353743333,453.30991937499994,453.30991937499994,453.30991937499994,453.3059353743333,453.30991937499994,453.30991937499994,458.4439332080001,453.30991937499994,458.4439332080001,458.52696912500005,459.15778308300014,453.30991937499994,2,1,0.5645174169999336,reldom2_s019,001,2025-02-20_12h53.26.056,Where-B-Scan_AC,2022.2.5,None,
38,First_Order,7.0,viswhere,stimulus/viswhere_stim/blank_white.png,stimulus/viswhere_stim/blank_white.png,stimulus/viswhere_stim/120-deg_dot-left_mediumslateblue.png,stimulus/viswhere_stim/120-deg_dot-right_seagreen.png,stimulus/viswhere_stim/blank_white.png,stimulus/viswhere_stim/dot_box.png,stimulus/viswhere_stim/dot_yes.png,stimulus/viswhere_stim/dot_no.png,None,Dot,None,Line,2,0.0,0,5.125,0,5.125,0,5.125,0,0.0,0.625,0,0.0,0,0.0,1,0.5,1,2.125,0,0.0,0,0.0,0,0.0,0,0.0,0,,,,,0,50,50,50,,,,,,,,,459.3750273750002,459.3750273750002,459.3750273750002,459.3750273750002,459.3750273750002,459.3750273750002,459.3750273750002,459.3750273750002,459.35370183333345,459.3750273750002,459.3750273750002,459.3750273750002,459.35370183333345,459.3750273750002,459.3750273750002,459.3750273750002,461.48998195800004,465.4355044580002,459.3750273750002,459.3750273750002,464.50630333300023,459.8508430410002,460.8598712080002,461.48998195800004,462.50572324999985,459.3750273750002,459.3750273750002,459.3703685000001,459.3750273750002,459.3750273750002,459.3750273750002,459.3703685000001,459.3750273750002,459.3750273750002,464.50630333300023,459.3750273750002,464.50630333300023,464.60372233299995,465.23082887500004,459.3750273750002,2,1,0.4891368749999856,reldom2_s019,001,2025-02-20_12h53.26.056,Where-B-Scan_AC,2022.2.5,None,
39,First_Order,7.0,viswhere,stimulus/viswhere_stim/blank_white.png,stimulus/viswhere_stim/blank_white.png,stimulus/viswhere_stim/60-deg_dot-right_salmon.png,stimulus/viswhere_stim/60-deg_dot-left_peru.png,stimulus/viswhere_stim/blank_white.png,stimulus/viswhere_stim/line_box.png,stimulus/viswhere_stim/line_yes.png,stimulus/viswhere_stim/line_no.png,None,Line,None,Line,1,0.0,0,5.125,0,5.125,0,5.125,0,0.0,0.625,0,0.0,0,0.0,1,0.5,1,2.125,0,0.0,0,0.0,0,0.0,0,0.0,0,,,,,0,51,51,51,,,,,,,,,465.4355044580002,465.4355044580002,465.4355044580002,465.4355044580002,465.4355044580002,465.4355044580002,465.4355044580002,465.4355044580002,465.4146068743333,465.4355044580002,465.4355044580002,465.4355044580002,465.4146068743333,465.4355044580002,465.4355044580002,465.4355044580002,467.5372847499998,471.501867125,465.4355044580002,465.4355044580002,470.5632335,465.91302862500015,466.92492812499995,467.5372847499998,468.5558287499998,465.4355044580002,465.4355044580002,465.43127354099994,465.4355044580002,465.4355044580002,465.4355044580002,465.43127354099994,465.4355044580002,465.4355044580002,470.5632335,465.4355044580002,470.5632335,470.66034745800016,471.28563895800016,465.4355044580002,1,1,0.43427929100016627,reldom2_s019,001,2025-02-20_12h53.26.056,Where-B-Scan_AC,2022.2.5,None,
40,First_Order,7.0,viswhere,stimulus/viswhere_stim/blank_white.png,stimulus/viswhere_stim/blank_white.png,stimulus/viswhere_stim/60-deg_dot-right_slateblue.png,stimulus/viswhere_stim/90-deg_dot-right_royalblue.png,stimulus/viswhere_stim/blank_white.png,stimulus/viswhere_stim/dot_box.png,stimulus/viswhere_stim/dot_yes.png,stimulus/viswhere_stim/dot_no.png,None,Dot,None,Dot,1,0.0,0,5.125,0,5.125,0,5.125,0,0.0,0.625,0,0.0,0,0.0,1,0.5,1,2.125,0,0.0,0,0.0,0,0.0,0,0.0,0,,,,,0,52,52,52,,,,,,,,,471.501867125,471.501867125,471.501867125,471.501867125,471.501867125,471.501867125,471.501867125,471.501867125,471.4817487493331,471.501867125,471.501867125,471.501867125,471.4817487493331,471.501867125,471.501867125,471.501867125,473.60476125000014,477.6521052080002,471.501867125,471.501867125,476.63539025,471.9788910410002,472.9942800409999,473.60476125000014,474.625263291,471.501867125,471.501867125,471.4984154159998,471.501867125,471.501867125,471.501867125,471.4984154159998,471.501867125,471.501867125,476.63539025,471.501867125,476.63539025,476.73188145799986,477.3590628329998,471.501867125,1,1,0.44358329199985747,reldom2_s019,001,2025-02-20_12h53.26.056,Where-B-Scan_AC,2022.2.5,None,
0,0.0,None,fixation,stimulus/audwhere_stim/blank_white.png,stimulus/audwhere_stim/blank_white.png,stimulus/viswhere_stim/blank_white.png,stimulus/viswhere_stim/blank_white.png,stimulus/audwhere_stim/blank_white.png,stimulus/audwhere_stim/blank_white.png,stimulus/audwhere_stim/blank_white.png,stimulus/audwhere_stim/blank_white.png,0.0,0.0,0.0,0.0,0,0.0,0,0.0,0,0.0,0,0.0,0,0.0,0.0,0,0.0,0,0.0,0,0.0,0,0.0,0,0.0,0,0.0,0,0.0,0,0.0,8,,,,,0,53,53,53,,,,,,,,,477.6521052080002,477.6521052080002,477.6521052080002,477.6521052080002,477.6521052080002,477.6521052080002,477.6521052080002,477.6521052080002,477.5530569163332,477.6521052080002,477.6521052080002,477.6521052080002,477.5530569163332,477.6521052080002,477.6521052080002,477.6521052080002,477.6521052080002,477.6521052080002,477.6521052080002,477.6521052080002,477.6521052080002,477.6521052080002,477.6521052080002,477.6521052080002,477.6521052080002,477.6521052080002,477.6521052080002,477.60305691633323,477.6521052080002,477.6521052080002,477.6521052080002,477.60305691633323,477.6521052080002,477.6521052080002,477.6521052080002,477.6521052080002,477.6521052080002,482.8482905830001,482.8482905830001,485.8031921249999,None,0,,reldom2_s019,001,2025-02-20_12h53.26.056,Where-B-Scan_AC,2022.2.5,None,
41,Second_Order,7.0,viswhere,stimulus/viswhere_stim/60-deg_dot-right_seagreen.png,stimulus/viswhere_stim/30-deg_dot-right_mediumslateblue.png,stimulus/viswhere_stim/60-deg_dot-left_mediumslateblue.png,stimulus/viswhere_stim/150-deg_dot-left_salmon.png,stimulus/audwhere_stim/match_blank.png,stimulus/audwhere_stim/match_box.png,stimulus/audwhere_stim/match_yes.png,stimulus/audwhere_stim/match_no.png,1.0,Match,Dot,Dot,1,5.125,0,5.125,0,5.125,0,5.125,0,0.75,0.75,1,0.5,1,2.125,1,0.5,1,2.125,0,0.0,0,0.0,0,0.0,0,0.0,0,,,,,0,54,54,54,,,,,,,,,485.8031921249999,490.91539354099996,486.2867907079999,487.2727285410001,487.9085316659998,488.9065879579998,485.8031921249999,485.8031921249999,485.8178891243334,485.8031921249999,485.8031921249999,485.8031921249999,485.8178891243334,485.8031921249999,490.91539354099996,491.708516958,493.7803247910001,497.67582112499986,491.708516958,491.708516958,496.84063266600015,492.156219125,493.16383966600006,493.7803247910001,494.78656087499985,491.708516958,491.708516958,491.6829364583332,491.708516958,491.708516958,491.708516958,491.6829364583332,491.708516958,491.708516958,496.84063266600015,491.708516958,496.84063266600015,496.90965133300006,,491.708516958,1,1,1.0416259590001573,reldom2_s019,001,2025-02-20_12h53.26.056,Where-B-Scan_AC,2022.2.5,None,
42,Second_Order,7.0,viswhere,stimulus/viswhere_stim/90-deg_dot-right_goldenrod.png,stimulus/viswhere_stim/120-deg_dot-right_mediumslateblue.png,stimulus/viswhere_stim/60-deg_dot-right_peru.png,stimulus/viswhere_stim/60-deg_dot-left_mediumslateblue.png,stimulus/audwhere_stim/match_blank.png,stimulus/audwhere_stim/match_box.png,stimulus/audwhere_stim/match_yes.png,stimulus/audwhere_stim/match_no.png,2.0,Match,Dot,Line,2,5.125,0,5.125,0,5.125,0,5.125,0,0.625,0.625,1,0.5,1,2.125,1,0.5,1,2.125,0,0.0,0,0.0,0,0.0,0,0.0,0,,,,,0,55,55,55,,,,,,,,,497.67582112499986,502.7928650829999,498.16124149999996,499.15033429100004,499.78587395800014,500.783508041,497.67582112499986,497.67582112499986,497.68966174999997,497.67582112499986,497.67582112499986,497.67582112499986,497.68966174999997,497.67582112499986,502.7928650829999,503.459961,505.5492321659999,509.5778947499998,503.459961,503.459961,508.58452254099984,503.9238439999999,504.9364688750002,505.5492321659999,506.56986962500014,503.459961,503.459961,503.4399409583334,503.459961,503.459961,503.459961,503.4399409583334,503.459961,503.459961,508.58452254099984,503.459961,508.58452254099984,508.66772141599995,509.2963584160002,503.459961,2,1,0.494837916999586,reldom2_s019,001,2025-02-20_12h53.26.056,Where-B-Scan_AC,2022.2.5,None,
0,0.0,None,fixation,stimulus/audwhere_stim/blank_white.png,stimulus/audwhere_stim/blank_white.png,stimulus/viswhere_stim/blank_white.png,stimulus/viswhere_stim/blank_white.png,stimulus/audwhere_stim/blank_white.png,stimulus/audwhere_stim/blank_white.png,stimulus/audwhere_stim/blank_white.png,stimulus/audwhere_stim/blank_white.png,0.0,0.0,0.0,0.0,0,0.0,0,0.0,0,0.0,0,0.0,0,0.0,0.0,0,0.0,0,0.0,0,0.0,0,0.0,0,0.0,0,0.0,0,0.0,0,0.0,8,,,,,0,56,56,56,,,,,,,,,509.5778947499998,509.5778947499998,509.5778947499998,509.5778947499998,509.5778947499998,509.5778947499998,509.5778947499998,509.5778947499998,509.47629733333343,509.5778947499998,509.5778947499998,509.5778947499998,509.47629733333343,509.5778947499998,509.5778947499998,509.5778947499998,509.5778947499998,509.5778947499998,509.5778947499998,509.5778947499998,509.5778947499998,509.5778947499998,509.5778947499998,509.5778947499998,509.5778947499998,509.5778947499998,509.5778947499998,509.52629733333345,509.5778947499998,509.5778947499998,509.5778947499998,509.52629733333345,509.5778947499998,509.5778947499998,509.5778947499998,509.5778947499998,509.5778947499998,514.7694099999999,514.7694099999999,517.797739916,None,0,,reldom2_s019,001,2025-02-20_12h53.26.056,Where-B-Scan_AC,2022.2.5,None,
43,First_Order,8.0,viswhere,stimulus/viswhere_stim/blank_white.png,stimulus/viswhere_stim/blank_white.png,stimulus/viswhere_stim/120-deg_dot-left_lightsseagreen.png,stimulus/viswhere_stim/120-deg_dot-right_royalblue.png,stimulus/viswhere_stim/blank_white.png,stimulus/viswhere_stim/line_box.png,stimulus/viswhere_stim/line_yes.png,stimulus/viswhere_stim/line_no.png,None,Line,None,Line,1,0.0,0,5.125,0,5.125,0,5.125,0,0.0,0.625,0,0.0,0,0.0,1,0.5,1,2.125,0,0.0,0,0.0,0,0.0,0,0.0,0,,,,,0,57,57,57,,,,,,,,,517.797739916,517.797739916,517.797739916,517.797739916,517.797739916,517.797739916,517.797739916,517.797739916,517.7789449166668,517.797739916,517.797739916,517.797739916,517.7789449166668,517.797739916,517.797739916,517.797739916,519.8966983330001,523.874442583,517.797739916,517.797739916,522.9346075829999,518.2747017080001,519.2877967499999,519.8966983330001,520.9133401250001,517.797739916,517.797739916,517.7789449166668,517.797739916,517.797739916,517.797739916,517.7789449166668,517.797739916,517.797739916,522.9346075829999,517.797739916,522.9346075829999,523.0178968750001,523.642943333,517.797739916,1,1,0.7010181659998125,reldom2_s019,001,2025-02-20_12h53.26.056,Where-B-Scan_AC,2022.2.5,None,
44,First_Order,8.0,viswhere,stimulus/viswhere_stim/blank_white.png,stimulus/viswhere_stim/blank_white.png,stimulus/viswhere_stim/60-deg_dot-right_peru.png,stimulus/viswhere_stim/90-deg_dot-right_turquoise.png,stimulus/viswhere_stim/blank_white.png,stimulus/viswhere_stim/dot_box.png,stimulus/viswhere_stim/dot_yes.png,stimulus/viswhere_stim/dot_no.png,None,Dot,None,Dot,1,0.0,0,5.125,0,5.125,0,5.125,0,0.0,0.625,0,0.0,0,0.0,1,0.5,1,2.125,0,0.0,0,0.0,0,0.0,0,0.0,0,,,,,0,58,58,58,,,,,,,,,523.874442583,523.874442583,523.874442583,523.874442583,523.874442583,523.874442583,523.874442583,523.874442583,523.8529565833336,523.874442583,523.874442583,523.874442583,523.8529565833336,523.874442583,523.874442583,523.874442583,525.9789086659998,529.935091625,523.874442583,523.874442583,529.0085345000002,524.3527937909998,525.3679473749999,525.9789086659998,527.0002764999999,523.874442583,523.874442583,523.8696232500002,523.874442583,523.874442583,523.874442583,523.8696232500002,523.874442583,523.874442583,529.0085345000002,523.874442583,529.0085345000002,529.0925634999999,529.7186583329999,523.874442583,1,1,0.47210662499992395,reldom2_s019,001,2025-02-20_12h53.26.056,Where-B-Scan_AC,2022.2.5,None,
45,First_Order,8.0,viswhere,stimulus/viswhere_stim/blank_white.png,stimulus/viswhere_stim/blank_white.png,stimulus/viswhere_stim/150-deg_dot-right_lightsseagreen.png,stimulus/viswhere_stim/150-deg_dot-left_royalblue.png,stimulus/viswhere_stim/blank_white.png,stimulus/viswhere_stim/dot_box.png,stimulus/viswhere_stim/dot_yes.png,stimulus/viswhere_stim/dot_no.png,None,Dot,None,Line,2,0.0,0,5.125,0,5.125,0,5.125,0,0.0,0.625,0,0.0,0,0.0,1,0.5,1,2.125,0,0.0,0,0.0,0,0.0,0,0.0,0,,,,,0,59,59,59,,,,,,,,,529.935091625,529.935091625,529.935091625,529.935091625,529.935091625,529.935091625,529.935091625,529.935091625,529.9135132493333,529.935091625,529.935091625,529.935091625,529.9135132493333,529.935091625,529.935091625,529.935091625,532.0405318329999,536.0015499579999,529.935091625,529.935091625,535.0624911660002,530.4172995829999,531.4238005830002,532.0405318329999,533.0526164160001,529.935091625,529.935091625,529.9301799159999,529.935091625,529.935091625,529.935091625,529.9301799159999,529.935091625,529.935091625,535.0624911660002,529.935091625,535.0624911660002,535.1593979160002,535.7854203329998,529.935091625,2,1,0.5088272909997613,reldom2_s019,001,2025-02-20_12h53.26.056,Where-B-Scan_AC,2022.2.5,None,
46,First_Order,8.0,viswhere,stimulus/viswhere_stim/blank_white.png,stimulus/viswhere_stim/blank_white.png,stimulus/viswhere_stim/30-deg_dot-left_salmon.png,stimulus/viswhere_stim/150-deg_dot-left_turquoise.png,stimulus/viswhere_stim/blank_white.png,stimulus/viswhere_stim/line_box.png,stimulus/viswhere_stim/line_yes.png,stimulus/viswhere_stim/line_no.png,None,Line,None,Dot,2,0.0,0,5.125,0,5.125,0,5.125,0,0.0,0.625,0,0.0,0,0.0,1,0.5,1,2.125,0,0.0,0,0.0,0,0.0,0,0.0,0,,,,,0,60,60,60,,,,,,,,,536.0015499579999,536.0015499579999,536.0015499579999,536.0015499579999,536.0015499579999,536.0015499579999,536.0015499579999,536.0015499579999,535.9805947083336,536.0015499579999,536.0015499579999,536.0015499579999,535.9805947083336,536.0015499579999,536.0015499579999,536.0015499579999,538.1035777500001,542.1455867499999,536.0015499579999,536.0015499579999,541.1430420830002,536.4834971250002,537.4872905000002,538.1035777500001,539.1135501660001,536.0015499579999,536.0015499579999,535.9972613750002,536.0015499579999,536.0015499579999,536.0015499579999,535.9972613750002,536.0015499579999,536.0015499579999,541.1430420830002,536.0015499579999,541.1430420830002,541.2262095830001,541.852243458,536.0015499579999,2,1,1.4639504589999888,reldom2_s019,001,2025-02-20_12h53.26.056,Where-B-Scan_AC,2022.2.5,None,
0,0.0,None,fixation,stimulus/audwhere_stim/blank_white.png,stimulus/audwhere_stim/blank_white.png,stimulus/viswhere_stim/blank_white.png,stimulus/viswhere_stim/blank_white.png,stimulus/audwhere_stim/blank_white.png,stimulus/audwhere_stim/blank_white.png,stimulus/audwhere_stim/blank_white.png,stimulus/audwhere_stim/blank_white.png,0.0,0.0,0.0,0.0,0,0.0,0,0.0,0,0.0,0,0.0,0,0.0,0.0,0,0.0,0,0.0,0,0.0,0,0.0,0,0.0,0,0.0,0,0.0,0,0.0,9,,,,,0,61,61,61,,,,,,,,,542.1455867499999,542.1455867499999,542.1455867499999,542.1455867499999,542.1455867499999,542.1455867499999,542.1455867499999,542.1455867499999,542.0470784163334,542.1455867499999,542.1455867499999,542.1455867499999,542.0470784163334,542.1455867499999,542.1455867499999,542.1455867499999,542.1455867499999,542.1455867499999,542.1455867499999,542.1455867499999,542.1455867499999,542.1455867499999,542.1455867499999,542.1455867499999,542.1455867499999,542.1455867499999,542.1455867499999,542.0970784163334,542.1455867499999,542.1455867499999,542.1455867499999,542.0970784163334,542.1455867499999,542.1455867499999,542.1455867499999,542.1455867499999,542.1455867499999,547.3451655829999,547.3451655829999,551.2689263749999,None,0,,reldom2_s019,001,2025-02-20_12h53.26.056,Where-B-Scan_AC,2022.2.5,None,
47,Second_Order,8.0,viswhere,stimulus/viswhere_stim/90-deg_dot-left_lightsseagreen.png,stimulus/viswhere_stim/120-deg_dot-left_royalblue.png,stimulus/viswhere_stim/30-deg_dot-right_mediumslateblue.png,stimulus/viswhere_stim/60-deg_dot-right_lightsseagreen.png,stimulus/audwhere_stim/match_blank.png,stimulus/audwhere_stim/match_box.png,stimulus/audwhere_stim/match_yes.png,stimulus/audwhere_stim/match_no.png,1.0,Match,Dot,Dot,1,5.125,0,5.125,0,5.125,0,5.125,0,0.75,0.75,1,0.5,1,2.125,1,0.5,1,2.125,0,0.0,0,0.0,0,0.0,0,0.0,0,,,,,0,62,62,62,,,,,,,,,551.2689263749999,556.383504166,551.7516357909999,552.7403344580002,553.3770181250002,554.3744419999998,551.2689263749999,551.2689263749999,551.2836853333334,551.2689263749999,551.2689263749999,551.2689263749999,551.2836853333334,551.2689263749999,556.383504166,557.1769265829998,559.2564215410002,563.1496267080001,557.1769265829998,557.1769265829998,562.3011716659998,557.623922708,558.6434197080002,559.2564215410002,560.2625360830002,557.1769265829998,557.1769265829998,557.1510644583332,557.1769265829998,557.1769265829998,557.1769265829998,557.1510644583332,557.1769265829998,557.1769265829998,562.3011716659998,557.1769265829998,562.3011716659998,562.3754671249999,563.1496267080001,557.1769265829998,1,1,0.7719782919998579,reldom2_s019,001,2025-02-20_12h53.26.056,Where-B-Scan_AC,2022.2.5,None,
48,Second_Order,8.0,viswhere,stimulus/viswhere_stim/60-deg_dot-left_seagreen.png,stimulus/viswhere_stim/90-deg_dot-left_peru.png,stimulus/viswhere_stim/30-deg_dot-right_turquoise.png,stimulus/viswhere_stim/30-deg_dot-left_lightsseagreen.png,stimulus/audwhere_stim/match_blank.png,stimulus/audwhere_stim/match_box.png,stimulus/audwhere_stim/match_yes.png,stimulus/audwhere_stim/match_no.png,2.0,Match,Dot,Line,2,5.125,0,5.125,0,5.125,0,5.125,0,0.625,0.625,1,0.5,1,2.125,1,0.5,1,2.125,0,0.0,0,0.0,0,0.0,0,0.0,0,,,,,0,63,63,63,,,,,,,,,563.1496267080001,568.273236083,563.6326463330001,564.6313995410001,565.253781458,566.2522908330002,563.1496267080001,563.1496267080001,563.1628201249998,563.1496267080001,563.1496267080001,563.1496267080001,563.1628201249998,563.1496267080001,568.273236083,568.9466447909999,571.0260444999999,575.0606682500002,568.9466447909999,568.9466447909999,574.0690892500002,569.4128033749998,570.4293568329999,571.0260444999999,572.029893375,568.9466447909999,568.9466447909999,568.9246067083332,568.9466447909999,568.9466447909999,568.9466447909999,568.9246067083332,568.9466447909999,568.9466447909999,574.0690892500002,568.9466447909999,574.0690892500002,574.1524155000002,574.7780267500002,568.9466447909999,2,1,0.4997297919999255,reldom2_s019,001,2025-02-20_12h53.26.056,Where-B-Scan_AC,2022.2.5,None,
0,0.0,None,fixation,stimulus/audwhere_stim/blank_white.png,stimulus/audwhere_stim/blank_white.png,stimulus/viswhere_stim/blank_white.png,stimulus/viswhere_stim/blank_white.png,stimulus/audwhere_stim/blank_white.png,stimulus/audwhere_stim/blank_white.png,stimulus/audwhere_stim/blank_white.png,stimulus/audwhere_stim/blank_white.png,0.0,0.0,0.0,0.0,0,0.0,0,0.0,0,0.0,0,0.0,0,0.0,0.0,0,0.0,0,0.0,0,0.0,0,0.0,0,0.0,0,0.0,0,0.0,0,0.0,16,,,,,0,64,64,64,,,,,,,,,575.0606682500002,575.0606682500002,575.0606682500002,575.0606682500002,575.0606682500002,575.0606682500002,575.0606682500002,575.0606682500002,574.9583391663335,575.0606682500002,575.0606682500002,575.0606682500002,574.9583391663335,575.0606682500002,575.0606682500002,575.0606682500002,575.0606682500002,575.0606682500002,575.0606682500002,575.0606682500002,575.0606682500002,575.0606682500002,575.0606682500002,575.0606682500002,575.0606682500002,575.0606682500002,575.0606682500002,575.0083391663335,575.0606682500002,575.0606682500002,575.0606682500002,575.0083391663335,575.0606682500002,575.0606682500002,575.0606682500002,575.0606682500002,575.0606682500002,580.2517290000001,580.2517290000001,591.231364541,None,0,,reldom2_s019,001,2025-02-20_12h53.26.056,Where-B-Scan_AC,2022.2.5,None,
