Trial,Order,Block,Type,Stimuli_File1,Stimuli_File2,Stimuli_File3,Stimuli_File4,Cue_File1,Cue_File2,Response_File_Yes,Response_File_No,Match,Cue_Dimension,Pair1_Dimension,Pair2_Dimension,Key,Cue1_Duration,Cue1_Onset,Cue2_Duration,Cue2_Onset,ResponseYes_Duration,ResponseYes_Onset,ResponseNo_Duration,ResponseNo_Onset,ITI_Within,ITI_Between,Image1_Duration,Image1_Onset,Image2_Duration,Image2_Onset,Image3_Duration,Image3_Onset,Image4_Duration,Image4_Onset,Sound1_Duration,Sound1_Onset,Sound2_Duration,Sound2_Onset,Sound3_Duration,Sound3_Onset,Sound4_Duration,Sound4_Onset,Fixation_Duration,trials_2.thisRepN,trials_2.thisTrialN,trials_2.thisN,trials_2.thisIndex,trials.thisRepN,trials.thisTrialN,trials.thisN,trials.thisIndex,text_start.started,key_resp_start.started,key_resp_start.keys,key_resp_start.rt,text2.started,key_resp_2.started,key_resp_2.keys,key_resp_2.rt,cue_file1.started,cue_file1.stopped,image_1.started,image_1.stopped,image_2.started,image_2.stopped,sound_icon1.started,sound_icon1.stopped,sound_1.started,sound_1.stopped,sound_icon2.started,sound_icon2.stopped,sound_2.started,sound_2.stopped,image_blank_1.started,image_blank_1.stopped,key_press.started,key_press.stopped,fixation_text.started,cue_file2.started,cue_file2.stopped,image_3.started,image_3.stopped,image_4.started,image_4.stopped,sound_icon3.started,sound_icon3.stopped,sound_3.started,sound_3.stopped,sound_icon4.started,sound_icon4.stopped,sound_4.started,sound_4.stopped,response_yes.started,response_yes.stopped,response_no.started,response_no.stopped,iti_blank.started,iti_blank.stopped,fixation_text.stopped,key_press.keys,key_press.corr,key_press.rt,participant,session,date,expName,psychopyVersion,frameRate,
,,,,,,,,,,,,,,,,,,,,,,,,,,,,,,,,,,,,,,,,,,,,,,,,,,,,27.818609542000104,27.818609542000104,2,2.593438831999947,,,,,,,,,,,,,,,,,,,,,,,,,,,,,,,,,,,,,,,,,,,,,,,,reldom2_s019,001,2025-02-20_12h30.39.856,Vis-B-Scan_AC,2022.2.5,None,
,,,,,,,,,,,,,,,,,,,,,,,,,,,,,,,,,,,,,,,,,,,,0,0,0,0,,,,,,,,,30.449264792000122,30.449264792000122,5,17.18698895700004,,,,,,,,,,,,,,,,,,,,,,,,,,,,,,,,,,,,,,,,,,,,reldom2_s019,001,2025-02-20_12h30.39.856,Vis-B-Scan_AC,2022.2.5,None,
,,,,,,,,,,,,,,,,,,,,,,,,,,,,,,,,,,,,,,,,,,,,1,0,1,0,,,,,,,,,47.65274058399996,47.65274058399996,5,1.9840099999998984,,,,,,,,,,,,,,,,,,,,,,,,,,,,,,,,,,,,,,,,,,,,reldom2_s019,001,2025-02-20_12h30.39.856,Vis-B-Scan_AC,2022.2.5,None,
,,,,,,,,,,,,,,,,,,,,,,,,,,,,,,,,,,,,,,,,,,,,2,0,2,0,,,,,,,,,49.663528499999984,49.663528499999984,5,1.9739717069999188,,,,,,,,,,,,,,,,,,,,,,,,,,,,,,,,,,,,,,,,,,,,reldom2_s019,001,2025-02-20_12h30.39.856,Vis-B-Scan_AC,2022.2.5,None,
,,,,,,,,,,,,,,,,,,,,,,,,,,,,,,,,,,,,,,,,,,,,3,0,3,0,,,,,,,,,51.652024125000025,51.652024125000025,5,1.9839188739999827,,,,,,,,,,,,,,,,,,,,,,,,,,,,,,,,,,,,,,,,,,,,reldom2_s019,001,2025-02-20_12h30.39.856,Vis-B-Scan_AC,2022.2.5,None,
0,0.0,None,fixation,stimulus/viswhere_stim/blank_white.png,stimulus/viswhere_stim/blank_white.png,stimulus/viswhat_stim/blank_white.png,stimulus/viswhat_stim/blank_white.png,stimulus/viswhere_stim/blank_white.png,stimulus/viswhere_stim/blank_white.png,stimulus/viswhere_stim/blank_white.png,stimulus/viswhere_stim/blank_white.png,0.0,0.0,0.0,0.0,0,0.0,0,0.0,0,0.0,0,0.0,0,0.0,0.0,0,0.0,0,0.0,0,0.0,0,0.0,0,0,0,0,0,0,0,0,16,,,,,0,0,0,0,,,,,,,,,53.849564124999915,53.849564124999915,53.849564124999915,53.849564124999915,53.849564124999915,53.849564124999915,53.849564124999915,53.849564124999915,53.75707370866677,53.849564124999915,53.849564124999915,53.849564124999915,53.75707370866677,53.849564124999915,53.849564124999915,53.849564124999915,53.849564124999915,53.849564124999915,53.849564124999915,53.849564124999915,53.849564124999915,53.849564124999915,53.849564124999915,53.849564124999915,53.849564124999915,53.849564124999915,53.849564124999915,53.80707370866677,53.849564124999915,53.849564124999915,53.849564124999915,53.80707370866677,53.849564124999915,53.849564124999915,53.849564124999915,53.849564124999915,53.849564124999915,59.06951762500012,59.06951762500012,70.03214483400006,None,0,,reldom2_s019,001,2025-02-20_12h30.39.856,Vis-B-Scan_AC,2022.2.5,None,
1,First_Order,1.0,viswhere,stimulus/viswhere_stim/blank_white.png,stimulus/viswhere_stim/blank_white.png,stimulus/viswhere_stim/150-deg_dot-left_royalblue.png,stimulus/viswhere_stim/150-deg_dot-right_peru.png,stimulus/viswhere_stim/blank_white.png,stimulus/viswhere_stim/dot_box.png,stimulus/viswhere_stim/dot_yes.png,stimulus/viswhere_stim/dot_no.png,None,Dot,None,Line,2,0.0,0,5.125,0,5.125,0,5.125,0,0.0,0.625,0,0.0,0,0.0,1,0.5,1,2.125,0,0,0,0,0,0,0,0,0,,,,,0,1,1,1,,,,,,,,,70.03214483400006,70.03214483400006,70.03214483400006,70.03214483400006,70.03214483400006,70.03214483400006,70.03214483400006,70.03214483400006,70.01334604200011,70.03214483400006,70.03214483400006,70.03214483400006,70.01334604200011,70.03214483400006,70.03214483400006,70.03214483400006,72.13669499999992,76.09287412499998,70.03214483400006,70.03214483400006,75.15882250000004,70.50849504200005,71.51356462500007,72.13669499999992,73.15363683400005,70.03214483400006,70.03214483400006,70.03001270866677,70.03214483400006,70.03214483400006,70.03214483400006,70.03001270866677,70.03214483400006,70.03214483400006,75.15882250000004,70.03214483400006,75.15882250000004,75.25302533400009,75.88712708399999,70.03214483400006,2,1,0.8943869989998348,reldom2_s019,001,2025-02-20_12h30.39.856,Vis-B-Scan_AC,2022.2.5,None,
2,First_Order,1.0,viswhere,stimulus/viswhere_stim/blank_white.png,stimulus/viswhere_stim/blank_white.png,stimulus/viswhere_stim/30-deg_dot-left_salmon.png,stimulus/viswhere_stim/30-deg_dot-right_seagreen.png,stimulus/viswhere_stim/blank_white.png,stimulus/viswhere_stim/dot_box.png,stimulus/viswhere_stim/dot_yes.png,stimulus/viswhere_stim/dot_no.png,None,Dot,None,Line,2,0.0,0,5.125,0,5.125,0,5.125,0,0.0,0.625,0,0.0,0,0.0,1,0.5,1,2.125,0,0,0,0,0,0,0,0,0,,,,,0,2,2,2,,,,,,,,,76.09287412499998,76.09287412499998,76.09287412499998,76.09287412499998,76.09287412499998,76.09287412499998,76.09287412499998,76.09287412499998,76.07719604233337,76.09287412499998,76.09287412499998,76.09287412499998,76.07719604233337,76.09287412499998,76.09287412499998,76.09287412499998,78.19276308400003,82.15048012500006,76.09287412499998,76.09287412499998,81.22399137499997,76.56767637500002,77.57130958400012,78.19276308400003,79.20566233399995,76.09287412499998,76.09287412499998,76.07719604233337,76.09287412499998,76.09287412499998,76.09287412499998,76.07719604233337,76.09287412499998,76.09287412499998,81.22399137499997,76.09287412499998,81.22399137499997,81.3233009170001,81.94378574999996,76.09287412499998,2,1,0.6144958330000918,reldom2_s019,001,2025-02-20_12h30.39.856,Vis-B-Scan_AC,2022.2.5,None,
3,First_Order,1.0,viswhere,stimulus/viswhere_stim/blank_white.png,stimulus/viswhere_stim/blank_white.png,stimulus/viswhere_stim/120-deg_dot-left_goldenrod.png,stimulus/viswhere_stim/30-deg_dot-left_slateblue.png,stimulus/viswhere_stim/blank_white.png,stimulus/viswhere_stim/dot_box.png,stimulus/viswhere_stim/dot_yes.png,stimulus/viswhere_stim/dot_no.png,None,Dot,None,Dot,1,0.0,0,5.125,0,5.125,0,5.125,0,0.0,0.625,0,0.0,0,0.0,1,0.5,1,2.125,0,0,0,0,0,0,0,0,0,,,,,0,3,3,3,,,,,,,,,82.15048012500006,82.15048012500006,82.15048012500006,82.15048012500006,82.15048012500006,82.15048012500006,82.15048012500006,82.15048012500006,82.13486400033328,82.15048012500006,82.15048012500006,82.15048012500006,82.13486400033328,82.15048012500006,82.15048012500006,82.15048012500006,84.26600137500009,88.2090390840001,82.15048012500006,82.15048012500006,87.28624737500013,82.62874808400011,83.63944337499993,84.26600137500009,85.26958629199999,82.15048012500006,82.15048012500006,82.13486400033328,82.15048012500006,82.15048012500006,82.15048012500006,82.13486400033328,82.15048012500006,82.15048012500006,87.28624737500013,82.15048012500006,87.28624737500013,87.38079262499991,88.00220783400005,82.15048012500006,1,1,0.92529199899991,reldom2_s019,001,2025-02-20_12h30.39.856,Vis-B-Scan_AC,2022.2.5,None,
4,First_Order,1.0,viswhere,stimulus/viswhere_stim/blank_white.png,stimulus/viswhere_stim/blank_white.png,stimulus/viswhere_stim/150-deg_dot-right_royalblue.png,stimulus/viswhere_stim/30-deg_dot-right_salmon.png,stimulus/viswhere_stim/blank_white.png,stimulus/viswhere_stim/line_box.png,stimulus/viswhere_stim/line_yes.png,stimulus/viswhere_stim/line_no.png,None,Line,None,Dot,2,0.0,0,5.125,0,5.125,0,5.125,0,0.0,0.625,0,0.0,0,0.0,1,0.5,1,2.125,0,0,0,0,0,0,0,0,0,,,,,0,4,4,4,,,,,,,,,88.2090390840001,88.2090390840001,88.2090390840001,88.2090390840001,88.2090390840001,88.2090390840001,88.2090390840001,88.2090390840001,88.19146241733331,88.2090390840001,88.2090390840001,88.2090390840001,88.19146241733331,88.2090390840001,88.2090390840001,88.2090390840001,90.31775204199994,94.339217125,88.2090390840001,88.2090390840001,93.3416037500001,88.69359587500003,89.70293337499993,90.31775204199994,91.33168391699996,88.2090390840001,88.2090390840001,88.19146241733331,88.2090390840001,88.2090390840001,88.2090390840001,88.19146241733331,88.2090390840001,88.2090390840001,93.3416037500001,88.2090390840001,93.3416037500001,93.43442904199992,94.0594920420001,88.2090390840001,1,0,1.0148994989999665,reldom2_s019,001,2025-02-20_12h30.39.856,Vis-B-Scan_AC,2022.2.5,None,
0,0.0,None,fixation,stimulus/viswhere_stim/blank_white.png,stimulus/viswhere_stim/blank_white.png,stimulus/viswhat_stim/blank_white.png,stimulus/viswhat_stim/blank_white.png,stimulus/viswhere_stim/blank_white.png,stimulus/viswhere_stim/blank_white.png,stimulus/viswhere_stim/blank_white.png,stimulus/viswhere_stim/blank_white.png,0.0,0.0,0.0,0.0,0,0.0,0,0.0,0,0.0,0,0.0,0,0.0,0.0,0,0.0,0,0.0,0,0.0,0,0.0,0,0,0,0,0,0,0,0,9,,,,,0,5,5,5,,,,,,,,,94.339217125,94.339217125,94.339217125,94.339217125,94.339217125,94.339217125,94.339217125,94.339217125,94.24994437533344,94.339217125,94.339217125,94.339217125,94.24994437533344,94.339217125,94.339217125,94.339217125,94.339217125,94.339217125,94.339217125,94.339217125,94.339217125,94.339217125,94.339217125,94.339217125,94.339217125,94.339217125,94.339217125,94.29994437533344,94.339217125,94.339217125,94.339217125,94.29994437533344,94.339217125,94.339217125,94.339217125,94.339217125,94.339217125,99.52741866700012,99.52741866700012,103.47427100000004,None,0,,reldom2_s019,001,2025-02-20_12h30.39.856,Vis-B-Scan_AC,2022.2.5,None,
5,Second_Order,1.0,viswhere,stimulus/viswhere_stim/90-deg_dot-left_mediumslateblue.png,stimulus/viswhere_stim/30-deg_dot-left_slateblue.png,stimulus/viswhere_stim/90-deg_dot-left_royalblue.png,stimulus/viswhere_stim/90-deg_dot-right_goldenrod.png,stimulus/viswhere_stim/match_blank.png,stimulus/viswhere_stim/match_box.png,stimulus/viswhere_stim/match_yes.png,stimulus/viswhere_stim/match_no.png,2.0,Match,Dot,Line,2,5.125,0,5.125,0,5.125,0,5.125,0,0.75,0.75,1,0.5,1,2.125,1,0.5,1,2.125,0,0,0,0,0,0,0,0,0,,,,,0,6,6,6,,,,,,,,,103.47427100000004,108.59009608399992,103.95651529199995,104.94564891699997,105.5811893340001,106.57912191700007,103.47427100000004,103.47427100000004,103.47600058366662,103.47427100000004,103.47427100000004,103.47427100000004,103.47600058366662,103.47427100000004,108.59009608399992,109.38236762499992,111.46782862500004,115.34791462499993,109.38236762499992,109.38236762499992,114.507566709,109.83699124999998,110.8488856250001,111.46782862500004,112.47165654200012,109.38236762499992,109.38236762499992,109.35669375033333,109.38236762499992,109.38236762499992,109.38236762499992,109.35669375033333,109.38236762499992,109.38236762499992,114.507566709,109.38236762499992,114.507566709,114.577295542,115.34791462499993,109.38236762499992,2,1,0.5126210410001022,reldom2_s019,001,2025-02-20_12h30.39.856,Vis-B-Scan_AC,2022.2.5,None,
6,Second_Order,1.0,viswhere,stimulus/viswhere_stim/30-deg_dot-right_turquoise.png,stimulus/viswhere_stim/30-deg_dot-left_goldenrod.png,stimulus/viswhere_stim/60-deg_dot-left_salmon.png,stimulus/viswhere_stim/60-deg_dot-right_slateblue.png,stimulus/viswhere_stim/match_blank.png,stimulus/viswhere_stim/match_box.png,stimulus/viswhere_stim/match_yes.png,stimulus/viswhere_stim/match_no.png,1.0,Match,Line,Line,1,5.125,0,5.125,0,5.125,0,5.125,0,0.625,0.625,1,0.5,1,2.125,1,0.5,1,2.125,0,0,0,0,0,0,0,0,0,,,,,0,7,7,7,,,,,,,,,115.34791462499993,120.4651482920001,115.83409808400006,116.82288441700007,117.460281334,118.45694487500009,115.34791462499993,115.34791462499993,115.36207124999991,115.34791462499993,115.34791462499993,115.34791462499993,115.36207124999991,115.34791462499993,120.4651482920001,121.13499604200001,123.213062584,127.25104175000001,121.13499604200001,121.13499604200001,126.260400334,121.5859882090001,122.59684712500007,123.213062584,124.23225179199994,121.13499604200001,121.13499604200001,121.11330975033346,121.13499604200001,121.13499604200001,121.13499604200001,121.11330975033346,121.13499604200001,121.13499604200001,126.260400334,121.13499604200001,126.260400334,126.32770179199997,126.95531229199992,121.13499604200001,1,1,0.6039856659999714,reldom2_s019,001,2025-02-20_12h30.39.856,Vis-B-Scan_AC,2022.2.5,None,
0,0.0,None,fixation,stimulus/viswhere_stim/blank_white.png,stimulus/viswhere_stim/blank_white.png,stimulus/viswhat_stim/blank_white.png,stimulus/viswhat_stim/blank_white.png,stimulus/viswhere_stim/blank_white.png,stimulus/viswhere_stim/blank_white.png,stimulus/viswhere_stim/blank_white.png,stimulus/viswhere_stim/blank_white.png,0.0,0.0,0.0,0.0,0,0.0,0,0.0,0,0.0,0,0.0,0,0.0,0.0,0,0.0,0,0.0,0,0.0,0,0.0,0,0,0,0,0,0,0,0,9,,,,,0,8,8,8,,,,,,,,,127.25104175000001,127.25104175000001,127.25104175000001,127.25104175000001,127.25104175000001,127.25104175000001,127.25104175000001,127.25104175000001,127.15898275033335,127.25104175000001,127.25104175000001,127.25104175000001,127.15898275033335,127.25104175000001,127.25104175000001,127.25104175000001,127.25104175000001,127.25104175000001,127.25104175000001,127.25104175000001,127.25104175000001,127.25104175000001,127.25104175000001,127.25104175000001,127.25104175000001,127.25104175000001,127.25104175000001,127.20898275033335,127.25104175000001,127.25104175000001,127.25104175000001,127.20898275033335,127.25104175000001,127.25104175000001,127.25104175000001,127.25104175000001,127.25104175000001,132.47231224999996,132.47231224999996,136.46665737500007,None,0,,reldom2_s019,001,2025-02-20_12h30.39.856,Vis-B-Scan_AC,2022.2.5,None,
7,First_Order,2.0,viswhere,stimulus/viswhere_stim/blank_white.png,stimulus/viswhere_stim/blank_white.png,stimulus/viswhere_stim/60-deg_dot-right_peru.png,stimulus/viswhere_stim/120-deg_dot-right_goldenrod.png,stimulus/viswhere_stim/blank_white.png,stimulus/viswhere_stim/line_box.png,stimulus/viswhere_stim/line_yes.png,stimulus/viswhere_stim/line_no.png,None,Line,None,Dot,2,0.0,0,5.125,0,5.125,0,5.125,0,0.0,0.625,0,0.0,0,0.0,1,0.5,1,2.125,0,0,0,0,0,0,0,0,0,,,,,0,9,9,9,,,,,,,,,136.46665737500007,136.46665737500007,136.46665737500007,136.46665737500007,136.46665737500007,136.46665737500007,136.46665737500007,136.46665737500007,136.43499058400008,136.46665737500007,136.46665737500007,136.46665737500007,136.43499058400008,136.46665737500007,136.46665737500007,136.46665737500007,138.57812216699995,142.52703391699993,136.46665737500007,136.46665737500007,141.60474775000012,136.93765991700002,137.95663079199994,138.57812216699995,139.58182554199993,136.46665737500007,136.46665737500007,136.45165725066676,136.46665737500007,136.46665737500007,136.46665737500007,136.45165725066676,136.46665737500007,136.46665737500007,141.60474775000012,136.46665737500007,141.60474775000012,141.68744004199993,142.32437629200012,136.46665737500007,2,1,0.5128307909999421,reldom2_s019,001,2025-02-20_12h30.39.856,Vis-B-Scan_AC,2022.2.5,None,
8,First_Order,2.0,viswhere,stimulus/viswhere_stim/blank_white.png,stimulus/viswhere_stim/blank_white.png,stimulus/viswhere_stim/90-deg_dot-left_turquoise.png,stimulus/viswhere_stim/90-deg_dot-right_peru.png,stimulus/viswhere_stim/blank_white.png,stimulus/viswhere_stim/line_box.png,stimulus/viswhere_stim/line_yes.png,stimulus/viswhere_stim/line_no.png,None,Line,None,Line,1,0.0,0,5.125,0,5.125,0,5.125,0,0.0,0.625,0,0.0,0,0.0,1,0.5,1,2.125,0,0,0,0,0,0,0,0,0,,,,,0,10,10,10,,,,,,,,,142.52703391699993,142.52703391699993,142.52703391699993,142.52703391699993,142.52703391699993,142.52703391699993,142.52703391699993,142.52703391699993,142.5079612923333,142.52703391699993,142.52703391699993,142.52703391699993,142.5079612923333,142.52703391699993,142.52703391699993,142.52703391699993,144.63422616699995,148.59150687500005,142.52703391699993,142.52703391699993,147.661996584,143.00094270900013,144.00797966699997,144.63422616699995,145.64726562500005,142.52703391699993,142.52703391699993,142.5079612923333,142.52703391699993,142.52703391699993,142.52703391699993,142.5079612923333,142.52703391699993,142.52703391699993,147.661996584,142.52703391699993,147.661996584,147.7443995000001,148.37501358400004,142.52703391699993,1,1,0.45271008199983953,reldom2_s019,001,2025-02-20_12h30.39.856,Vis-B-Scan_AC,2022.2.5,None,
9,First_Order,2.0,viswhere,stimulus/viswhere_stim/blank_white.png,stimulus/viswhere_stim/blank_white.png,stimulus/viswhere_stim/60-deg_dot-right_seagreen.png,stimulus/viswhere_stim/120-deg_dot-right_salmon.png,stimulus/viswhere_stim/blank_white.png,stimulus/viswhere_stim/dot_box.png,stimulus/viswhere_stim/dot_yes.png,stimulus/viswhere_stim/dot_no.png,None,Dot,None,Dot,1,0.0,0,5.125,0,5.125,0,5.125,0,0.0,0.625,0,0.0,0,0.0,1,0.5,1,2.125,0,0,0,0,0,0,0,0,0,,,,,0,11,11,11,,,,,,,,,148.59150687500005,148.59150687500005,148.59150687500005,148.59150687500005,148.59150687500005,148.59150687500005,148.59150687500005,148.59150687500005,148.57249066733343,148.59150687500005,148.59150687500005,148.59150687500005,148.57249066733343,148.59150687500005,148.59150687500005,148.59150687500005,150.70693837499994,154.65226095899993,148.59150687500005,148.59150687500005,153.720910042,149.08275470900003,150.08491200000003,150.70693837499994,151.71398379200014,148.59150687500005,148.59150687500005,148.57249066733343,148.59150687500005,148.59150687500005,148.59150687500005,148.57249066733343,148.59150687500005,148.59150687500005,153.720910042,148.59150687500005,153.720910042,153.8147032920001,154.45582975000002,148.59150687500005,1,1,1.1744504569999208,reldom2_s019,001,2025-02-20_12h30.39.856,Vis-B-Scan_AC,2022.2.5,None,
10,First_Order,2.0,viswhere,stimulus/viswhere_stim/blank_white.png,stimulus/viswhere_stim/blank_white.png,stimulus/viswhere_stim/120-deg_dot-right_cyan.png,stimulus/viswhere_stim/120-deg_dot-left_turquoise.png,stimulus/viswhere_stim/blank_white.png,stimulus/viswhere_stim/line_box.png,stimulus/viswhere_stim/line_yes.png,stimulus/viswhere_stim/line_no.png,None,Line,None,Line,1,0.0,0,5.125,0,5.125,0,5.125,0,0.0,0.625,0,0.0,0,0.0,1,0.5,1,2.125,0,0,0,0,0,0,0,0,0,,,,,0,12,12,12,,,,,,,,,154.65226095899993,154.65226095899993,154.65226095899993,154.65226095899993,154.65226095899993,154.65226095899993,154.65226095899993,154.65226095899993,154.63260454233327,154.65226095899993,154.65226095899993,154.65226095899993,154.63260454233327,154.65226095899993,154.65226095899993,154.65226095899993,156.75700295899992,160.79478375000008,154.65226095899993,154.65226095899993,159.78512408400002,155.1262958750001,156.13298054200004,156.75700295899992,157.770423875,154.65226095899993,154.65226095899993,154.64927120899995,154.65226095899993,154.65226095899993,154.65226095899993,154.64927120899995,154.65226095899993,154.65226095899993,159.78512408400002,154.65226095899993,159.78512408400002,159.88501895900004,160.51626349999992,154.65226095899993,1,1,0.60977270699982,reldom2_s019,001,2025-02-20_12h30.39.856,Vis-B-Scan_AC,2022.2.5,None,
0,0.0,None,fixation,stimulus/viswhere_stim/blank_white.png,stimulus/viswhere_stim/blank_white.png,stimulus/viswhat_stim/blank_white.png,stimulus/viswhat_stim/blank_white.png,stimulus/viswhere_stim/blank_white.png,stimulus/viswhere_stim/blank_white.png,stimulus/viswhere_stim/blank_white.png,stimulus/viswhere_stim/blank_white.png,0.0,0.0,0.0,0.0,0,0.0,0,0.0,0,0.0,0,0.0,0,0.0,0.0,0,0.0,0,0.0,0,0.0,0,0.0,0,0,0,0,0,0,0,0,8,,,,,0,13,13,13,,,,,,,,,160.79478375000008,160.79478375000008,160.79478375000008,160.79478375000008,160.79478375000008,160.79478375000008,160.79478375000008,160.79478375000008,160.69995066733335,160.79478375000008,160.79478375000008,160.79478375000008,160.69995066733335,160.79478375000008,160.79478375000008,160.79478375000008,160.79478375000008,160.79478375000008,160.79478375000008,160.79478375000008,160.79478375000008,160.79478375000008,160.79478375000008,160.79478375000008,160.79478375000008,160.79478375000008,160.79478375000008,160.74995066733337,160.79478375000008,160.79478375000008,160.79478375000008,160.74995066733337,160.79478375000008,160.79478375000008,160.79478375000008,160.79478375000008,160.79478375000008,166.00893195899994,166.00893195899994,168.91756291699994,None,0,,reldom2_s019,001,2025-02-20_12h30.39.856,Vis-B-Scan_AC,2022.2.5,None,
11,Second_Order,2.0,viswhere,stimulus/viswhere_stim/120-deg_dot-left_slateblue.png,stimulus/viswhere_stim/60-deg_dot-left_seagreen.png,stimulus/viswhere_stim/90-deg_dot-right_seagreen.png,stimulus/viswhere_stim/30-deg_dot-right_mediumslateblue.png,stimulus/viswhere_stim/match_blank.png,stimulus/viswhere_stim/match_box.png,stimulus/viswhere_stim/match_yes.png,stimulus/viswhere_stim/match_no.png,1.0,Match,Dot,Dot,1,5.125,0,5.125,0,5.125,0,5.125,0,0.75,0.75,1,0.5,1,2.125,1,0.5,1,2.125,0,0,0,0,0,0,0,0,0,,,,,0,14,14,14,,,,,,,,,168.91756291699994,174.03973862499993,169.3946014170001,170.39375533399993,171.01577262499995,172.01410191700006,168.91756291699994,168.91756291699994,168.91754791666665,168.91756291699994,168.91756291699994,168.91756291699994,168.91754791666665,168.91756291699994,174.03973862499993,174.83422537499996,176.915602584,180.79957949999994,174.83422537499996,174.83422537499996,179.95844962499996,175.29400699999997,176.30606520900005,176.915602584,177.93488183399995,174.83422537499996,174.83422537499996,174.82325633400006,174.83422537499996,174.83422537499996,174.83422537499996,174.82325633400006,174.83422537499996,174.83422537499996,179.95844962499996,174.83422537499996,179.95844962499996,180.02865420900002,180.79957949999994,174.83422537499996,1,1,0.7539118739998685,reldom2_s019,001,2025-02-20_12h30.39.856,Vis-B-Scan_AC,2022.2.5,None,
12,Second_Order,2.0,viswhere,stimulus/viswhere_stim/90-deg_dot-right_cyan.png,stimulus/viswhere_stim/90-deg_dot-left_salmon.png,stimulus/viswhere_stim/30-deg_dot-left_goldenrod.png,stimulus/viswhere_stim/60-deg_dot-left_turquoise.png,stimulus/viswhere_stim/match_blank.png,stimulus/viswhere_stim/match_box.png,stimulus/viswhere_stim/match_yes.png,stimulus/viswhere_stim/match_no.png,2.0,Match,Line,Dot,2,5.125,0,5.125,0,5.125,0,5.125,0,0.625,0.625,1,0.5,1,2.125,1,0.5,1,2.125,0,0,0,0,0,0,0,0,0,,,,,0,15,15,15,,,,,,,,,180.79957949999994,185.91716929199993,181.28533650000008,182.2748066250001,182.9097602500001,183.90763241700006,180.79957949999994,180.79957949999994,180.81329083399993,180.79957949999994,180.79957949999994,180.79957949999994,180.81329083399993,180.79957949999994,185.91716929199993,186.5873966250001,188.67263066700002,192.69942279199995,186.5873966250001,186.5873966250001,191.7253457920001,187.04523474999996,188.049176084,188.67263066700002,189.68640512499996,186.5873966250001,186.5873966250001,186.56401991733338,186.5873966250001,186.5873966250001,186.5873966250001,186.56401991733338,186.5873966250001,186.5873966250001,191.7253457920001,186.5873966250001,191.7253457920001,191.77891225000008,192.41010200000005,186.5873966250001,2,1,0.6156386659999953,reldom2_s019,001,2025-02-20_12h30.39.856,Vis-B-Scan_AC,2022.2.5,None,
0,0.0,None,fixation,stimulus/viswhere_stim/blank_white.png,stimulus/viswhere_stim/blank_white.png,stimulus/viswhat_stim/blank_white.png,stimulus/viswhat_stim/blank_white.png,stimulus/viswhere_stim/blank_white.png,stimulus/viswhere_stim/blank_white.png,stimulus/viswhere_stim/blank_white.png,stimulus/viswhere_stim/blank_white.png,0.0,0.0,0.0,0.0,0,0.0,0,0.0,0,0.0,0,0.0,0,0.0,0.0,0,0.0,0,0.0,0,0.0,0,0.0,0,0,0,0,0,0,0,0,10,,,,,0,16,16,16,,,,,,,,,192.69942279199995,192.69942279199995,192.69942279199995,192.69942279199995,192.69942279199995,192.69942279199995,192.69942279199995,192.69942279199995,192.60387320833328,192.69942279199995,192.69942279199995,192.69942279199995,192.60387320833328,192.69942279199995,192.69942279199995,192.69942279199995,192.69942279199995,192.69942279199995,192.69942279199995,192.69942279199995,192.69942279199995,192.69942279199995,192.69942279199995,192.69942279199995,192.69942279199995,192.69942279199995,192.69942279199995,192.6538732083333,192.69942279199995,192.69942279199995,192.69942279199995,192.6538732083333,192.69942279199995,192.69942279199995,192.69942279199995,192.69942279199995,192.69942279199995,197.92654045900008,197.92654045900008,202.96644600000013,None,0,,reldom2_s019,001,2025-02-20_12h30.39.856,Vis-B-Scan_AC,2022.2.5,None,
13,First_Order,3.0,viswhat,stimulus/viswhat_stim/blank_white.png,stimulus/viswhat_stim/blank_white.png,stimulus/viswhat_stim/land_animal-moose.png,stimulus/viswhat_stim/water_animal-whale (1).png,stimulus/viswhat_stim/blank_white.png,stimulus/viswhat_stim/type_box.png,stimulus/viswhat_stim/type_yes.png,stimulus/viswhat_stim/type_no.png,None,Type,None,Type,1,0.0,0,5.125,0,5.125,0,5.125,0,0.0,0.625,0,0.0,0,0.0,1,0.5,1,2.125,0,0,0,0,0,0,0,0,0,,,,,0,17,17,17,,,,,,,,,202.96644600000013,202.96644600000013,202.96644600000013,202.96644600000013,202.96644600000013,202.96644600000013,202.96644600000013,202.96644600000013,202.86705112566682,202.96644600000013,202.96644600000013,202.96644600000013,202.86705112566682,202.96644600000013,202.96644600000013,202.96644600000013,205.0649087500001,209.03345908400001,202.96644600000013,202.96644600000013,208.15190104199996,203.4320963340001,204.48439937500007,205.0649087500001,206.11604229199997,202.96644600000013,202.96644600000013,202.9170511256668,202.96644600000013,202.96644600000013,202.96644600000013,202.9170511256668,202.96644600000013,202.96644600000013,208.15190104199996,202.96644600000013,208.15190104199996,208.15190104199996,208.83416008400013,202.96644600000013,1,1,1.5599039990001984,reldom2_s019,001,2025-02-20_12h30.39.856,Vis-B-Scan_AC,2022.2.5,None,
14,First_Order,3.0,viswhat,stimulus/viswhat_stim/blank_white.png,stimulus/viswhat_stim/blank_white.png,stimulus/viswhat_stim/land_vehicle-trolley.png,stimulus/viswhat_stim/water_vehicle-jetski.png,stimulus/viswhat_stim/blank_white.png,stimulus/viswhat_stim/location_box.png,stimulus/viswhat_stim/location_yes.png,stimulus/viswhat_stim/location_no.png,None,Location,None,Type,2,0.0,0,5.125,0,5.125,0,5.125,0,0.0,0.625,0,0.0,0,0.0,1,0.5,1,2.125,0,0,0,0,0,0,0,0,0,,,,,0,18,18,18,,,,,,,,,209.03345908400001,209.03345908400001,209.03345908400001,209.03345908400001,209.03345908400001,209.03345908400001,209.03345908400001,209.03345908400001,209.00082675066682,209.03345908400001,209.03345908400001,209.03345908400001,209.00082675066682,209.03345908400001,209.03345908400001,209.03345908400001,211.1362602920001,215.10571741700005,209.03345908400001,209.03345908400001,214.17114575000005,209.50839137499997,210.53679712500002,211.1362602920001,212.14415195900006,209.03345908400001,209.03345908400001,209.01749341733347,209.03345908400001,209.03345908400001,209.03345908400001,209.01749341733347,209.03345908400001,209.03345908400001,214.17114575000005,209.03345908400001,214.17114575000005,214.24813041700008,214.88484245900008,209.03345908400001,2,1,0.9184211659999164,reldom2_s019,001,2025-02-20_12h30.39.856,Vis-B-Scan_AC,2022.2.5,None,
15,First_Order,3.0,viswhat,stimulus/viswhat_stim/blank_white.png,stimulus/viswhat_stim/blank_white.png,stimulus/viswhat_stim/land_animal-ostrich.png,stimulus/viswhat_stim/land_vehicle-train.png,stimulus/viswhat_stim/blank_white.png,stimulus/viswhat_stim/location_box.png,stimulus/viswhat_stim/location_yes.png,stimulus/viswhat_stim/location_no.png,None,Location,None,Location,1,0.0,0,5.125,0,5.125,0,5.125,0,0.0,0.625,0,0.0,0,0.0,1,0.5,1,2.125,0,0,0,0,0,0,0,0,0,,,,,0,19,19,19,,,,,,,,,215.10571741700005,215.10571741700005,215.10571741700005,215.10571741700005,215.10571741700005,215.10571741700005,215.10571741700005,215.10571741700005,215.08076404199994,215.10571741700005,215.10571741700005,215.10571741700005,215.08076404199994,215.10571741700005,215.10571741700005,215.10571741700005,217.215108417,221.499991917,215.10571741700005,215.10571741700005,220.24048949999997,215.58686275000014,216.59819808399993,217.215108417,218.22945137500005,215.10571741700005,215.10571741700005,215.0974307086666,215.10571741700005,215.10571741700005,215.10571741700005,215.0974307086666,215.10571741700005,215.10571741700005,220.24048949999997,215.10571741700005,220.24048949999997,220.32854387499992,220.96478566700011,215.10571741700005,1,1,0.7833654579999347,reldom2_s019,001,2025-02-20_12h30.39.856,Vis-B-Scan_AC,2022.2.5,None,
16,First_Order,3.0,viswhat,stimulus/viswhat_stim/blank_white.png,stimulus/viswhat_stim/blank_white.png,stimulus/viswhat_stim/water_animal-lobster.png,stimulus/viswhat_stim/land_animal-moose.png,stimulus/viswhat_stim/blank_white.png,stimulus/viswhat_stim/location_box.png,stimulus/viswhat_stim/location_yes.png,stimulus/viswhat_stim/location_no.png,None,Location,None,Type,2,0.0,0,5.125,0,5.125,0,5.125,0,0.0,0.625,0,0.0,0,0.0,1,0.5,1,2.125,0,0,0,0,0,0,0,0,0,,,,,0,20,20,20,,,,,,,,,221.499991917,221.499991917,221.499991917,221.499991917,221.499991917,221.499991917,221.499991917,221.499991917,221.1335909173334,221.499991917,221.499991917,221.499991917,221.1335909173334,221.499991917,221.499991917,221.499991917,223.46920129199998,,221.499991917,221.499991917,226.86638216699998,221.85985341700007,223.11119608400008,223.46920129199998,224.72450075000006,221.499991917,221.499991917,221.31692425066674,221.499991917,221.499991917,221.499991917,221.31692425066674,221.499991917,221.499991917,226.86638216699998,221.499991917,226.86638216699998,226.69271441699993,,221.499991917,2,1,0.5440637909998713,reldom2_s019,001,2025-02-20_12h30.39.856,Vis-B-Scan_AC,2022.2.5,None,
0,0.0,None,fixation,stimulus/viswhere_stim/blank_white.png,stimulus/viswhere_stim/blank_white.png,stimulus/viswhat_stim/blank_white.png,stimulus/viswhat_stim/blank_white.png,stimulus/viswhere_stim/blank_white.png,stimulus/viswhere_stim/blank_white.png,stimulus/viswhere_stim/blank_white.png,stimulus/viswhere_stim/blank_white.png,0.0,0.0,0.0,0.0,0,0.0,0,0.0,0,0.0,0,0.0,0,0.0,0.0,0,0.0,0,0.0,0,0.0,0,0.0,0,0,0,0,0,0,0,0,8,,,,,0,21,21,21,,,,,,,,,227.54134258399995,227.54134258399995,227.54134258399995,227.54134258399995,227.54134258399995,227.54134258399995,227.54134258399995,227.54134258399995,227.4395555,227.54134258399995,227.54134258399995,227.54134258399995,227.4395555,227.54134258399995,227.54134258399995,227.54134258399995,227.54134258399995,227.54134258399995,227.54134258399995,227.54134258399995,227.54134258399995,227.54134258399995,227.54134258399995,227.54134258399995,227.54134258399995,227.54134258399995,227.54134258399995,227.48955550000002,227.54134258399995,227.54134258399995,227.54134258399995,227.48955550000002,227.54134258399995,227.54134258399995,227.54134258399995,227.54134258399995,227.54134258399995,232.75645575,232.75645575,235.67512995900006,None,0,,reldom2_s019,001,2025-02-20_12h30.39.856,Vis-B-Scan_AC,2022.2.5,None,
17,Second_Order,3.0,viswhat,stimulus/viswhat_stim/land_animal-giraffe.png,stimulus/viswhat_stim/water_animal-stingray.png,stimulus/viswhat_stim/water_animal-squid.png,stimulus/viswhat_stim/water_vehicle-yacht.png,stimulus/viswhere_stim/match_blank.png,stimulus/viswhere_stim/match_box.png,stimulus/viswhere_stim/match_yes.png,stimulus/viswhere_stim/match_no.png,2.0,Match,Type,Location,2,5.125,0,5.125,0,5.125,0,5.125,0,0.75,0.75,1,0.5,1,2.125,1,0.5,1,2.125,0,0,0,0,0,0,0,0,0,,,,,0,22,22,22,,,,,,,,,235.67512995900006,240.79389512500006,236.12806179199993,237.11717041700012,237.75340112499998,238.75136195899995,235.67512995900006,235.67512995900006,235.67638924999997,235.67512995900006,235.67512995900006,235.67512995900006,235.67638924999997,235.67512995900006,240.79389512500006,241.62762025000006,243.68884766700012,,241.62762025000006,241.62762025000006,246.76709804200004,242.0775167920001,243.12816733399995,243.68884766700012,244.74521075000007,241.62762025000006,241.62762025000006,241.59465916666667,241.62762025000006,241.62762025000006,241.62762025000006,241.59465916666667,241.62762025000006,241.62762025000006,246.76709804200004,241.62762025000006,246.76709804200004,246.79899245899992,,241.62762025000006,2,1,0.6032069569998839,reldom2_s019,001,2025-02-20_12h30.39.856,Vis-B-Scan_AC,2022.2.5,None,
18,Second_Order,3.0,viswhat,stimulus/viswhat_stim/water_animal-whale (1).png,stimulus/viswhat_stim/land_animal-tiger.png,stimulus/viswhat_stim/water_animal-orka.png,stimulus/viswhat_stim/water_vehicle-cargoboat.png,stimulus/viswhere_stim/match_blank.png,stimulus/viswhere_stim/match_box.png,stimulus/viswhere_stim/match_yes.png,stimulus/viswhere_stim/match_no.png,2.0,Match,Type,Location,2,5.125,0,5.125,0,5.125,0,5.125,0,0.625,0.625,1,0.5,1,2.125,1,0.5,1,2.125,0,0,0,0,0,0,0,0,0,,,,,0,23,23,23,,,,,,,,,247.59746787500012,252.72123699999997,248.06016595899996,249.05878808400007,249.681963,250.67890687499994,247.59746787500012,247.59746787500012,247.60248416699994,247.59746787500012,247.59746787500012,247.59746787500012,247.60248416699994,247.59746787500012,252.72123699999997,253.4923490000001,255.56591945900004,,253.4923490000001,253.4923490000001,258.70285916700004,253.94582216699996,255.048504375,255.56591945900004,256.6169163750001,253.4923490000001,253.4923490000001,253.43512816700002,253.4923490000001,253.4923490000001,253.4923490000001,253.43512816700002,253.4923490000001,253.4923490000001,258.70285916700004,253.4923490000001,258.70285916700004,258.642984542,259.57282187500005,253.4923490000001,2,1,0.5117864160001773,reldom2_s019,001,2025-02-20_12h30.39.856,Vis-B-Scan_AC,2022.2.5,None,
0,0.0,None,fixation,stimulus/viswhere_stim/blank_white.png,stimulus/viswhere_stim/blank_white.png,stimulus/viswhat_stim/blank_white.png,stimulus/viswhat_stim/blank_white.png,stimulus/viswhere_stim/blank_white.png,stimulus/viswhere_stim/blank_white.png,stimulus/viswhere_stim/blank_white.png,stimulus/viswhere_stim/blank_white.png,0.0,0.0,0.0,0.0,0,0.0,0,0.0,0,0.0,0,0.0,0,0.0,0.0,0,0.0,0,0.0,0,0.0,0,0.0,0,0,0,0,0,0,0,0,9,,,,,0,24,24,24,,,,,,,,,259.57282187500005,259.57282187500005,259.57282187500005,259.57282187500005,259.57282187500005,259.57282187500005,259.57282187500005,259.57282187500005,259.4827299173334,259.57282187500005,259.57282187500005,259.57282187500005,259.4827299173334,259.57282187500005,259.57282187500005,259.57282187500005,259.57282187500005,259.57282187500005,259.57282187500005,259.57282187500005,259.57282187500005,259.57282187500005,259.57282187500005,259.57282187500005,259.57282187500005,259.57282187500005,259.57282187500005,259.53272991733337,259.57282187500005,259.57282187500005,259.57282187500005,259.53272991733337,259.57282187500005,259.57282187500005,259.57282187500005,259.57282187500005,259.57282187500005,264.7809930000001,264.7809930000001,268.784545834,None,0,,reldom2_s019,001,2025-02-20_12h30.39.856,Vis-B-Scan_AC,2022.2.5,None,
19,First_Order,4.0,viswhat,stimulus/viswhat_stim/blank_white.png,stimulus/viswhat_stim/blank_white.png,stimulus/viswhat_stim/water_animal-dolphin.png,stimulus/viswhat_stim/water_vehicle-canoe.png,stimulus/viswhat_stim/blank_white.png,stimulus/viswhat_stim/type_box.png,stimulus/viswhat_stim/type_yes.png,stimulus/viswhat_stim/type_no.png,None,Type,None,Location,2,0.0,0,5.125,0,5.125,0,5.125,0,0.0,0.625,0,0.0,0,0.0,1,0.5,1,2.125,0,0,0,0,0,0,0,0,0,,,,,0,25,25,25,,,,,,,,,268.784545834,268.784545834,268.784545834,268.784545834,268.784545834,268.784545834,268.784545834,268.784545834,268.7437341256667,268.784545834,268.784545834,268.784545834,268.7437341256667,268.784545834,268.784545834,268.784545834,270.88898862500014,,268.784545834,268.784545834,273.9225972920001,269.24563650000005,270.284673417,270.88898862500014,271.9031425840001,268.784545834,268.784545834,268.7604007923334,268.784545834,268.784545834,268.784545834,268.7604007923334,268.784545834,268.784545834,273.9225972920001,268.784545834,273.9225972920001,273.99204970899996,274.641874917,268.784545834,2,1,1.4591935830001148,reldom2_s019,001,2025-02-20_12h30.39.856,Vis-B-Scan_AC,2022.2.5,None,
20,First_Order,4.0,viswhat,stimulus/viswhat_stim/blank_white.png,stimulus/viswhat_stim/blank_white.png,stimulus/viswhat_stim/land_animal-elephant.png,stimulus/viswhat_stim/land_vehicle-pickuptruck.png,stimulus/viswhat_stim/blank_white.png,stimulus/viswhat_stim/type_box.png,stimulus/viswhat_stim/type_yes.png,stimulus/viswhat_stim/type_no.png,None,Type,None,Location,2,0.0,0,5.125,0,5.125,0,5.125,0,0.0,0.625,0,0.0,0,0.0,1,0.5,1,2.125,0,0,0,0,0,0,0,0,0,,,,,0,26,26,26,,,,,,,,,274.92089158399995,274.92089158399995,274.92089158399995,274.92089158399995,274.92089158399995,274.92089158399995,274.92089158399995,274.92089158399995,274.81199633400007,274.92089158399995,274.92089158399995,274.92089158399995,274.81199633400007,274.92089158399995,274.92089158399995,274.92089158399995,276.996360417,,274.92089158399995,274.92089158399995,280.136581834,275.3955236250001,276.46453825000003,276.996360417,278.06656675,274.92089158399995,274.92089158399995,274.8619963340001,274.92089158399995,274.92089158399995,274.92089158399995,274.8619963340001,274.92089158399995,274.92089158399995,280.136581834,274.92089158399995,280.136581834,280.136581834,281.1737519590001,274.92089158399995,2,1,0.4359898320001321,reldom2_s019,001,2025-02-20_12h30.39.856,Vis-B-Scan_AC,2022.2.5,None,
21,First_Order,4.0,viswhat,stimulus/viswhat_stim/blank_white.png,stimulus/viswhat_stim/blank_white.png,stimulus/viswhat_stim/water_vehicle-cruiseship.png,stimulus/viswhat_stim/land_vehicle-oldcar.png,stimulus/viswhat_stim/blank_white.png,stimulus/viswhat_stim/type_box.png,stimulus/viswhat_stim/type_yes.png,stimulus/viswhat_stim/type_no.png,None,Type,None,Type,1,0.0,0,5.125,0,5.125,0,5.125,0,0.0,0.625,0,0.0,0,0.0,1,0.5,1,2.125,0,0,0,0,0,0,0,0,0,,,,,0,27,27,27,,,,,,,,,281.1737519590001,281.1737519590001,281.1737519590001,281.1737519590001,281.1737519590001,281.1737519590001,281.1737519590001,281.1737519590001,280.94693375066674,281.1737519590001,281.1737519590001,281.1737519590001,280.94693375066674,281.1737519590001,281.1737519590001,281.1737519590001,283.24505262499997,,281.1737519590001,281.1737519590001,286.4638345000001,281.6338605000001,282.78562091699996,283.24505262499997,284.3982182500001,281.1737519590001,281.1737519590001,281.0636004173334,281.1737519590001,281.1737519590001,281.1737519590001,281.0636004173334,281.1737519590001,281.1737519590001,286.4638345000001,281.1737519590001,286.4638345000001,286.35430262499995,,281.1737519590001,1,1,0.5172222079997937,reldom2_s019,001,2025-02-20_12h30.39.856,Vis-B-Scan_AC,2022.2.5,None,
22,First_Order,4.0,viswhat,stimulus/viswhat_stim/blank_white.png,stimulus/viswhat_stim/blank_white.png,stimulus/viswhat_stim/water_vehicle-pirateship.png,stimulus/viswhat_stim/water_animal-orka.png,stimulus/viswhat_stim/blank_white.png,stimulus/viswhat_stim/location_box.png,stimulus/viswhat_stim/location_yes.png,stimulus/viswhat_stim/location_no.png,None,Location,None,Location,1,0.0,0,5.125,0,5.125,0,5.125,0,0.0,0.625,0,0.0,0,0.0,1,0.5,1,2.125,0,0,0,0,0,0,0,0,0,,,,,0,28,28,28,,,,,,,,,287.30113525,287.30113525,287.30113525,287.30113525,287.30113525,287.30113525,287.30113525,287.30113525,287.1857606253334,287.30113525,287.30113525,287.30113525,287.1857606253334,287.30113525,287.30113525,287.30113525,289.3727635,,287.30113525,287.30113525,292.51422658399997,287.76949270900013,288.83765641700006,289.3727635,290.4453575,287.30113525,287.30113525,287.2357606253334,287.30113525,287.30113525,287.30113525,287.2357606253334,287.30113525,287.30113525,292.51422658399997,287.30113525,292.51422658399997,292.51422658399997,293.402132834,287.30113525,1,1,0.46047258199996577,reldom2_s019,001,2025-02-20_12h30.39.856,Vis-B-Scan_AC,2022.2.5,None,
0,0.0,None,fixation,stimulus/viswhere_stim/blank_white.png,stimulus/viswhere_stim/blank_white.png,stimulus/viswhat_stim/blank_white.png,stimulus/viswhat_stim/blank_white.png,stimulus/viswhere_stim/blank_white.png,stimulus/viswhere_stim/blank_white.png,stimulus/viswhere_stim/blank_white.png,stimulus/viswhere_stim/blank_white.png,0.0,0.0,0.0,0.0,0,0.0,0,0.0,0,0.0,0,0.0,0,0.0,0.0,0,0.0,0,0.0,0,0.0,0,0.0,0,0,0,0,0,0,0,0,10,,,,,0,29,29,29,,,,,,,,,293.402132834,293.402132834,293.402132834,293.402132834,293.402132834,293.402132834,293.402132834,293.402132834,293.30948116733333,293.402132834,293.402132834,293.402132834,293.30948116733333,293.402132834,293.402132834,293.402132834,293.402132834,293.402132834,293.402132834,293.402132834,293.402132834,293.402132834,293.402132834,293.402132834,293.402132834,293.402132834,293.402132834,293.3594811673333,293.402132834,293.402132834,293.402132834,293.3594811673333,293.402132834,293.402132834,293.402132834,293.402132834,293.402132834,298.632270584,298.632270584,303.56446574999995,None,0,,reldom2_s019,001,2025-02-20_12h30.39.856,Vis-B-Scan_AC,2022.2.5,None,
23,Second_Order,4.0,viswhat,stimulus/viswhat_stim/land_vehicle-pickuptruck.png,stimulus/viswhat_stim/land_animal-lion.png,stimulus/viswhat_stim/water_animal-jellyfish.png,stimulus/viswhat_stim/water_vehicle-cabincruiser.png,stimulus/viswhere_stim/match_blank.png,stimulus/viswhere_stim/match_box.png,stimulus/viswhere_stim/match_yes.png,stimulus/viswhere_stim/match_no.png,1.0,Match,Location,Location,1,5.125,0,5.125,0,5.125,0,5.125,0,0.75,0.75,1,0.5,1,2.125,1,0.5,1,2.125,0,0,0,0,0,0,0,0,0,,,,,0,30,30,30,,,,,,,,,303.56446574999995,308.68467079200013,304.022543584,305.02127633400005,305.6560937500001,306.64476820899995,303.56446574999995,303.56446574999995,303.56334437533326,303.56446574999995,303.56446574999995,303.56446574999995,303.56334437533326,303.56446574999995,308.68467079200013,309.52231374999997,311.586717292,315.51772941700006,309.52231374999997,309.52231374999997,314.698625,309.9597330419999,310.99235954200003,311.586717292,312.62881145899996,309.52231374999997,309.52231374999997,309.4854367506667,309.52231374999997,309.52231374999997,309.52231374999997,309.4854367506667,309.52231374999997,309.52231374999997,314.698625,309.52231374999997,314.698625,314.698625,,309.52231374999997,1,1,0.5425580409998929,reldom2_s019,001,2025-02-20_12h30.39.856,Vis-B-Scan_AC,2022.2.5,None,
24,Second_Order,4.0,viswhat,stimulus/viswhat_stim/water_vehicle-pirateship.png,stimulus/viswhat_stim/land_vehicle-oldcar.png,stimulus/viswhat_stim/land_animal-zebra.png,stimulus/viswhat_stim/water_animal-seahorse.png,stimulus/viswhere_stim/match_blank.png,stimulus/viswhere_stim/match_box.png,stimulus/viswhere_stim/match_yes.png,stimulus/viswhere_stim/match_no.png,1.0,Match,Type,Type,1,5.125,0,5.125,0,5.125,0,5.125,0,0.625,0.625,1,0.5,1,2.125,1,0.5,1,2.125,0,0,0,0,0,0,0,0,0,,,,,0,31,31,31,,,,,,,,,315.51772941700006,320.64044112500005,315.97981612500007,316.9688940000001,317.60536137500003,318.6022103340001,315.51772941700006,315.51772941700006,315.5324456256668,315.51772941700006,315.51772941700006,315.51772941700006,315.5324456256668,315.51772941700006,320.64044112500005,321.33167183399996,323.394154542,327.436841875,321.33167183399996,321.33167183399996,326.46391166700005,321.77079716699996,322.7884092500001,323.394154542,324.422706417,321.33167183399996,321.33167183399996,321.30903804199994,321.33167183399996,321.33167183399996,321.33167183399996,321.30903804199994,321.33167183399996,321.33167183399996,326.46391166700005,321.33167183399996,326.46391166700005,326.51978129200006,327.153512375,321.33167183399996,1,1,0.46141133299988724,reldom2_s019,001,2025-02-20_12h30.39.856,Vis-B-Scan_AC,2022.2.5,None,
0,0.0,None,fixation,stimulus/viswhere_stim/blank_white.png,stimulus/viswhere_stim/blank_white.png,stimulus/viswhat_stim/blank_white.png,stimulus/viswhat_stim/blank_white.png,stimulus/viswhere_stim/blank_white.png,stimulus/viswhere_stim/blank_white.png,stimulus/viswhere_stim/blank_white.png,stimulus/viswhere_stim/blank_white.png,0.0,0.0,0.0,0.0,0,0.0,0,0.0,0,0.0,0,0.0,0,0.0,0.0,0,0.0,0,0.0,0,0.0,0,0.0,0,0,0,0,0,0,0,0,9,,,,,0,32,32,32,,,,,,,,,327.436841875,327.436841875,327.436841875,327.436841875,327.436841875,327.436841875,327.436841875,327.436841875,327.3456858749999,327.436841875,327.436841875,327.436841875,327.3456858749999,327.436841875,327.436841875,327.436841875,327.436841875,327.436841875,327.436841875,327.436841875,327.436841875,327.436841875,327.436841875,327.436841875,327.436841875,327.436841875,327.436841875,327.3956858749999,327.436841875,327.436841875,327.436841875,327.3956858749999,327.436841875,327.436841875,327.436841875,327.436841875,327.436841875,332.62492362500006,332.62492362500006,336.6314836250001,None,0,,reldom2_s019,001,2025-02-20_12h30.39.856,Vis-B-Scan_AC,2022.2.5,None,
25,First_Order,5.0,viswhere,stimulus/viswhere_stim/blank_white.png,stimulus/viswhere_stim/blank_white.png,stimulus/viswhere_stim/90-deg_dot-right_seagreen.png,stimulus/viswhere_stim/150-deg_dot-right_turquoise.png,stimulus/viswhere_stim/blank_white.png,stimulus/viswhere_stim/line_box.png,stimulus/viswhere_stim/line_yes.png,stimulus/viswhere_stim/line_no.png,None,Line,None,Dot,2,0.0,0,5.125,0,5.125,0,5.125,0,0.0,0.625,0,0.0,0,0.0,1,0.5,1,2.125,0,0,0,0,0,0,0,0,0,,,,,0,33,33,33,,,,,,,,,336.6314836250001,336.6314836250001,336.6314836250001,336.6314836250001,336.6314836250001,336.6314836250001,336.6314836250001,336.6314836250001,336.61275054166674,336.6314836250001,336.6314836250001,336.6314836250001,336.61275054166674,336.6314836250001,336.6314836250001,336.6314836250001,338.7271445839999,342.6978421670001,336.6314836250001,336.6314836250001,341.77202187500006,337.1113505840001,338.1319800420001,338.7271445839999,339.733458959,336.6314836250001,336.6314836250001,336.61275054166674,336.6314836250001,336.6314836250001,336.6314836250001,336.61275054166674,336.6314836250001,336.6314836250001,341.77202187500006,336.6314836250001,341.77202187500006,341.855372625,342.48048337499995,336.6314836250001,2,1,0.5043516240000372,reldom2_s019,001,2025-02-20_12h30.39.856,Vis-B-Scan_AC,2022.2.5,None,
26,First_Order,5.0,viswhere,stimulus/viswhere_stim/blank_white.png,stimulus/viswhere_stim/blank_white.png,stimulus/viswhere_stim/150-deg_dot-left_seagreen.png,stimulus/viswhere_stim/150-deg_dot-right_seagreen.png,stimulus/viswhere_stim/blank_white.png,stimulus/viswhere_stim/dot_box.png,stimulus/viswhere_stim/dot_yes.png,stimulus/viswhere_stim/dot_no.png,None,Dot,None,Line,2,0.0,0,5.125,0,5.125,0,5.125,0,0.0,0.625,0,0.0,0,0.0,1,0.5,1,2.125,0,0,0,0,0,0,0,0,0,,,,,0,34,34,34,,,,,,,,,342.6978421670001,342.6978421670001,342.6978421670001,342.6978421670001,342.6978421670001,342.6978421670001,342.6978421670001,342.6978421670001,342.6764266673334,342.6978421670001,342.6978421670001,342.6978421670001,342.6764266673334,342.6978421670001,342.6978421670001,342.6978421670001,344.810803459,348.75845041699995,342.6978421670001,342.6978421670001,347.819269375,343.1783129590001,344.19722479200004,344.810803459,345.81770195900003,342.6978421670001,342.6978421670001,342.693093334,342.6978421670001,342.6978421670001,342.6978421670001,342.693093334,342.6978421670001,342.6978421670001,347.819269375,342.6978421670001,347.819269375,347.916538125,348.5421335840001,342.6978421670001,2,1,0.644502207999949,reldom2_s019,001,2025-02-20_12h30.39.856,Vis-B-Scan_AC,2022.2.5,None,
27,First_Order,5.0,viswhere,stimulus/viswhere_stim/blank_white.png,stimulus/viswhere_stim/blank_white.png,stimulus/viswhere_stim/90-deg_dot-left_turquoise.png,stimulus/viswhere_stim/90-deg_dot-right_seagreen.png,stimulus/viswhere_stim/blank_white.png,stimulus/viswhere_stim/line_box.png,stimulus/viswhere_stim/line_yes.png,stimulus/viswhere_stim/line_no.png,None,Line,None,Line,1,0.0,0,5.125,0,5.125,0,5.125,0,0.0,0.625,0,0.0,0,0.0,1,0.5,1,2.125,0,0,0,0,0,0,0,0,0,,,,,0,35,35,35,,,,,,,,,348.75845041699995,348.75845041699995,348.75845041699995,348.75845041699995,348.75845041699995,348.75845041699995,348.75845041699995,348.75845041699995,348.73766187533334,348.75845041699995,348.75845041699995,348.75845041699995,348.73766187533334,348.75845041699995,348.75845041699995,348.75845041699995,350.8627200420001,354.8222269170001,348.75845041699995,348.75845041699995,353.893919334,349.237872292,350.2526491670001,350.8627200420001,351.864964375,348.75845041699995,348.75845041699995,348.754328542,348.75845041699995,348.75845041699995,348.75845041699995,348.754328542,348.75845041699995,348.75845041699995,353.893919334,348.75845041699995,353.893919334,353.977254959,354.60370224999997,348.75845041699995,1,1,0.5209902909998618,reldom2_s019,001,2025-02-20_12h30.39.856,Vis-B-Scan_AC,2022.2.5,None,
28,First_Order,5.0,viswhere,stimulus/viswhere_stim/blank_white.png,stimulus/viswhere_stim/blank_white.png,stimulus/viswhere_stim/120-deg_dot-right_mediumslateblue.png,stimulus/viswhere_stim/90-deg_dot-right_lightsseagreen.png,stimulus/viswhere_stim/blank_white.png,stimulus/viswhere_stim/dot_box.png,stimulus/viswhere_stim/dot_yes.png,stimulus/viswhere_stim/dot_no.png,None,Dot,None,Dot,1,0.0,0,5.125,0,5.125,0,5.125,0,0.0,0.625,0,0.0,0,0.0,1,0.5,1,2.125,0,0,0,0,0,0,0,0,0,,,,,0,36,36,36,,,,,,,,,354.8222269170001,354.8222269170001,354.8222269170001,354.8222269170001,354.8222269170001,354.8222269170001,354.8222269170001,354.8222269170001,354.8019405833334,354.8222269170001,354.8222269170001,354.8222269170001,354.8019405833334,354.8222269170001,354.8222269170001,354.8222269170001,356.937367084,360.9625362500001,354.8222269170001,354.8222269170001,359.95524016700006,355.29888962500013,356.3104907920001,356.937367084,357.95457562499996,354.8222269170001,354.8222269170001,354.81860725000007,354.8222269170001,354.8222269170001,354.8222269170001,354.81860725000007,354.8222269170001,354.8222269170001,359.95524016700006,354.8222269170001,359.95524016700006,360.05148150000014,360.68443858399996,354.8222269170001,1,1,0.47536524899987853,reldom2_s019,001,2025-02-20_12h30.39.856,Vis-B-Scan_AC,2022.2.5,None,
0,0.0,None,fixation,stimulus/viswhere_stim/blank_white.png,stimulus/viswhere_stim/blank_white.png,stimulus/viswhat_stim/blank_white.png,stimulus/viswhat_stim/blank_white.png,stimulus/viswhere_stim/blank_white.png,stimulus/viswhere_stim/blank_white.png,stimulus/viswhere_stim/blank_white.png,stimulus/viswhere_stim/blank_white.png,0.0,0.0,0.0,0.0,0,0.0,0,0.0,0,0.0,0,0.0,0,0.0,0.0,0,0.0,0,0.0,0,0.0,0,0.0,0,0,0,0,0,0,0,0,10,,,,,0,37,37,37,,,,,,,,,360.9625362500001,360.9625362500001,360.9625362500001,360.9625362500001,360.9625362500001,360.9625362500001,360.9625362500001,360.9625362500001,360.8659040423334,360.9625362500001,360.9625362500001,360.9625362500001,360.8659040423334,360.9625362500001,360.9625362500001,360.9625362500001,360.9625362500001,360.9625362500001,360.9625362500001,360.9625362500001,360.9625362500001,360.9625362500001,360.9625362500001,360.9625362500001,360.9625362500001,360.9625362500001,360.9625362500001,360.9159040423334,360.9625362500001,360.9625362500001,360.9625362500001,360.9159040423334,360.9625362500001,360.9625362500001,360.9625362500001,360.9625362500001,360.9625362500001,366.1519626250001,366.1519626250001,371.0790769590001,None,0,,reldom2_s019,001,2025-02-20_12h30.39.856,Vis-B-Scan_AC,2022.2.5,None,
29,Second_Order,5.0,viswhere,stimulus/viswhere_stim/30-deg_dot-right_peru.png,stimulus/viswhere_stim/120-deg_dot-right_royalblue.png,stimulus/viswhere_stim/120-deg_dot-left_lightsseagreen.png,stimulus/viswhere_stim/90-deg_dot-left_seagreen.png,stimulus/viswhere_stim/match_blank.png,stimulus/viswhere_stim/match_box.png,stimulus/viswhere_stim/match_yes.png,stimulus/viswhere_stim/match_no.png,1.0,Match,Dot,Dot,1,5.125,0,5.125,0,5.125,0,5.125,0,0.75,0.75,1,0.5,1,2.125,1,0.5,1,2.125,0,0,0,0,0,0,0,0,0,,,,,0,38,38,38,,,,,,,,,371.0790769590001,376.2023186250001,371.57508129200005,372.5635540420001,373.18252266700006,374.180960875,371.0790769590001,371.0790769590001,371.09362750033335,371.0790769590001,371.0790769590001,371.0790769590001,371.09362750033335,371.0790769590001,376.2023186250001,376.99853195900005,379.06970054199996,382.9697867919999,376.99853195900005,376.99853195900005,382.12252383400005,377.44166962500003,378.45794312499993,379.06970054199996,380.07378100000005,376.99853195900005,376.99853195900005,376.98731449999997,376.99853195900005,376.99853195900005,376.99853195900005,376.98731449999997,376.99853195900005,376.99853195900005,382.12252383400005,376.99853195900005,382.12252383400005,382.192601792,382.9697867919999,376.99853195900005,1,1,0.4947448739999345,reldom2_s019,001,2025-02-20_12h30.39.856,Vis-B-Scan_AC,2022.2.5,None,
30,Second_Order,5.0,viswhere,stimulus/viswhere_stim/60-deg_dot-right_seagreen.png,stimulus/viswhere_stim/60-deg_dot-left_slateblue.png,stimulus/viswhere_stim/120-deg_dot-left_seagreen.png,stimulus/viswhere_stim/30-deg_dot-left_cyan.png,stimulus/viswhere_stim/match_blank.png,stimulus/viswhere_stim/match_box.png,stimulus/viswhere_stim/match_yes.png,stimulus/viswhere_stim/match_no.png,2.0,Match,Line,Dot,2,5.125,0,5.125,0,5.125,0,5.125,0,0.625,0.625,1,0.5,1,2.125,1,0.5,1,2.125,0,0,0,0,0,0,0,0,0,,,,,0,39,39,39,,,,,,,,,382.9697867919999,388.0851795000001,383.45579054199993,384.45480999999995,385.07837233400005,386.075584209,382.9697867919999,382.9697867919999,382.9834415840001,382.9697867919999,382.9697867919999,382.9697867919999,382.9834415840001,382.9697867919999,388.0851795000001,388.75422716699995,390.837541334,394.86661445899995,388.75422716699995,388.75422716699995,393.8855551670001,389.215659209,390.2278611670001,390.837541334,391.83980895900004,388.75422716699995,388.75422716699995,388.73107104233327,388.75422716699995,388.75422716699995,388.75422716699995,388.73107104233327,388.75422716699995,388.75422716699995,393.8855551670001,388.75422716699995,393.8855551670001,393.95907424999996,394.58413625000003,388.75422716699995,2,1,0.6865195000000313,reldom2_s019,001,2025-02-20_12h30.39.856,Vis-B-Scan_AC,2022.2.5,None,
0,0.0,None,fixation,stimulus/viswhere_stim/blank_white.png,stimulus/viswhere_stim/blank_white.png,stimulus/viswhat_stim/blank_white.png,stimulus/viswhat_stim/blank_white.png,stimulus/viswhere_stim/blank_white.png,stimulus/viswhere_stim/blank_white.png,stimulus/viswhere_stim/blank_white.png,stimulus/viswhere_stim/blank_white.png,0.0,0.0,0.0,0.0,0,0.0,0,0.0,0,0.0,0,0.0,0,0.0,0.0,0,0.0,0,0.0,0,0.0,0,0.0,0,0,0,0,0,0,0,0,9,,,,,0,40,40,40,,,,,,,,,394.86661445899995,394.86661445899995,394.86661445899995,394.86661445899995,394.86661445899995,394.86661445899995,394.86661445899995,394.86661445899995,394.7676131253334,394.86661445899995,394.86661445899995,394.86661445899995,394.7676131253334,394.86661445899995,394.86661445899995,394.86661445899995,394.86661445899995,394.86661445899995,394.86661445899995,394.86661445899995,394.86661445899995,394.86661445899995,394.86661445899995,394.86661445899995,394.86661445899995,394.86661445899995,394.86661445899995,394.8176131253334,394.86661445899995,394.86661445899995,394.86661445899995,394.8176131253334,394.86661445899995,394.86661445899995,394.86661445899995,394.86661445899995,394.86661445899995,400.0821846250001,400.0821846250001,404.05113466700004,None,0,,reldom2_s019,001,2025-02-20_12h30.39.856,Vis-B-Scan_AC,2022.2.5,None,
31,First_Order,6.0,viswhere,stimulus/viswhere_stim/blank_white.png,stimulus/viswhere_stim/blank_white.png,stimulus/viswhere_stim/120-deg_dot-left_royalblue.png,stimulus/viswhere_stim/30-deg_dot-left_goldenrod.png,stimulus/viswhere_stim/blank_white.png,stimulus/viswhere_stim/dot_box.png,stimulus/viswhere_stim/dot_yes.png,stimulus/viswhere_stim/dot_no.png,None,Dot,None,Dot,1,0.0,0,5.125,0,5.125,0,5.125,0,0.0,0.625,0,0.0,0,0.0,1,0.5,1,2.125,0,0,0,0,0,0,0,0,0,,,,,0,41,41,41,,,,,,,,,404.05113466700004,404.05113466700004,404.05113466700004,404.05113466700004,404.05113466700004,404.05113466700004,404.05113466700004,404.05113466700004,404.03332970866666,404.05113466700004,404.05113466700004,404.05113466700004,404.03332970866666,404.05113466700004,404.05113466700004,404.05113466700004,406.145920167,410.1143649170001,404.05113466700004,404.05113466700004,409.17773966699997,404.52741645900005,405.536564042,406.145920167,407.158484542,404.05113466700004,404.05113466700004,404.03332970866666,404.05113466700004,404.05113466700004,404.05113466700004,404.03332970866666,404.05113466700004,404.05113466700004,409.17773966699997,404.05113466700004,409.17773966699997,409.277924,409.9095050000001,404.05113466700004,1,1,1.4883784160001596,reldom2_s019,001,2025-02-20_12h30.39.856,Vis-B-Scan_AC,2022.2.5,None,
32,First_Order,6.0,viswhere,stimulus/viswhere_stim/blank_white.png,stimulus/viswhere_stim/blank_white.png,stimulus/viswhere_stim/150-deg_dot-left_salmon.png,stimulus/viswhere_stim/150-deg_dot-right_salmon.png,stimulus/viswhere_stim/blank_white.png,stimulus/viswhere_stim/dot_box.png,stimulus/viswhere_stim/dot_yes.png,stimulus/viswhere_stim/dot_no.png,None,Dot,None,Line,2,0.0,0,5.125,0,5.125,0,5.125,0,0.0,0.625,0,0.0,0,0.0,1,0.5,1,2.125,0,0,0,0,0,0,0,0,0,,,,,0,42,42,42,,,,,,,,,410.1143649170001,410.1143649170001,410.1143649170001,410.1143649170001,410.1143649170001,410.1143649170001,410.1143649170001,410.1143649170001,410.0931053333334,410.1143649170001,410.1143649170001,410.1143649170001,410.0931053333334,410.1143649170001,410.1143649170001,410.1143649170001,412.211692375,416.1724771250001,410.1143649170001,410.1143649170001,415.241872542,410.5951266249999,411.614083875,412.211692375,413.21755429199993,410.1143649170001,410.1143649170001,410.1097720000001,410.1143649170001,410.1143649170001,410.1143649170001,410.1097720000001,410.1143649170001,410.1143649170001,415.241872542,410.1143649170001,415.241872542,415.3588999169999,415.98424862499996,410.1143649170001,2,1,0.6432306660001359,reldom2_s019,001,2025-02-20_12h30.39.856,Vis-B-Scan_AC,2022.2.5,None,
33,First_Order,6.0,viswhere,stimulus/viswhere_stim/blank_white.png,stimulus/viswhere_stim/blank_white.png,stimulus/viswhere_stim/150-deg_dot-left_cyan.png,stimulus/viswhere_stim/150-deg_dot-right_seagreen.png,stimulus/viswhere_stim/blank_white.png,stimulus/viswhere_stim/line_box.png,stimulus/viswhere_stim/line_yes.png,stimulus/viswhere_stim/line_no.png,None,Line,None,Line,1,0.0,0,5.125,0,5.125,0,5.125,0,0.0,0.625,0,0.0,0,0.0,1,0.5,1,2.125,0,0,0,0,0,0,0,0,0,,,,,0,43,43,43,,,,,,,,,416.1724771250001,416.1724771250001,416.1724771250001,416.1724771250001,416.1724771250001,416.1724771250001,416.1724771250001,416.1724771250001,416.1508169173333,416.1724771250001,416.1724771250001,416.1724771250001,416.1508169173333,416.1724771250001,416.1724771250001,416.1724771250001,418.282043167,422.242262667,416.1724771250001,416.1724771250001,421.302160167,416.6568797090001,417.663713209,418.282043167,419.29230366699994,416.1724771250001,416.1724771250001,416.16748358399997,416.1724771250001,416.1724771250001,416.1724771250001,416.16748358399997,416.1724771250001,416.1724771250001,421.302160167,416.1724771250001,421.302160167,421.40027229199995,422.04068600000005,416.1724771250001,1,1,0.6440423740000369,reldom2_s019,001,2025-02-20_12h30.39.856,Vis-B-Scan_AC,2022.2.5,None,
34,First_Order,6.0,viswhere,stimulus/viswhere_stim/blank_white.png,stimulus/viswhere_stim/blank_white.png,stimulus/viswhere_stim/150-deg_dot-right_cyan.png,stimulus/viswhere_stim/120-deg_dot-right_cyan.png,stimulus/viswhere_stim/blank_white.png,stimulus/viswhere_stim/line_box.png,stimulus/viswhere_stim/line_yes.png,stimulus/viswhere_stim/line_no.png,None,Line,None,Dot,2,0.0,0,5.125,0,5.125,0,5.125,0,0.0,0.625,0,0.0,0,0.0,1,0.5,1,2.125,0,0,0,0,0,0,0,0,0,,,,,0,44,44,44,,,,,,,,,422.242262667,422.242262667,422.242262667,422.242262667,422.242262667,422.242262667,422.242262667,422.242262667,422.2210456673334,422.242262667,422.242262667,422.242262667,422.2210456673334,422.242262667,422.242262667,422.242262667,424.35343320900006,428.379836417,422.242262667,422.242262667,427.37556029200005,422.721863792,423.74035237499993,424.35343320900006,425.35943229200006,422.242262667,422.242262667,422.23771233400004,422.242262667,422.242262667,422.242262667,422.23771233400004,422.242262667,422.242262667,427.37556029200005,422.242262667,427.37556029200005,427.47238412499996,428.10193716699996,422.242262667,2,1,0.4539224990001003,reldom2_s019,001,2025-02-20_12h30.39.856,Vis-B-Scan_AC,2022.2.5,None,
0,0.0,None,fixation,stimulus/viswhere_stim/blank_white.png,stimulus/viswhere_stim/blank_white.png,stimulus/viswhat_stim/blank_white.png,stimulus/viswhat_stim/blank_white.png,stimulus/viswhere_stim/blank_white.png,stimulus/viswhere_stim/blank_white.png,stimulus/viswhere_stim/blank_white.png,stimulus/viswhere_stim/blank_white.png,0.0,0.0,0.0,0.0,0,0.0,0,0.0,0,0.0,0,0.0,0,0.0,0.0,0,0.0,0,0.0,0,0.0,0,0.0,0,0,0,0,0,0,0,0,8,,,,,0,45,45,45,,,,,,,,,428.379836417,428.379836417,428.379836417,428.379836417,428.379836417,428.379836417,428.379836417,428.379836417,428.28204270833345,428.379836417,428.379836417,428.379836417,428.28204270833345,428.379836417,428.379836417,428.379836417,428.379836417,428.379836417,428.379836417,428.379836417,428.379836417,428.379836417,428.379836417,428.379836417,428.379836417,428.379836417,428.379836417,428.33204270833346,428.379836417,428.379836417,428.379836417,428.33204270833346,428.379836417,428.379836417,428.379836417,428.379836417,428.379836417,433.57694541699993,433.57694541699993,436.481617875,None,0,,reldom2_s019,001,2025-02-20_12h30.39.856,Vis-B-Scan_AC,2022.2.5,None,
35,Second_Order,6.0,viswhere,stimulus/viswhere_stim/60-deg_dot-right_cyan.png,stimulus/viswhere_stim/60-deg_dot-left_goldenrod.png,stimulus/viswhere_stim/150-deg_dot-left_salmon.png,stimulus/viswhere_stim/150-deg_dot-right_goldenrod.png,stimulus/viswhere_stim/match_blank.png,stimulus/viswhere_stim/match_box.png,stimulus/viswhere_stim/match_yes.png,stimulus/viswhere_stim/match_no.png,1.0,Match,Line,Line,1,5.125,0,5.125,0,5.125,0,5.125,0,0.75,0.75,1,0.5,1,2.125,1,0.5,1,2.125,0,0,0,0,0,0,0,0,0,,,,,0,46,46,46,,,,,,,,,436.481617875,441.6038225,436.96301708400006,437.962016125,438.58398358399995,439.58182920900003,436.481617875,436.481617875,436.49610645833343,436.481617875,436.481617875,436.481617875,436.49610645833343,436.481617875,441.6038225,442.39780866699994,444.4748420420001,448.3720395,442.39780866699994,442.39780866699994,447.528838125,442.84688604200005,443.85488295899995,444.4748420420001,445.49035725,442.39780866699994,442.39780866699994,442.37164558333325,442.39780866699994,442.39780866699994,442.39780866699994,442.37164558333325,442.39780866699994,442.39780866699994,447.528838125,442.39780866699994,447.528838125,447.6169076670001,,442.39780866699994,1,1,0.4922132500000771,reldom2_s019,001,2025-02-20_12h30.39.856,Vis-B-Scan_AC,2022.2.5,None,
36,Second_Order,6.0,viswhere,stimulus/viswhere_stim/120-deg_dot-right_slateblue.png,stimulus/viswhere_stim/120-deg_dot-left_royalblue.png,stimulus/viswhere_stim/150-deg_dot-right_royalblue.png,stimulus/viswhere_stim/150-deg_dot-left_salmon.png,stimulus/viswhere_stim/match_blank.png,stimulus/viswhere_stim/match_box.png,stimulus/viswhere_stim/match_yes.png,stimulus/viswhere_stim/match_no.png,1.0,Match,Line,Line,1,5.125,0,5.125,0,5.125,0,5.125,0,0.625,0.625,1,0.5,1,2.125,1,0.5,1,2.125,0,0,0,0,0,0,0,0,0,,,,,0,47,47,47,,,,,,,,,448.3720395,453.48581520900007,448.8577049590001,449.8558775419999,450.4778785000001,451.47616370900005,448.3720395,448.3720395,448.384981042,448.3720395,448.3720395,448.3720395,448.384981042,448.3720395,453.48581520900007,454.15421304200004,456.23077358399996,460.2754225000001,454.15421304200004,454.15421304200004,459.29353216699997,454.60511562500005,455.6111436670001,456.23077358399996,457.2434955000001,454.15421304200004,454.15421304200004,454.1320588333333,454.15421304200004,454.15421304200004,454.15421304200004,454.1320588333333,454.15421304200004,454.15421304200004,459.29353216699997,454.15421304200004,459.29353216699997,459.35154087499996,459.980545375,454.15421304200004,1,1,0.5692822080000042,reldom2_s019,001,2025-02-20_12h30.39.856,Vis-B-Scan_AC,2022.2.5,None,
0,0.0,None,fixation,stimulus/viswhere_stim/blank_white.png,stimulus/viswhere_stim/blank_white.png,stimulus/viswhat_stim/blank_white.png,stimulus/viswhat_stim/blank_white.png,stimulus/viswhere_stim/blank_white.png,stimulus/viswhere_stim/blank_white.png,stimulus/viswhere_stim/blank_white.png,stimulus/viswhere_stim/blank_white.png,0.0,0.0,0.0,0.0,0,0.0,0,0.0,0,0.0,0,0.0,0,0.0,0.0,0,0.0,0,0.0,0,0.0,0,0.0,0,0,0,0,0,0,0,0,10,,,,,0,48,48,48,,,,,,,,,460.2754225000001,460.2754225000001,460.2754225000001,460.2754225000001,460.2754225000001,460.2754225000001,460.2754225000001,460.2754225000001,460.17547595833327,460.2754225000001,460.2754225000001,460.2754225000001,460.17547595833327,460.2754225000001,460.2754225000001,460.2754225000001,460.2754225000001,460.2754225000001,460.2754225000001,460.2754225000001,460.2754225000001,460.2754225000001,460.2754225000001,460.2754225000001,460.2754225000001,460.2754225000001,460.2754225000001,460.2254759583333,460.2754225000001,460.2754225000001,460.2754225000001,460.2254759583333,460.2754225000001,460.2754225000001,460.2754225000001,460.2754225000001,460.2754225000001,465.5006772500001,465.5006772500001,470.56486091700003,None,0,,reldom2_s019,001,2025-02-20_12h30.39.856,Vis-B-Scan_AC,2022.2.5,None,
37,First_Order,7.0,viswhat,stimulus/viswhat_stim/blank_white.png,stimulus/viswhat_stim/blank_white.png,stimulus/viswhat_stim/water_vehicle-sailboat.png,stimulus/viswhat_stim/land_vehicle-bus.png,stimulus/viswhat_stim/blank_white.png,stimulus/viswhat_stim/location_box.png,stimulus/viswhat_stim/location_yes.png,stimulus/viswhat_stim/location_no.png,None,Location,None,Type,2,0.0,0,5.125,0,5.125,0,5.125,0,0.0,0.625,0,0.0,0,0.0,1,0.5,1,2.125,0,0,0,0,0,0,0,0,0,,,,,0,49,49,49,,,,,,,,,470.56486091700003,470.56486091700003,470.56486091700003,470.56486091700003,470.56486091700003,470.56486091700003,470.56486091700003,470.56486091700003,470.47586195866654,470.56486091700003,470.56486091700003,470.56486091700003,470.47586195866654,470.56486091700003,470.56486091700003,470.56486091700003,472.640663334,,470.56486091700003,470.56486091700003,475.7727023340001,471.045334917,472.11034404199995,472.640663334,473.7092675839999,470.56486091700003,470.56486091700003,470.52586195866655,470.56486091700003,470.56486091700003,470.56486091700003,470.52586195866655,470.56486091700003,470.56486091700003,475.7727023340001,470.56486091700003,475.7727023340001,475.7727023340001,476.435874584,470.56486091700003,2,1,0.6157225829999788,reldom2_s019,001,2025-02-20_12h30.39.856,Vis-B-Scan_AC,2022.2.5,None,
38,First_Order,7.0,viswhat,stimulus/viswhat_stim/blank_white.png,stimulus/viswhat_stim/blank_white.png,stimulus/viswhat_stim/land_vehicle-tank.png,stimulus/viswhat_stim/land_animal-elephant.png,stimulus/viswhat_stim/blank_white.png,stimulus/viswhat_stim/type_box.png,stimulus/viswhat_stim/type_yes.png,stimulus/viswhat_stim/type_no.png,None,Type,None,Location,2,0.0,0,5.125,0,5.125,0,5.125,0,0.0,0.625,0,0.0,0,0.0,1,0.5,1,2.125,0,0,0,0,0,0,0,0,0,,,,,0,50,50,50,,,,,,,,,476.68651875,476.68651875,476.68651875,476.68651875,476.68651875,476.68651875,476.68651875,476.68651875,476.58587458399995,476.68651875,476.68651875,476.68651875,476.58587458399995,476.68651875,476.68651875,476.68651875,478.76473050000004,,476.68651875,476.68651875,481.883365334,477.148217959,478.245118542,478.76473050000004,479.8106176670001,476.68651875,476.68651875,476.63587458399996,476.68651875,476.68651875,476.68651875,476.63587458399996,476.68651875,476.68651875,481.883365334,476.68651875,481.883365334,481.883365334,482.55886862500006,476.68651875,2,1,0.6787842080000246,reldom2_s019,001,2025-02-20_12h30.39.856,Vis-B-Scan_AC,2022.2.5,None,
39,First_Order,7.0,viswhat,stimulus/viswhat_stim/blank_white.png,stimulus/viswhat_stim/blank_white.png,stimulus/viswhat_stim/land_animal-ostrich.png,stimulus/viswhat_stim/water_animal-whale.png,stimulus/viswhat_stim/blank_white.png,stimulus/viswhat_stim/location_box.png,stimulus/viswhat_stim/location_yes.png,stimulus/viswhat_stim/location_no.png,None,Location,None,Type,2,0.0,0,5.125,0,5.125,0,5.125,0,0.0,0.625,0,0.0,0,0.0,1,0.5,1,2.125,0,0,0,0,0,0,0,0,0,,,,,0,51,51,51,,,,,,,,,482.7589868340001,482.7589868340001,482.7589868340001,482.7589868340001,482.7589868340001,482.7589868340001,482.7589868340001,482.7589868340001,482.7255352916667,482.7589868340001,482.7589868340001,482.7589868340001,482.7255352916667,482.7589868340001,482.7589868340001,482.7589868340001,484.8526442499999,488.8391637090001,482.7589868340001,482.7589868340001,487.89927575,483.22731675,484.248060292,484.8526442499999,485.8895185839999,482.7589868340001,482.7589868340001,482.7422019583334,482.7589868340001,482.7589868340001,482.7589868340001,482.7422019583334,482.7589868340001,482.7589868340001,487.89927575,482.7589868340001,487.89927575,487.9651362920001,488.598249959,482.7589868340001,2,1,0.6146478329999354,reldom2_s019,001,2025-02-20_12h30.39.856,Vis-B-Scan_AC,2022.2.5,None,
40,First_Order,7.0,viswhat,stimulus/viswhat_stim/blank_white.png,stimulus/viswhat_stim/blank_white.png,stimulus/viswhat_stim/land_vehicle-truck.png,stimulus/viswhat_stim/land_animal-fox.png,stimulus/viswhat_stim/blank_white.png,stimulus/viswhat_stim/location_box.png,stimulus/viswhat_stim/location_yes.png,stimulus/viswhat_stim/location_no.png,None,Location,None,Location,1,0.0,0,5.125,0,5.125,0,5.125,0,0.0,0.625,0,0.0,0,0.0,1,0.5,1,2.125,0,0,0,0,0,0,0,0,0,,,,,0,52,52,52,,,,,,,,,488.8391637090001,488.8391637090001,488.8391637090001,488.8391637090001,488.8391637090001,488.8391637090001,488.8391637090001,488.8391637090001,488.80750566700004,488.8391637090001,488.8391637090001,488.8391637090001,488.80750566700004,488.8391637090001,488.8391637090001,488.8391637090001,490.9395280000001,494.98648716699995,488.8391637090001,488.8391637090001,493.97831116700013,489.3061231670001,490.3338544170001,490.9395280000001,491.94808650000004,488.8391637090001,488.8391637090001,488.82417233366675,488.8391637090001,488.8391637090001,488.8391637090001,488.82417233366675,488.8391637090001,488.8391637090001,493.97831116700013,488.8391637090001,493.97831116700013,494.0492602500001,494.6897759589999,488.8391637090001,1,1,1.0158544160001384,reldom2_s019,001,2025-02-20_12h30.39.856,Vis-B-Scan_AC,2022.2.5,None,
0,0.0,None,fixation,stimulus/viswhere_stim/blank_white.png,stimulus/viswhere_stim/blank_white.png,stimulus/viswhat_stim/blank_white.png,stimulus/viswhat_stim/blank_white.png,stimulus/viswhere_stim/blank_white.png,stimulus/viswhere_stim/blank_white.png,stimulus/viswhere_stim/blank_white.png,stimulus/viswhere_stim/blank_white.png,0.0,0.0,0.0,0.0,0,0.0,0,0.0,0,0.0,0,0.0,0,0.0,0.0,0,0.0,0,0.0,0,0.0,0,0.0,0,0,0,0,0,0,0,0,8,,,,,0,53,53,53,,,,,,,,,494.98648716699995,494.98648716699995,494.98648716699995,494.98648716699995,494.98648716699995,494.98648716699995,494.98648716699995,494.98648716699995,494.8809048333333,494.98648716699995,494.98648716699995,494.98648716699995,494.8809048333333,494.98648716699995,494.98648716699995,494.98648716699995,494.98648716699995,494.98648716699995,494.98648716699995,494.98648716699995,494.98648716699995,494.98648716699995,494.98648716699995,494.98648716699995,494.98648716699995,494.98648716699995,494.98648716699995,494.9475715,494.98648716699995,494.98648716699995,494.98648716699995,494.9475715,494.98648716699995,494.98648716699995,494.98648716699995,494.98648716699995,494.98648716699995,500.19143499999996,500.19143499999996,503.10875762499995,None,0,,reldom2_s019,001,2025-02-20_12h30.39.856,Vis-B-Scan_AC,2022.2.5,None,
41,Second_Order,7.0,viswhat,stimulus/viswhat_stim/water_animal-whale (1).png,stimulus/viswhat_stim/water_vehicle-canoe(1).png,stimulus/viswhat_stim/land_animal-tiger.png,stimulus/viswhat_stim/land_vehicle-train.png,stimulus/viswhere_stim/match_blank.png,stimulus/viswhere_stim/match_box.png,stimulus/viswhere_stim/match_yes.png,stimulus/viswhere_stim/match_no.png,1.0,Match,Location,Location,1,5.125,0,5.125,0,5.125,0,5.125,0,0.75,0.75,1,0.5,1,2.125,1,0.5,1,2.125,0,0,0,0,0,0,0,0,0,,,,,0,54,54,54,,,,,,,,,503.10875762499995,508.229564,503.58335562499997,504.56987237499993,505.20571566700005,506.20258850000005,503.10875762499995,503.10875762499995,503.11574900033327,503.10875762499995,503.10875762499995,503.10875762499995,503.11574900033327,503.10875762499995,508.229564,509.05409350000014,511.1325642920001,515.033099667,509.05409350000014,509.05409350000014,514.196580709,509.49026812500006,510.53127741699996,511.1325642920001,512.179125334,509.05409350000014,509.05409350000014,509.02915095866666,509.05409350000014,509.05409350000014,509.05409350000014,509.02915095866666,509.05409350000014,509.05409350000014,514.196580709,509.05409350000014,514.196580709,514.2246745,,509.05409350000014,1,1,0.5440302079998673,reldom2_s019,001,2025-02-20_12h30.39.856,Vis-B-Scan_AC,2022.2.5,None,
42,Second_Order,7.0,viswhat,stimulus/viswhat_stim/land_vehicle-buldozer.png,stimulus/viswhat_stim/water_vehicle-jetski.png,stimulus/viswhat_stim/water_animal-whale.png,stimulus/viswhat_stim/land_animal-fox.png,stimulus/viswhere_stim/match_blank.png,stimulus/viswhere_stim/match_box.png,stimulus/viswhere_stim/match_yes.png,stimulus/viswhere_stim/match_no.png,1.0,Match,Type,Type,1,5.125,0,5.125,0,5.125,0,5.125,0,0.625,0.625,1,0.5,1,2.125,1,0.5,1,2.125,0,0,0,0,0,0,0,0,0,,,,,0,55,55,55,,,,,,,,,515.033099667,520.155147834,515.4953351250001,516.492995459,517.1157041250001,518.113459792,515.033099667,515.033099667,515.0329655423335,515.033099667,515.033099667,515.033099667,515.0329655423335,515.033099667,520.155147834,520.8445442090001,522.919068084,526.9561195000001,520.8445442090001,520.8445442090001,525.9955589589999,521.2903845420001,522.317728167,522.919068084,523.949323667,520.8445442090001,520.8445442090001,520.8200750419999,520.8445442090001,520.8445442090001,520.8445442090001,520.8200750419999,520.8445442090001,520.8445442090001,525.9955589589999,520.8445442090001,525.9955589589999,526.036894334,526.6769972090001,520.8445442090001,1,1,0.419362873999944,reldom2_s019,001,2025-02-20_12h30.39.856,Vis-B-Scan_AC,2022.2.5,None,
0,0.0,None,fixation,stimulus/viswhere_stim/blank_white.png,stimulus/viswhere_stim/blank_white.png,stimulus/viswhat_stim/blank_white.png,stimulus/viswhat_stim/blank_white.png,stimulus/viswhere_stim/blank_white.png,stimulus/viswhere_stim/blank_white.png,stimulus/viswhere_stim/blank_white.png,stimulus/viswhere_stim/blank_white.png,0.0,0.0,0.0,0.0,0,0.0,0,0.0,0,0.0,0,0.0,0,0.0,0.0,0,0.0,0,0.0,0,0.0,0,0.0,0,0,0,0,0,0,0,0,9,,,,,0,56,56,56,,,,,,,,,526.9561195000001,526.9561195000001,526.9561195000001,526.9561195000001,526.9561195000001,526.9561195000001,526.9561195000001,526.9561195000001,526.85870775,526.9561195000001,526.9561195000001,526.9561195000001,526.85870775,526.9561195000001,526.9561195000001,526.9561195000001,526.9561195000001,526.9561195000001,526.9561195000001,526.9561195000001,526.9561195000001,526.9561195000001,526.9561195000001,526.9561195000001,526.9561195000001,526.9561195000001,526.9561195000001,526.90870775,526.9561195000001,526.9561195000001,526.9561195000001,526.90870775,526.9561195000001,526.9561195000001,526.9561195000001,526.9561195000001,526.9561195000001,532.136124375,532.136124375,536.1912267089999,None,0,,reldom2_s019,001,2025-02-20_12h30.39.856,Vis-B-Scan_AC,2022.2.5,None,
43,First_Order,8.0,viswhat,stimulus/viswhat_stim/blank_white.png,stimulus/viswhat_stim/blank_white.png,stimulus/viswhat_stim/land_animal-fox.png,stimulus/viswhat_stim/land_vehicle-motorcycle.png,stimulus/viswhat_stim/blank_white.png,stimulus/viswhat_stim/type_box.png,stimulus/viswhat_stim/type_yes.png,stimulus/viswhat_stim/type_no.png,None,Type,None,Location,2,0.0,0,5.125,0,5.125,0,5.125,0,0.0,0.625,0,0.0,0,0.0,1,0.5,1,2.125,0,0,0,0,0,0,0,0,0,,,,,0,57,57,57,,,,,,,,,536.1912267089999,536.1912267089999,536.1912267089999,536.1912267089999,536.1912267089999,536.1912267089999,536.1912267089999,536.1912267089999,536.1484437086666,536.1912267089999,536.1912267089999,536.1912267089999,536.1484437086666,536.1912267089999,536.1912267089999,536.1912267089999,538.2760291669999,542.261302459,536.1912267089999,536.1912267089999,541.3356772500001,536.6741825839999,537.703198792,538.2760291669999,539.310317167,536.1912267089999,536.1912267089999,536.1651103753333,536.1912267089999,536.1912267089999,536.1912267089999,536.1651103753333,536.1912267089999,536.1912267089999,541.3356772500001,536.1912267089999,541.3356772500001,541.409839959,542.0511798750001,536.1912267089999,2,1,0.4781879579998076,reldom2_s019,001,2025-02-20_12h30.39.856,Vis-B-Scan_AC,2022.2.5,None,
44,First_Order,8.0,viswhat,stimulus/viswhat_stim/blank_white.png,stimulus/viswhat_stim/blank_white.png,stimulus/viswhat_stim/land_animal-pig.png,stimulus/viswhat_stim/land_vehicle-firetruck.png,stimulus/viswhat_stim/blank_white.png,stimulus/viswhat_stim/location_box.png,stimulus/viswhat_stim/location_yes.png,stimulus/viswhat_stim/location_no.png,None,Location,None,Location,1,0.0,0,5.125,0,5.125,0,5.125,0,0.0,0.625,0,0.0,0,0.0,1,0.5,1,2.125,0,0,0,0,0,0,0,0,0,,,,,0,58,58,58,,,,,,,,,542.261302459,542.261302459,542.261302459,542.261302459,542.261302459,542.261302459,542.261302459,542.261302459,542.2245408340001,542.261302459,542.261302459,542.261302459,542.2245408340001,542.261302459,542.261302459,542.261302459,544.367549459,548.385556917,542.261302459,542.261302459,547.3938638750001,542.729127542,543.737037375,544.367549459,545.3807939170001,542.261302459,542.261302459,542.2412075006667,542.261302459,542.261302459,542.261302459,542.2412075006667,542.261302459,542.261302459,547.3938638750001,542.261302459,547.3938638750001,547.4840912090001,548.124496459,542.261302459,1,1,0.4441175829999793,reldom2_s019,001,2025-02-20_12h30.39.856,Vis-B-Scan_AC,2022.2.5,None,
45,First_Order,8.0,viswhat,stimulus/viswhat_stim/blank_white.png,stimulus/viswhat_stim/blank_white.png,stimulus/viswhat_stim/land_vehicle-trolley.png,stimulus/viswhat_stim/water_vehicle-sailboat.png,stimulus/viswhat_stim/blank_white.png,stimulus/viswhat_stim/type_box.png,stimulus/viswhat_stim/type_yes.png,stimulus/viswhat_stim/type_no.png,None,Type,None,Type,1,0.0,0,5.125,0,5.125,0,5.125,0,0.0,0.625,0,0.0,0,0.0,1,0.5,1,2.125,0,0,0,0,0,0,0,0,0,,,,,0,59,59,59,,,,,,,,,548.385556917,548.385556917,548.385556917,548.385556917,548.385556917,548.385556917,548.385556917,548.385556917,548.2962224173333,548.385556917,548.385556917,548.385556917,548.2962224173333,548.385556917,548.385556917,548.385556917,550.474606792,,548.385556917,548.385556917,553.54102575,548.8715124590001,549.9418497920001,550.474606792,551.5509657090001,548.385556917,548.385556917,548.3462224173333,548.385556917,548.385556917,548.385556917,548.3462224173333,548.385556917,548.385556917,553.54102575,548.385556917,553.54102575,553.5843393750001,554.27451875,548.385556917,1,1,0.9355416659998355,reldom2_s019,001,2025-02-20_12h30.39.856,Vis-B-Scan_AC,2022.2.5,None,
46,First_Order,8.0,viswhat,stimulus/viswhat_stim/blank_white.png,stimulus/viswhat_stim/blank_white.png,stimulus/viswhat_stim/water_vehicle-canoe(1).png,stimulus/viswhat_stim/land_vehicle-truck.png,stimulus/viswhat_stim/blank_white.png,stimulus/viswhat_stim/type_box.png,stimulus/viswhat_stim/type_yes.png,stimulus/viswhat_stim/type_no.png,None,Type,None,Type,1,0.0,0,5.125,0,5.125,0,5.125,0,0.0,0.625,0,0.0,0,0.0,1,0.5,1,2.125,0,0,0,0,0,0,0,0,0,,,,,0,60,60,60,,,,,,,,,554.4435328750001,554.4435328750001,554.4435328750001,554.4435328750001,554.4435328750001,554.4435328750001,554.4435328750001,554.4435328750001,554.4078520833333,554.4435328750001,554.4435328750001,554.4435328750001,554.4078520833333,554.4435328750001,554.4435328750001,554.4435328750001,556.540312375,560.581984209,554.4435328750001,554.4435328750001,559.585085875,554.92501075,555.9294647090001,556.540312375,557.552503917,554.4435328750001,554.4435328750001,554.42451875,554.4435328750001,554.4435328750001,554.4435328750001,554.42451875,554.4435328750001,554.4435328750001,559.585085875,554.4435328750001,559.585085875,559.667065292,560.2954554590001,554.4435328750001,1,1,0.43104799999991883,reldom2_s019,001,2025-02-20_12h30.39.856,Vis-B-Scan_AC,2022.2.5,None,
0,0.0,None,fixation,stimulus/viswhere_stim/blank_white.png,stimulus/viswhere_stim/blank_white.png,stimulus/viswhat_stim/blank_white.png,stimulus/viswhat_stim/blank_white.png,stimulus/viswhere_stim/blank_white.png,stimulus/viswhere_stim/blank_white.png,stimulus/viswhere_stim/blank_white.png,stimulus/viswhere_stim/blank_white.png,0.0,0.0,0.0,0.0,0,0.0,0,0.0,0,0.0,0,0.0,0,0.0,0.0,0,0.0,0,0.0,0,0.0,0,0.0,0,0,0,0,0,0,0,0,9,,,,,0,61,61,61,,,,,,,,,560.581984209,560.581984209,560.581984209,560.581984209,560.581984209,560.581984209,560.581984209,560.581984209,560.4792228333334,560.581984209,560.581984209,560.581984209,560.4792228333334,560.581984209,560.581984209,560.581984209,560.581984209,560.581984209,560.581984209,560.581984209,560.581984209,560.581984209,560.581984209,560.581984209,560.581984209,560.581984209,560.581984209,560.5292228333334,560.581984209,560.581984209,560.581984209,560.5292228333334,560.581984209,560.581984209,560.581984209,560.581984209,560.581984209,565.7829077920001,565.7829077920001,569.717874834,None,0,,reldom2_s019,001,2025-02-20_12h30.39.856,Vis-B-Scan_AC,2022.2.5,None,
47,Second_Order,8.0,viswhat,stimulus/viswhat_stim/water_animal-seaturtle.png,stimulus/viswhat_stim/water_vehicle-kayak.png,stimulus/viswhat_stim/water_vehicle-motorboatraft.png,stimulus/viswhat_stim/land_vehicle-tank.png,stimulus/viswhere_stim/match_blank.png,stimulus/viswhere_stim/match_box.png,stimulus/viswhere_stim/match_yes.png,stimulus/viswhere_stim/match_no.png,2.0,Match,Location,Type,2,5.125,0,5.125,0,5.125,0,5.125,0,0.75,0.75,1,0.5,1,2.125,1,0.5,1,2.125,0,0,0,0,0,0,0,0,0,,,,,0,62,62,62,,,,,,,,,569.717874834,574.832479792,570.187670709,571.1856949170001,571.8083947499999,572.80661325,569.717874834,569.717874834,569.7193247083334,569.717874834,569.717874834,569.717874834,569.7193247083334,569.717874834,574.832479792,575.6293315,577.708512917,581.621280542,575.6293315,575.6293315,580.774042084,576.087023542,577.0926207090001,577.708512917,578.723174209,575.6293315,575.6293315,575.6157901249999,575.6293315,575.6293315,575.6293315,575.6157901249999,575.6293315,575.6293315,580.774042084,575.6293315,580.774042084,580.8207951250001,581.621280542,575.6293315,2,1,0.6202924990000156,reldom2_s019,001,2025-02-20_12h30.39.856,Vis-B-Scan_AC,2022.2.5,None,
48,Second_Order,8.0,viswhat,stimulus/viswhat_stim/land_vehicle-rv.png,stimulus/viswhat_stim/water_vehicle-cargoboat.png,stimulus/viswhat_stim/water_animal-squid.png,stimulus/viswhat_stim/land_animal-dog.png,stimulus/viswhere_stim/match_blank.png,stimulus/viswhere_stim/match_box.png,stimulus/viswhere_stim/match_yes.png,stimulus/viswhere_stim/match_no.png,1.0,Match,Type,Type,1,5.125,0,5.125,0,5.125,0,5.125,0,0.625,0.625,1,0.5,1,2.125,1,0.5,1,2.125,0,0,0,0,0,0,0,0,0,,,,,0,63,63,63,,,,,,,,,581.621280542,586.7426265419999,582.0986430840001,583.09690525,583.718907209,584.717356209,581.621280542,581.621280542,581.625961209,581.621280542,581.621280542,581.621280542,581.625961209,581.621280542,586.7426265419999,587.4427929999999,589.525144,,587.4427929999999,587.4427929999999,592.577747625,587.878963959,588.904787167,589.525144,590.558435167,587.4427929999999,587.4427929999999,587.4065801669999,587.4427929999999,587.4427929999999,587.4427929999999,587.4065801669999,587.4427929999999,587.4427929999999,592.577747625,587.4427929999999,592.577747625,592.6288923750001,593.2633840420001,587.4427929999999,1,1,0.3559798320000027,reldom2_s019,001,2025-02-20_12h30.39.856,Vis-B-Scan_AC,2022.2.5,None,
0,0.0,None,fixation,stimulus/viswhere_stim/blank_white.png,stimulus/viswhere_stim/blank_white.png,stimulus/viswhat_stim/blank_white.png,stimulus/viswhat_stim/blank_white.png,stimulus/viswhere_stim/blank_white.png,stimulus/viswhere_stim/blank_white.png,stimulus/viswhere_stim/blank_white.png,stimulus/viswhere_stim/blank_white.png,0.0,0.0,0.0,0.0,0,0.0,0,0.0,0,0.0,0,0.0,0,0.0,0.0,0,0.0,0,0.0,0,0.0,0,0.0,0,0,0,0,0,0,0,0,16,,,,,0,64,64,64,,,,,,,,,593.545850209,593.545850209,593.545850209,593.545850209,593.545850209,593.545850209,593.545850209,593.545850209,593.4556368756668,593.545850209,593.545850209,593.545850209,593.4556368756668,593.545850209,593.545850209,593.545850209,593.545850209,593.545850209,593.545850209,593.545850209,593.545850209,593.545850209,593.545850209,593.545850209,593.545850209,593.545850209,593.545850209,593.5056368756667,593.545850209,593.545850209,593.545850209,593.5056368756667,593.545850209,593.545850209,593.545850209,593.545850209,593.545850209,598.777141542,598.777141542,609.7070482500001,None,0,,reldom2_s019,001,2025-02-20_12h30.39.856,Vis-B-Scan_AC,2022.2.5,None,
