Trial,Order,Block,Type,Stimuli_File1,Stimuli_File2,Stimuli_File3,Stimuli_File4,Cue_File1,Cue_File2,Response_File_Yes,Response_File_No,Match,Cue_Dimension,Pair1_Dimension,Pair2_Dimension,Key,Cue1_Duration,Cue1_Onset,Cue2_Duration,Cue2_Onset,ResponseYes_Duration,ResponseYes_Onset,ResponseNo_Duration,ResponseNo_Onset,ITI_Within,ITI_Between,Image1_Duration,Image1_Onset,Image2_Duration,Image2_Onset,Image3_Duration,Image3_Onset,Image4_Duration,Image4_Onset,Sound1_Duration,Sound1_Onset,Sound2_Duration,Sound2_Onset,Sound3_Duration,Sound3_Onset,Sound4_Duration,Sound4_Onset,Fixation_Duration,trials_2.thisRepN,trials_2.thisTrialN,trials_2.thisN,trials_2.thisIndex,trials.thisRepN,trials.thisTrialN,trials.thisN,trials.thisIndex,text_start.started,key_resp_start.started,key_resp_start.keys,key_resp_start.rt,text2.started,key_resp_2.started,key_resp_2.keys,key_resp_2.rt,cue_file1.started,cue_file1.stopped,image_1.started,image_1.stopped,image_2.started,image_2.stopped,sound_icon1.started,sound_icon1.stopped,sound_1.started,sound_1.stopped,sound_icon2.started,sound_icon2.stopped,sound_2.started,sound_2.stopped,image_blank_1.started,image_blank_1.stopped,key_press.started,key_press.stopped,fixation_text.started,cue_file2.started,cue_file2.stopped,image_3.started,image_3.stopped,image_4.started,image_4.stopped,sound_icon3.started,sound_icon3.stopped,sound_3.started,sound_3.stopped,sound_icon4.started,sound_icon4.stopped,sound_4.started,sound_4.stopped,response_yes.started,response_yes.stopped,response_no.started,response_no.stopped,iti_blank.started,iti_blank.stopped,fixation_text.stopped,key_press.keys,key_press.corr,key_press.rt,participant,session,date,expName,psychopyVersion,frameRate,
,,,,,,,,,,,,,,,,,,,,,,,,,,,,,,,,,,,,,,,,,,,,,,,,,,,,6.98522629099898,6.98522629099898,2,4.168954834000033,,,,,,,,,,,,,,,,,,,,,,,,,,,,,,,,,,,,,,,,,,,,,,,,reldom2_s037,001,2025-03-14_14h08.33.981,Aud-B-Scan_AC,2022.2.5,None,
,,,,,,,,,,,,,,,,,,,,,,,,,,,,,,,,,,,,,,,,,,,,0,0,0,0,,,,,,,,,11.1986035000009,11.1986035000009,5,15.892734708999342,,,,,,,,,,,,,,,,,,,,,,,,,,,,,,,,,,,,,,,,,,,,reldom2_s037,001,2025-03-14_14h08.33.981,Aud-B-Scan_AC,2022.2.5,None,
,,,,,,,,,,,,,,,,,,,,,,,,,,,,,,,,,,,,,,,,,,,,1,0,1,0,,,,,,,,,27.105470915994374,27.105470915994374,5,1.9860329589937464,,,,,,,,,,,,,,,,,,,,,,,,,,,,,,,,,,,,,,,,,,,,reldom2_s037,001,2025-03-14_14h08.33.981,Aud-B-Scan_AC,2022.2.5,None,
,,,,,,,,,,,,,,,,,,,,,,,,,,,,,,,,,,,,,,,,,,,,2,0,2,0,,,,,,,,,29.09890004099725,29.09890004099725,5,1.9922737919987412,,,,,,,,,,,,,,,,,,,,,,,,,,,,,,,,,,,,,,,,,,,,reldom2_s037,001,2025-03-14_14h08.33.981,Aud-B-Scan_AC,2022.2.5,None,
,,,,,,,,,,,,,,,,,,,,,,,,,,,,,,,,,,,,,,,,,,,,3,0,3,0,,,,,,,,,31.106735832996492,31.106735832996492,5,1.9841176249974524,,,,,,,,,,,,,,,,,,,,,,,,,,,,,,,,,,,,,,,,,,,,reldom2_s037,001,2025-03-14_14h08.33.981,Aud-B-Scan_AC,2022.2.5,None,
0,0.0,None,fixation,stimulus/audwhat_stim/blank_white.png,stimulus/audwhat_stim/blank_white.png,stimulus/audwhere_stim/blank_white.png,stimulus/audwhere_stim/blank_white.png,stimulus/audwhat_stim/blank_white.png,stimulus/audwhat_stim/blank_white.png,stimulus/audwhat_stim/blank_white.png,stimulus/audwhat_stim/blank_white.png,0.0,0.0,0.0,0.0,0,0.0,0,0.0,0,0.0,0,0.0,0,0.0,0.0,0,0,0,0,0,0,0,0,0,0.0,0,0.0,0,0.0,0,0.0,16,,,,,0,0,0,0,,,,,,,,,33.30995108299976,33.30995108299976,33.30995108299976,33.30995108299976,33.30995108299976,33.30995108299976,33.30995108299976,33.30995108299976,33.21922416666154,33.30995108299976,33.30995108299976,33.30995108299976,33.21922416666154,33.30995108299976,33.30995108299976,33.30995108299976,33.30995108299976,33.30995108299976,33.30995108299976,33.30995108299976,33.30995108299976,33.30995108299976,33.30995108299976,33.30995108299976,33.30995108299976,33.30995108299976,33.30995108299976,33.26922416666154,33.30995108299976,33.30995108299976,33.30995108299976,33.26922416666154,33.30995108299976,33.30995108299976,33.30995108299976,33.30995108299976,33.30995108299976,38.52806949999649,38.52806949999649,49.53026062499703,None,0,,reldom2_s037,001,2025-03-14_14h08.33.981,Aud-B-Scan_AC,2022.2.5,None,
1,First_Order,1.0,audwhat,stimulus/audwhat_stim/dummy.wav,stimulus/audwhat_stim/dummy.wav,stimulus/audwhat_stim/string viola_low-pitch_F_loud.wav,stimulus/audwhat_stim/string cello_high-pitch_Dtri_loud.wav,stimulus/audwhat_stim/blank_white.png,stimulus/audwhat_stim/pitch_box.png,stimulus/audwhat_stim/pitch_yes.png,stimulus/audwhat_stim/pitch_no.png,None,Pitch,None,Category,2,0.0,0,5.125,0,5.125,0,5.125,0,0.0,0.625,0,0,0,0,0,0,0,0,0,0.0,0,0.0,1,0.5,1,2.125,0,,,,,0,1,1,1,,,,,,,,,49.53026062499703,49.53026062499703,49.53026062499703,49.53026062499703,49.53026062499703,49.53026062499703,49.53026062499703,49.53026062499703,49.461511957996116,49.53026062499703,49.53026062499703,49.53026062499703,49.461511957996116,49.53026062499703,49.53026062499703,49.53026062499703,51.63556595800037,,49.53026062499703,49.53026062499703,54.680412707995856,49.53026062499703,49.53026062499703,49.53026062499703,49.53026062499703,50.02272274999996,51.054109665994474,49.9945047916665,,51.63556595800037,52.665968790999614,51.60735595766552,,49.53026062499703,54.680412707995856,49.53026062499703,54.680412707995856,54.75900508299674,55.4268266250001,49.53026062499703,2,1,0.9833974590001162,reldom2_s037,001,2025-03-14_14h08.33.981,Aud-B-Scan_AC,2022.2.5,None,
2,First_Order,1.0,audwhat,stimulus/audwhat_stim/dummy.wav,stimulus/audwhat_stim/dummy.wav,stimulus/audwhat_stim/percussion xylophone_high-pitch_Ftri_loud.wav,stimulus/audwhat_stim/string viola_high-pitch_Ftri_loud.wav,stimulus/audwhat_stim/blank_white.png,stimulus/audwhat_stim/pitch_box.png,stimulus/audwhat_stim/pitch_yes.png,stimulus/audwhat_stim/pitch_no.png,None,Pitch,None,Pitch,1,0.0,0,5.125,0,5.125,0,5.125,0,0.0,0.625,0,0,0,0,0,0,0,0,0,0.0,0,0.0,1,0.5,1,2.125,0,,,,,0,2,2,2,,,,,,,,,55.63475295799435,55.63475295799435,55.63475295799435,55.63475295799435,55.63475295799435,55.63475295799435,55.63475295799435,55.63475295799435,55.560159958333436,55.63475295799435,55.63475295799435,55.63475295799435,55.560159958333436,55.63475295799435,55.63475295799435,55.63475295799435,57.736178749997634,61.75398254099855,55.63475295799435,55.63475295799435,60.794977207995544,55.63475295799435,55.63475295799435,55.63475295799435,55.63475295799435,56.120394416000636,57.15272166599607,56.09211520766645,57.15272166599607,57.736178749997634,58.770038290997036,57.70776554166174,,55.63475295799435,60.794977207995544,55.63475295799435,60.794977207995544,60.8343942079955,61.506957624995266,55.63475295799435,1,1,1.0799994179978967,reldom2_s037,001,2025-03-14_14h08.33.981,Aud-B-Scan_AC,2022.2.5,None,
3,First_Order,1.0,audwhat,stimulus/audwhat_stim/dummy.wav,stimulus/audwhat_stim/dummy.wav,stimulus/audwhat_stim/string viola_low-pitch_Dtri_loud.wav,stimulus/audwhat_stim/percussion mallet_low-pitch_Dtri_loud.wav,stimulus/audwhat_stim/blank_white.png,stimulus/audwhat_stim/category_box.png,stimulus/audwhat_stim/category_yes.png,stimulus/audwhat_stim/category_no.png,None,Category,None,Pitch,2,0.0,0,5.125,0,5.125,0,5.125,0,0.0,0.625,0,0,0,0,0,0,0,0,0,0.0,0,0.0,1,0.5,1,2.125,0,,,,,0,3,3,3,,,,,,,,,61.75398254099855,61.75398254099855,61.75398254099855,61.75398254099855,61.75398254099855,61.75398254099855,61.75398254099855,61.75398254099855,61.680109583330825,61.75398254099855,61.75398254099855,61.75398254099855,61.680109583330825,61.75398254099855,61.75398254099855,61.75398254099855,63.84010779099481,,61.75398254099855,61.75398254099855,66.92764683299902,61.75398254099855,61.75398254099855,61.75398254099855,61.75398254099855,62.20834987499984,63.25174787499418,62.17953408266136,,63.84010779099481,64.885254832996,63.81174683266387,64.83991133299423,61.75398254099855,66.92764683299902,61.75398254099855,66.92764683299902,66.96774929099774,67.64719158299704,61.75398254099855,1,0,2.5910155000019586,reldom2_s037,001,2025-03-14_14h08.33.981,Aud-B-Scan_AC,2022.2.5,None,
4,First_Order,1.0,audwhat,stimulus/audwhat_stim/dummy.wav,stimulus/audwhat_stim/dummy.wav,stimulus/audwhat_stim/percussion mallet_low-pitch_D_loud.wav,stimulus/audwhat_stim/percussion xylophone_high-pitch_Dtri_loud.wav,stimulus/audwhat_stim/blank_white.png,stimulus/audwhat_stim/pitch_box.png,stimulus/audwhat_stim/pitch_yes.png,stimulus/audwhat_stim/pitch_no.png,None,Pitch,None,Category,2,0.0,0,5.125,0,5.125,0,5.125,0,0.0,0.625,0,0,0,0,0,0,0,0,0,0.0,0,0.0,1,0.5,1,2.125,0,,,,,0,4,4,4,,,,,,,,,67.85595049999392,67.85595049999392,67.85595049999392,67.85595049999392,67.85595049999392,67.85595049999392,67.85595049999392,67.85595049999392,67.78052491633036,67.85595049999392,67.85595049999392,67.85595049999392,67.78052491633036,67.85595049999392,67.85595049999392,67.85595049999392,69.94257187499898,,67.85595049999392,67.85595049999392,73.02701204099867,67.85595049999392,67.85595049999392,67.85595049999392,67.85595049999392,68.30989987499925,69.35470749999513,68.28081483266239,69.30943795799976,69.94257187499898,70.98637012499967,69.91356629166354,70.98637012499967,67.85595049999392,73.02701204099867,67.85595049999392,73.02701204099867,73.06726695799443,73.7489509579973,67.85595049999392,2,1,3.157118918003107,reldom2_s037,001,2025-03-14_14h08.33.981,Aud-B-Scan_AC,2022.2.5,None,
0,0.0,None,fixation,stimulus/audwhat_stim/blank_white.png,stimulus/audwhat_stim/blank_white.png,stimulus/audwhere_stim/blank_white.png,stimulus/audwhere_stim/blank_white.png,stimulus/audwhat_stim/blank_white.png,stimulus/audwhat_stim/blank_white.png,stimulus/audwhat_stim/blank_white.png,stimulus/audwhat_stim/blank_white.png,0.0,0.0,0.0,0.0,0,0.0,0,0.0,0,0.0,0,0.0,0,0.0,0.0,0,0,0,0,0,0,0,0,0,0.0,0,0.0,0,0.0,0,0.0,8,,,,,0,5,5,5,,,,,,,,,73.97715295799571,73.97715295799571,73.97715295799571,73.97715295799571,73.97715295799571,73.97715295799571,73.97715295799571,73.97715295799571,73.88228429133062,73.97715295799571,73.97715295799571,73.97715295799571,73.88228429133062,73.97715295799571,73.97715295799571,73.97715295799571,73.97715295799571,73.97715295799571,73.97715295799571,73.97715295799571,73.97715295799571,73.97715295799571,73.97715295799571,73.97715295799571,73.97715295799571,73.97715295799571,73.97715295799571,73.93228429133063,73.97715295799571,73.97715295799571,73.97715295799571,73.93228429133063,73.97715295799571,73.97715295799571,73.97715295799571,73.97715295799571,73.97715295799571,79.18834462499944,79.18834462499944,82.14309195799433,None,0,,reldom2_s037,001,2025-03-14_14h08.33.981,Aud-B-Scan_AC,2022.2.5,None,
5,Second_Order,1.0,audwhat,stimulus/audwhat_stim/percussion mallet_high-pitch_Dtri_loud.wav,stimulus/audwhat_stim/string cello_high-pitch_Dtri_loud.wav,stimulus/audwhat_stim/string viola_low-pitch_F_loud.wav,stimulus/audwhat_stim/percussion mallet_low-pitch_F_loud.wav,stimulus/audwhat_stim/match_blank.png,stimulus/audwhat_stim/match_box.png,stimulus/audwhat_stim/match_yes.png,stimulus/audwhat_stim/match_no.png,1.0,Match,Pitch,Pitch,1,5.125,0,5.125,0,5.125,0,5.125,0,0.75,0.75,0,0,0,0,0,0,0,0,1,0.5,1,2.125,1,0.5,1,2.125,0,,,,,0,6,6,6,,,,,,,,,82.14309195799433,87.2655119159972,82.14309195799433,82.14309195799433,82.14309195799433,82.14309195799433,82.60222362499917,83.58883899999637,82.61607341666628,,84.22474270800012,85.22285074999672,84.23715137466594,,87.2655119159972,88.11478891599836,90.18442579099792,,88.11478891599836,88.11478891599836,93.30450966599892,88.11478891599836,88.11478891599836,88.11478891599836,88.11478891599836,88.56399362500088,89.59992416599562,88.53542266666433,,90.18442579099792,91.22695520799607,90.15588974966182,,88.11478891599836,93.30450966599892,88.11478891599836,93.30450966599892,93.30450966599892,,88.11478891599836,1,1,0.9755053749977378,reldom2_s037,001,2025-03-14_14h08.33.981,Aud-B-Scan_AC,2022.2.5,None,
6,Second_Order,1.0,audwhat,stimulus/audwhat_stim/percussion mallet_low-pitch_F_loud.wav,stimulus/audwhat_stim/percussion mallet_high-pitch_Dtri_loud.wav,stimulus/audwhat_stim/string viola_low-pitch_Ftri_loud.wav,stimulus/audwhat_stim/percussion mallet_low-pitch_Ftri_loud.wav,stimulus/audwhat_stim/match_blank.png,stimulus/audwhat_stim/match_box.png,stimulus/audwhat_stim/match_yes.png,stimulus/audwhat_stim/match_no.png,2.0,Match,Category,Pitch,2,5.125,0,5.125,0,5.125,0,5.125,0,0.625,0.625,0,0,0,0,0,0,0,0,1,0.5,1,2.125,1,0.5,1,2.125,0,,,,,0,7,7,7,,,,,,,,,94.09540225000092,99.21022362499934,94.09540225000092,94.09540225000092,94.09540225000092,94.09540225000092,94.54625912499614,95.5333832499964,94.56050395766603,,96.18158420799591,97.17080483299651,96.18572574966335,,99.21022362499934,99.94191379100084,102.00445387500076,,99.94191379100084,99.94191379100084,105.11386683299497,99.94191379100084,99.94191379100084,99.94191379100084,99.94191379100084,100.38869054099632,101.42092379099631,100.36051283266376,,102.00445387500076,103.04064358300093,101.975510957662,,99.94191379100084,105.11386683299497,99.94191379100084,105.11386683299497,105.11386683299497,105.78629670800001,99.94191379100084,2,1,0.8534658339995076,reldom2_s037,001,2025-03-14_14h08.33.981,Aud-B-Scan_AC,2022.2.5,None,
0,0.0,None,fixation,stimulus/audwhat_stim/blank_white.png,stimulus/audwhat_stim/blank_white.png,stimulus/audwhere_stim/blank_white.png,stimulus/audwhere_stim/blank_white.png,stimulus/audwhat_stim/blank_white.png,stimulus/audwhat_stim/blank_white.png,stimulus/audwhat_stim/blank_white.png,stimulus/audwhat_stim/blank_white.png,0.0,0.0,0.0,0.0,0,0.0,0,0.0,0,0.0,0,0.0,0,0.0,0.0,0,0,0,0,0,0,0,0,0,0.0,0,0.0,0,0.0,0,0.0,10,,,,,0,8,8,8,,,,,,,,,106.01278008299414,106.01278008299414,106.01278008299414,106.01278008299414,106.01278008299414,106.01278008299414,106.01278008299414,106.01278008299414,105.91963004133333,106.01278008299414,106.01278008299414,106.01278008299414,105.91963004133333,106.01278008299414,106.01278008299414,106.01278008299414,106.01278008299414,106.01278008299414,106.01278008299414,106.01278008299414,106.01278008299414,106.01278008299414,106.01278008299414,106.01278008299414,106.01278008299414,106.01278008299414,106.01278008299414,105.96963004133335,106.01278008299414,106.01278008299414,106.01278008299414,105.96963004133335,106.01278008299414,106.01278008299414,106.01278008299414,106.01278008299414,106.01278008299414,111.24175983299938,111.24175983299938,116.26302558300085,None,0,,reldom2_s037,001,2025-03-14_14h08.33.981,Aud-B-Scan_AC,2022.2.5,None,
7,First_Order,2.0,audwhat,stimulus/audwhat_stim/dummy.wav,stimulus/audwhat_stim/dummy.wav,stimulus/audwhat_stim/percussion xylophone_high-pitch_F_loud.wav,stimulus/audwhat_stim/percussion mallet_low-pitch_D_loud.wav,stimulus/audwhat_stim/blank_white.png,stimulus/audwhat_stim/category_box.png,stimulus/audwhat_stim/category_yes.png,stimulus/audwhat_stim/category_no.png,None,Category,None,Category,1,0.0,0,5.125,0,5.125,0,5.125,0,0.0,0.625,0,0,0,0,0,0,0,0,0,0.0,0,0.0,1,0.5,1,2.125,0,,,,,0,9,9,9,,,,,,,,,116.26302558300085,116.26302558300085,116.26302558300085,116.26302558300085,116.26302558300085,116.26302558300085,116.26302558300085,116.26302558300085,116.19384162466547,116.26302558300085,116.26302558300085,116.26302558300085,116.19384162466547,116.26302558300085,116.26302558300085,116.26302558300085,118.36229212499893,,116.26302558300085,116.26302558300085,121.42580020799505,116.26302558300085,116.26302558300085,116.26302558300085,116.26302558300085,116.71977391599648,117.77031658299529,116.69059504166604,117.72465833299793,118.36229212499893,119.41646858299646,118.33296499966333,,116.26302558300085,121.42580020799505,116.26302558300085,121.42580020799505,121.46632449999743,122.14843879099499,116.26302558300085,1,1,2.2435386670040316,reldom2_s037,001,2025-03-14_14h08.33.981,Aud-B-Scan_AC,2022.2.5,None,
8,First_Order,2.0,audwhat,stimulus/audwhat_stim/dummy.wav,stimulus/audwhat_stim/dummy.wav,stimulus/audwhat_stim/percussion mallet_low-pitch_D_loud.wav,stimulus/audwhat_stim/string viola_low-pitch_D_loud.wav,stimulus/audwhat_stim/blank_white.png,stimulus/audwhat_stim/pitch_box.png,stimulus/audwhat_stim/pitch_yes.png,stimulus/audwhat_stim/pitch_no.png,None,Pitch,None,Pitch,1,0.0,0,5.125,0,5.125,0,5.125,0,0.0,0.625,0,0,0,0,0,0,0,0,0,0.0,0,0.0,1,0.5,1,2.125,0,,,,,0,10,10,10,,,,,,,,,122.35815479099983,122.35815479099983,122.35815479099983,122.35815479099983,122.35815479099983,122.35815479099983,122.35815479099983,122.35815479099983,122.28177212432831,122.35815479099983,122.35815479099983,122.35815479099983,122.28177212432831,122.35815479099983,122.35815479099983,122.35815479099983,124.46042887499789,,122.35815479099983,122.35815479099983,127.52361758299958,122.35815479099983,122.35815479099983,122.35815479099983,122.35815479099983,122.81557558299392,123.86738816599973,122.78673766666567,,124.46042887499789,125.51578491599503,124.43167179166291,,122.35815479099983,127.52361758299958,122.35815479099983,127.52361758299958,127.56409645799431,128.24546199999895,122.35815479099983,1,1,0.9989520419985638,reldom2_s037,001,2025-03-14_14h08.33.981,Aud-B-Scan_AC,2022.2.5,None,
9,First_Order,2.0,audwhat,stimulus/audwhat_stim/dummy.wav,stimulus/audwhat_stim/dummy.wav,stimulus/audwhat_stim/percussion mallet_low-pitch_D_loud.wav,stimulus/audwhat_stim/percussion mallet_high-pitch_Ftri_loud.wav,stimulus/audwhat_stim/blank_white.png,stimulus/audwhat_stim/category_box.png,stimulus/audwhat_stim/category_yes.png,stimulus/audwhat_stim/category_no.png,None,Category,None,Category,1,0.0,0,5.125,0,5.125,0,5.125,0,0.0,0.625,0,0,0,0,0,0,0,0,0,0.0,0,0.0,1,0.5,1,2.125,0,,,,,0,11,11,11,,,,,,,,,128.45549291600037,128.45549291600037,128.45549291600037,128.45549291600037,128.45549291600037,128.45549291600037,128.45549291600037,128.45549291600037,128.3787953333323,128.45549291600037,128.45549291600037,128.45549291600037,128.3787953333323,128.45549291600037,128.45549291600037,128.45549291600037,130.56567216599797,134.58409458299866,128.45549291600037,128.45549291600037,133.64695887499693,128.45549291600037,128.45549291600037,128.45549291600037,128.45549291600037,128.91622283299512,129.9708614159972,128.88652612466493,,130.56567216599797,131.62788958299643,130.53591420766705,,128.45549291600037,133.64695887499693,128.45549291600037,133.64695887499693,133.64695887499693,134.3326428750006,128.45549291600037,1,1,0.907494917002623,reldom2_s037,001,2025-03-14_14h08.33.981,Aud-B-Scan_AC,2022.2.5,None,
10,First_Order,2.0,audwhat,stimulus/audwhat_stim/dummy.wav,stimulus/audwhat_stim/dummy.wav,stimulus/audwhat_stim/string cello_high-pitch_F_loud.wav,stimulus/audwhat_stim/percussion mallet_high-pitch_F_loud.wav,stimulus/audwhat_stim/blank_white.png,stimulus/audwhat_stim/category_box.png,stimulus/audwhat_stim/category_yes.png,stimulus/audwhat_stim/category_no.png,None,Category,None,Pitch,2,0.0,0,5.125,0,5.125,0,5.125,0,0.0,0.625,0,0,0,0,0,0,0,0,0,0.0,0,0.0,1,0.5,1,2.125,0,,,,,0,12,12,12,,,,,,,,,134.58409458299866,134.58409458299866,134.58409458299866,134.58409458299866,134.58409458299866,134.58409458299866,134.58409458299866,134.58409458299866,134.50547712433232,134.58409458299866,134.58409458299866,134.58409458299866,134.50547712433232,134.58409458299866,134.58409458299866,134.58409458299866,136.69850099999894,,134.58409458299866,134.58409458299866,139.7407911659975,134.58409458299866,134.58409458299866,134.58409458299866,134.58409458299866,135.04199149999477,136.10148204099823,135.01268249966623,,136.69850099999894,137.76263412499975,136.66884029166638,,134.58409458299866,139.7407911659975,134.58409458299866,139.7407911659975,139.78158041599818,140.42956270799914,134.58409458299866,2,1,0.7836674179998226,reldom2_s037,001,2025-03-14_14h08.33.981,Aud-B-Scan_AC,2022.2.5,None,
0,0.0,None,fixation,stimulus/audwhat_stim/blank_white.png,stimulus/audwhat_stim/blank_white.png,stimulus/audwhere_stim/blank_white.png,stimulus/audwhere_stim/blank_white.png,stimulus/audwhat_stim/blank_white.png,stimulus/audwhat_stim/blank_white.png,stimulus/audwhat_stim/blank_white.png,stimulus/audwhat_stim/blank_white.png,0.0,0.0,0.0,0.0,0,0.0,0,0.0,0,0.0,0,0.0,0,0.0,0.0,0,0,0,0,0,0,0,0,0,0.0,0,0.0,0,0.0,0,0.0,8,,,,,0,13,13,13,,,,,,,,,140.700826332999,140.700826332999,140.700826332999,140.700826332999,140.700826332999,140.700826332999,140.700826332999,140.700826332999,140.60333729133177,140.700826332999,140.700826332999,140.700826332999,140.60333729133177,140.700826332999,140.700826332999,140.700826332999,140.700826332999,140.700826332999,140.700826332999,140.700826332999,140.700826332999,140.700826332999,140.700826332999,140.700826332999,140.700826332999,140.700826332999,140.700826332999,140.65333729133175,140.700826332999,140.700826332999,140.700826332999,140.65333729133175,140.700826332999,140.700826332999,140.700826332999,140.700826332999,140.700826332999,145.92008254100074,145.92008254100074,148.85857525000029,None,0,,reldom2_s037,001,2025-03-14_14h08.33.981,Aud-B-Scan_AC,2022.2.5,None,
11,Second_Order,2.0,audwhat,stimulus/audwhat_stim/string viola_high-pitch_Dtri_loud.wav,stimulus/audwhat_stim/string cello_low-pitch_D_loud.wav,stimulus/audwhat_stim/percussion mallet_high-pitch_Dtri_loud.wav,stimulus/audwhat_stim/percussion mallet_low-pitch_Ftri_loud.wav,stimulus/audwhat_stim/match_blank.png,stimulus/audwhat_stim/match_box.png,stimulus/audwhat_stim/match_yes.png,stimulus/audwhat_stim/match_no.png,1.0,Match,Category,Category,1,5.125,0,5.125,0,5.125,0,5.125,0,0.75,0.75,0,0,0,0,0,0,0,0,1,0.5,1,2.125,1,0.5,1,2.125,0,,,,,0,14,14,14,,,,,,,,,148.85857525000029,153.98162316600065,148.85857525000029,148.85857525000029,148.85857525000029,148.85857525000029,149.30850641599682,150.30643491599767,149.32134162466198,,150.94158899999456,151.93104299999686,150.94545083266374,,153.98162316600065,154.8345643329958,156.8780123329998,160.82302608299506,154.8345643329958,154.8345643329958,160.02279029099736,154.8345643329958,154.8345643329958,154.8345643329958,154.8345643329958,155.2879763749952,156.33229791600024,155.25985504166263,,156.8780123329998,157.9303496249995,156.84876258266402,,154.8345643329958,160.02279029099736,154.8345643329958,160.02279029099736,160.02279029099736,,154.8345643329958,1,1,0.6932862930043484,reldom2_s037,001,2025-03-14_14h08.33.981,Aud-B-Scan_AC,2022.2.5,None,
12,Second_Order,2.0,audwhat,stimulus/audwhat_stim/string viola_low-pitch_F_loud.wav,stimulus/audwhat_stim/string viola_high-pitch_Ftri_loud.wav,stimulus/audwhat_stim/percussion mallet_low-pitch_Ftri_loud.wav,stimulus/audwhat_stim/percussion xylophone_high-pitch_Dtri_loud.wav,stimulus/audwhat_stim/match_blank.png,stimulus/audwhat_stim/match_box.png,stimulus/audwhat_stim/match_yes.png,stimulus/audwhat_stim/match_no.png,1.0,Match,Category,Category,1,5.125,0,5.125,0,5.125,0,5.125,0,0.625,0.625,0,0,0,0,0,0,0,0,1,0.5,1,2.125,1,0.5,1,2.125,0,,,,,0,15,15,15,,,,,,,,,160.82302608299506,165.94748558299761,160.82302608299506,160.82302608299506,160.82302608299506,160.82302608299506,161.28189537499566,162.2708366250008,161.28369045766547,,162.9070349159956,163.9048575409979,162.91879604166414,,165.94748558299761,166.67522699999972,168.74981108299835,172.77640754099411,166.67522699999972,166.67522699999972,171.8309109999973,166.67522699999972,166.67522699999972,166.67522699999972,166.67522699999972,167.1255506249945,168.16415516599955,167.0955597496616,,168.74981108299835,169.7949270829995,168.72083362466608,169.74973691599735,166.67522699999972,171.8309109999973,166.67522699999972,171.8309109999973,171.87098941599834,172.54836308299855,166.67522699999972,1,1,1.2650527090008836,reldom2_s037,001,2025-03-14_14h08.33.981,Aud-B-Scan_AC,2022.2.5,None,
0,0.0,None,fixation,stimulus/audwhat_stim/blank_white.png,stimulus/audwhat_stim/blank_white.png,stimulus/audwhere_stim/blank_white.png,stimulus/audwhere_stim/blank_white.png,stimulus/audwhat_stim/blank_white.png,stimulus/audwhat_stim/blank_white.png,stimulus/audwhat_stim/blank_white.png,stimulus/audwhat_stim/blank_white.png,0.0,0.0,0.0,0.0,0,0.0,0,0.0,0,0.0,0,0.0,0,0.0,0.0,0,0,0,0,0,0,0,0,0,0.0,0,0.0,0,0.0,0,0.0,9,,,,,0,16,16,16,,,,,,,,,172.77640754099411,172.77640754099411,172.77640754099411,172.77640754099411,172.77640754099411,172.77640754099411,172.77640754099411,172.77640754099411,172.6816964163319,172.77640754099411,172.77640754099411,172.77640754099411,172.6816964163319,172.77640754099411,172.77640754099411,172.77640754099411,172.77640754099411,172.77640754099411,172.77640754099411,172.77640754099411,172.77640754099411,172.77640754099411,172.77640754099411,172.77640754099411,172.77640754099411,172.77640754099411,172.77640754099411,172.73169641633189,172.77640754099411,172.77640754099411,172.77640754099411,172.73169641633189,172.77640754099411,172.77640754099411,172.77640754099411,172.77640754099411,172.77640754099411,177.98178654100047,177.98178654100047,182.03030099999887,None,0,,reldom2_s037,001,2025-03-14_14h08.33.981,Aud-B-Scan_AC,2022.2.5,None,
13,First_Order,3.0,audwhere,stimulus/audwhere_stim/dummy.wav,stimulus/audwhere_stim/dummy.wav,stimulus/audwhere_stim/left_toward_290h.wav,stimulus/audwhere_stim/right_toward_280h.wav,stimulus/audwhere_stim/blank_white.png,stimulus/audwhere_stim/direction_box.png,stimulus/audwhere_stim/direction_yes.png,stimulus/audwhere_stim/direction_no.png,None,Direction,None,Direction,1,0.0,0,5.125,0,5.125,0,5.125,0,0.0,0.625,0,0,0,0,0,0,0,0,0,0.0,0,0.0,1,0.5,1,2.125,0,,,,,0,17,17,17,,,,,,,,,182.03030099999887,182.03030099999887,182.03030099999887,182.03030099999887,182.03030099999887,182.03030099999887,182.03030099999887,182.03030099999887,181.96182195766113,182.03030099999887,182.03030099999887,182.03030099999887,181.96182195766113,182.03030099999887,182.03030099999887,182.03030099999887,184.14162841600046,188.1556934159962,182.03030099999887,182.03030099999887,187.22060362499906,182.03030099999887,182.03030099999887,182.03030099999887,182.03030099999887,182.49037862499972,183.54643249999936,182.4607437076668,,184.14162841600046,185.19978824999998,184.1123709166607,,182.03030099999887,187.22060362499906,182.03030099999887,187.22060362499906,187.22060362499906,187.90643183299835,182.03030099999887,1,1,1.4214805839947076,reldom2_s037,001,2025-03-14_14h08.33.981,Aud-B-Scan_AC,2022.2.5,None,
14,First_Order,3.0,audwhere,stimulus/audwhere_stim/dummy.wav,stimulus/audwhere_stim/dummy.wav,stimulus/audwhere_stim/left_toward_270h.wav,stimulus/audwhere_stim/right_toward_290h.wav,stimulus/audwhere_stim/blank_white.png,stimulus/audwhere_stim/direction_box.png,stimulus/audwhere_stim/direction_yes.png,stimulus/audwhere_stim/direction_no.png,None,Direction,None,Direction,1,0.0,0,5.125,0,5.125,0,5.125,0,0.0,0.625,0,0,0,0,0,0,0,0,0,0.0,0,0.0,1,0.5,1,2.125,0,,,,,0,18,18,18,,,,,,,,,188.1556934159962,188.1556934159962,188.1556934159962,188.1556934159962,188.1556934159962,188.1556934159962,188.1556934159962,188.1556934159962,188.07974591633152,188.1556934159962,188.1556934159962,188.1556934159962,188.07974591633152,188.1556934159962,188.1556934159962,188.1556934159962,190.27369991599699,,188.1556934159962,188.1556934159962,193.31613500000094,188.1556934159962,188.1556934159962,188.1556934159962,188.1556934159962,188.6180412909962,189.67522608299623,188.58827833266358,,190.27369991599699,191.33575991600082,190.24387966666498,,188.1556934159962,193.31613500000094,188.1556934159962,193.31613500000094,193.3573080829956,194.04084416599653,188.1556934159962,1,1,1.2923497919982765,reldom2_s037,001,2025-03-14_14h08.33.981,Aud-B-Scan_AC,2022.2.5,None,
15,First_Order,3.0,audwhere,stimulus/audwhere_stim/dummy.wav,stimulus/audwhere_stim/dummy.wav,stimulus/audwhere_stim/left_away_290h.wav,stimulus/audwhere_stim/left_toward_280h.wav,stimulus/audwhere_stim/blank_white.png,stimulus/audwhere_stim/direction_box.png,stimulus/audwhere_stim/direction_yes.png,stimulus/audwhere_stim/direction_no.png,None,Direction,None,Side,2,0.0,0,5.125,0,5.125,0,5.125,0,0.0,0.625,0,0,0,0,0,0,0,0,0,0.0,0,0.0,1,0.5,1,2.125,0,,,,,0,19,19,19,,,,,,,,,194.2514767909961,194.2514767909961,194.2514767909961,194.2514767909961,194.2514767909961,194.2514767909961,194.2514767909961,194.2514767909961,194.1741774993299,194.2514767909961,194.2514767909961,194.2514767909961,194.1741774993299,194.2514767909961,194.2514767909961,194.2514767909961,196.32525004099443,,194.2514767909961,194.2514767909961,199.41897345799953,194.2514767909961,194.2514767909961,194.2514767909961,194.2514767909961,194.70956058299635,195.77330337499734,194.6804655826675,,196.32525004099443,197.3882310409972,196.29603670766326,,194.2514767909961,199.41897345799953,194.2514767909961,199.41897345799953,199.4596050409964,200.10885133299598,194.2514767909961,2,1,1.7028995430009672,reldom2_s037,001,2025-03-14_14h08.33.981,Aud-B-Scan_AC,2022.2.5,None,
16,First_Order,3.0,audwhere,stimulus/audwhere_stim/dummy.wav,stimulus/audwhere_stim/dummy.wav,stimulus/audwhere_stim/left_toward_300h.wav,stimulus/audwhere_stim/left_away_290h.wav,stimulus/audwhere_stim/blank_white.png,stimulus/audwhere_stim/direction_box.png,stimulus/audwhere_stim/direction_yes.png,stimulus/audwhere_stim/direction_no.png,None,Direction,None,Side,2,0.0,0,5.125,0,5.125,0,5.125,0,0.0,0.625,0,0,0,0,0,0,0,0,0,0.0,0,0.0,1,0.5,1,2.125,0,,,,,0,20,20,20,,,,,,,,,200.361947915997,200.361947915997,200.361947915997,200.361947915997,200.361947915997,200.361947915997,200.361947915997,200.361947915997,200.28276837433273,200.361947915997,200.361947915997,200.361947915997,200.28276837433273,200.361947915997,200.361947915997,200.361947915997,202.440301249997,206.5075727910007,200.361947915997,200.361947915997,205.5486668329977,200.361947915997,200.361947915997,200.361947915997,200.361947915997,200.82328287499695,201.88669333299913,200.79347049966262,,202.440301249997,203.51150683299784,202.41093779166502,,200.361947915997,205.5486668329977,200.361947915997,205.5486668329977,205.58922670799802,206.27597079100087,200.361947915997,2,1,1.2799051260008127,reldom2_s037,001,2025-03-14_14h08.33.981,Aud-B-Scan_AC,2022.2.5,None,
0,0.0,None,fixation,stimulus/audwhat_stim/blank_white.png,stimulus/audwhat_stim/blank_white.png,stimulus/audwhere_stim/blank_white.png,stimulus/audwhere_stim/blank_white.png,stimulus/audwhat_stim/blank_white.png,stimulus/audwhat_stim/blank_white.png,stimulus/audwhat_stim/blank_white.png,stimulus/audwhat_stim/blank_white.png,0.0,0.0,0.0,0.0,0,0.0,0,0.0,0,0.0,0,0.0,0,0.0,0.0,0,0,0,0,0,0,0,0,0,0.0,0,0.0,0,0.0,0,0.0,10,,,,,0,21,21,21,,,,,,,,,206.5075727910007,206.5075727910007,206.5075727910007,206.5075727910007,206.5075727910007,206.5075727910007,206.5075727910007,206.5075727910007,206.40930412433423,206.5075727910007,206.5075727910007,206.5075727910007,206.40930412433423,206.5075727910007,206.5075727910007,206.5075727910007,206.5075727910007,206.5075727910007,206.5075727910007,206.5075727910007,206.5075727910007,206.5075727910007,206.5075727910007,206.5075727910007,206.5075727910007,206.5075727910007,206.5075727910007,206.4593041243342,206.5075727910007,206.5075727910007,206.5075727910007,206.4593041243342,206.5075727910007,206.5075727910007,206.5075727910007,206.5075727910007,206.5075727910007,211.70263154099666,211.70263154099666,216.6681190829986,None,0,,reldom2_s037,001,2025-03-14_14h08.33.981,Aud-B-Scan_AC,2022.2.5,None,
17,Second_Order,3.0,audwhere,stimulus/audwhere_stim/right_toward_290h.wav,stimulus/audwhere_stim/right_away_290h.wav,stimulus/audwhere_stim/right_away_280h.wav,stimulus/audwhere_stim/left_away_300h.wav,stimulus/audwhat_stim/match_blank.png,stimulus/audwhat_stim/match_box.png,stimulus/audwhat_stim/match_yes.png,stimulus/audwhat_stim/match_no.png,2.0,Match,Side,Direction,2,5.125,0,5.125,0,5.125,0,5.125,0,0.75,0.75,0,0,0,0,0,0,0,0,1,0.5,1,2.125,1,0.5,1,2.125,0,,,,,0,22,22,22,,,,,,,,,216.6681190829986,221.79297562499414,216.6681190829986,216.6681190829986,216.6681190829986,216.6681190829986,217.12732333299937,218.1171667499948,217.13050391666573,218.1171667499948,218.75161383299564,219.7377840409972,218.76435087466623,,221.79297562499414,222.6421923329981,224.68669104099536,228.63954154100065,222.6421923329981,222.6421923329981,227.80171358299413,222.6421923329981,222.6421923329981,222.6421923329981,222.6421923329981,223.09467083299387,224.14125812499697,223.06615524966426,,224.68669104099536,225.7427636249995,224.65712416666454,,222.6421923329981,227.80171358299413,222.6421923329981,227.80171358299413,227.80171358299413,,222.6421923329981,1,0,1.9122876670007827,reldom2_s037,001,2025-03-14_14h08.33.981,Aud-B-Scan_AC,2022.2.5,None,
18,Second_Order,3.0,audwhere,stimulus/audwhere_stim/right_toward_270h.wav,stimulus/audwhere_stim/left_toward_270h.wav,stimulus/audwhere_stim/right_away_300h.wav,stimulus/audwhere_stim/left_away_280h.wav,stimulus/audwhat_stim/match_blank.png,stimulus/audwhat_stim/match_box.png,stimulus/audwhat_stim/match_yes.png,stimulus/audwhat_stim/match_no.png,1.0,Match,Direction,Direction,1,5.125,0,5.125,0,5.125,0,5.125,0,0.625,0.625,0,0,0,0,0,0,0,0,1,0.5,1,2.125,1,0.5,1,2.125,0,,,,,0,23,23,23,,,,,,,,,228.63954154100065,233.7547420829942,228.63954154100065,228.63954154100065,228.63954154100065,228.63954154100065,229.0919890410005,230.07769499999995,229.10484395766642,,230.72557799999777,231.7150527079939,230.72883633266272,231.7150527079939,233.7547420829942,234.4820989159998,236.55934508299833,240.5927869579973,234.4820989159998,234.4820989159998,239.64813183299702,234.4820989159998,234.4820989159998,234.4820989159998,234.4820989159998,234.9324352909971,235.97200941600022,234.90348470766574,,236.55934508299833,237.60719674999564,236.5306965826642,,234.4820989159998,239.64813183299702,234.4820989159998,239.64813183299702,239.64813183299702,240.32653887500055,234.4820989159998,1,1,1.3948796249969746,reldom2_s037,001,2025-03-14_14h08.33.981,Aud-B-Scan_AC,2022.2.5,None,
0,0.0,None,fixation,stimulus/audwhat_stim/blank_white.png,stimulus/audwhat_stim/blank_white.png,stimulus/audwhere_stim/blank_white.png,stimulus/audwhere_stim/blank_white.png,stimulus/audwhat_stim/blank_white.png,stimulus/audwhat_stim/blank_white.png,stimulus/audwhat_stim/blank_white.png,stimulus/audwhat_stim/blank_white.png,0.0,0.0,0.0,0.0,0,0.0,0,0.0,0,0.0,0,0.0,0,0.0,0.0,0,0,0,0,0,0,0,0,0,0.0,0,0.0,0,0.0,0,0.0,8,,,,,0,24,24,24,,,,,,,,,240.5927869579973,240.5927869579973,240.5927869579973,240.5927869579973,240.5927869579973,240.5927869579973,240.5927869579973,240.5927869579973,240.49923620833047,240.5927869579973,240.5927869579973,240.5927869579973,240.49923620833047,240.5927869579973,240.5927869579973,240.5927869579973,240.5927869579973,240.5927869579973,240.5927869579973,240.5927869579973,240.5927869579973,240.5927869579973,240.5927869579973,240.5927869579973,240.5927869579973,240.5927869579973,240.5927869579973,240.54923620833046,240.5927869579973,240.5927869579973,240.5927869579973,240.54923620833046,240.5927869579973,240.5927869579973,240.5927869579973,240.5927869579973,240.5927869579973,245.81270662499446,245.81270662499446,248.81958970800042,None,0,,reldom2_s037,001,2025-03-14_14h08.33.981,Aud-B-Scan_AC,2022.2.5,None,
19,First_Order,4.0,audwhere,stimulus/audwhere_stim/dummy.wav,stimulus/audwhere_stim/dummy.wav,stimulus/audwhere_stim/right_toward_280h.wav,stimulus/audwhere_stim/left_toward_280h.wav,stimulus/audwhere_stim/blank_white.png,stimulus/audwhere_stim/side_box.png,stimulus/audwhere_stim/side_yes.png,stimulus/audwhere_stim/side_no.png,None,Side,None,Direction,2,0.0,0,5.125,0,5.125,0,5.125,0,0.0,0.625,0,0,0,0,0,0,0,0,0,0.0,0,0.0,1,0.5,1,2.125,0,,,,,0,25,25,25,,,,,,,,,248.81958970800042,248.81958970800042,248.81958970800042,248.81958970800042,248.81958970800042,248.81958970800042,248.81958970800042,248.81958970800042,248.75240137466125,248.81958970800042,248.81958970800042,248.81958970800042,248.75240137466125,248.81958970800042,248.81958970800042,248.81958970800042,250.92663312499644,,248.81958970800042,248.81958970800042,253.99340054099594,248.81958970800042,248.81958970800042,248.81958970800042,248.81958970800042,249.279796791001,250.33289470800082,249.2505112496622,,250.92663312499644,251.98135454099975,250.8975253746651,,248.81958970800042,253.99340054099594,248.81958970800042,253.99340054099594,254.03385937499843,254.71736379099457,248.81958970800042,2,1,1.2461213339993265,reldom2_s037,001,2025-03-14_14h08.33.981,Aud-B-Scan_AC,2022.2.5,None,
20,First_Order,4.0,audwhere,stimulus/audwhere_stim/dummy.wav,stimulus/audwhere_stim/dummy.wav,stimulus/audwhere_stim/left_toward_290h.wav,stimulus/audwhere_stim/right_toward_270h.wav,stimulus/audwhere_stim/blank_white.png,stimulus/audwhere_stim/side_box.png,stimulus/audwhere_stim/side_yes.png,stimulus/audwhere_stim/side_no.png,None,Side,None,Direction,2,0.0,0,5.125,0,5.125,0,5.125,0,0.0,0.625,0,0,0,0,0,0,0,0,0,0.0,0,0.0,1,0.5,1,2.125,0,,,,,0,26,26,26,,,,,,,,,254.92678808299388,254.92678808299388,254.92678808299388,254.92678808299388,254.92678808299388,254.92678808299388,254.92678808299388,254.92678808299388,254.85069712432792,254.92678808299388,254.92678808299388,254.92678808299388,254.85069712432792,254.92678808299388,254.92678808299388,254.92678808299388,257.031051416001,,254.92678808299388,254.92678808299388,260.1013424999983,254.92678808299388,254.92678808299388,254.92678808299388,254.92678808299388,255.384772874997,256.4374410829987,255.3558071666669,,257.031051416001,258.0883022909984,257.0019402496657,,254.92678808299388,260.1013424999983,254.92678808299388,260.1013424999983,260.14222908299416,260.82398891599587,254.92678808299388,2,1,1.3491193759982707,reldom2_s037,001,2025-03-14_14h08.33.981,Aud-B-Scan_AC,2022.2.5,None,
21,First_Order,4.0,audwhere,stimulus/audwhere_stim/dummy.wav,stimulus/audwhere_stim/dummy.wav,stimulus/audwhere_stim/left_toward_270h.wav,stimulus/audwhere_stim/left_away_300h.wav,stimulus/audwhere_stim/blank_white.png,stimulus/audwhere_stim/side_box.png,stimulus/audwhere_stim/side_yes.png,stimulus/audwhere_stim/side_no.png,None,Side,None,Side,1,0.0,0,5.125,0,5.125,0,5.125,0,0.0,0.625,0,0,0,0,0,0,0,0,0,0.0,0,0.0,1,0.5,1,2.125,0,,,,,0,27,27,27,,,,,,,,,261.03378304099897,261.03378304099897,261.03378304099897,261.03378304099897,261.03378304099897,261.03378304099897,261.03378304099897,261.03378304099897,260.9573222493292,261.03378304099897,261.03378304099897,261.03378304099897,260.9573222493292,261.03378304099897,261.03378304099897,261.03378304099897,263.1495379159969,267.1634934159956,261.03378304099897,261.03378304099897,266.1827524159962,261.03378304099897,261.03378304099897,261.03378304099897,261.03378304099897,261.4933638329967,262.54814199999964,261.4638482076664,,263.1495379159969,264.2108972909991,263.12000645766625,,261.03378304099897,266.1827524159962,261.03378304099897,266.1827524159962,266.2635997909965,266.9120252079956,261.03378304099897,1,1,1.3725472509977408,reldom2_s037,001,2025-03-14_14h08.33.981,Aud-B-Scan_AC,2022.2.5,None,
22,First_Order,4.0,audwhere,stimulus/audwhere_stim/dummy.wav,stimulus/audwhere_stim/dummy.wav,stimulus/audwhere_stim/left_away_290h.wav,stimulus/audwhere_stim/left_toward_270h.wav,stimulus/audwhere_stim/blank_white.png,stimulus/audwhere_stim/side_box.png,stimulus/audwhere_stim/side_yes.png,stimulus/audwhere_stim/side_no.png,None,Side,None,Side,1,0.0,0,5.125,0,5.125,0,5.125,0,0.0,0.625,0,0,0,0,0,0,0,0,0,0.0,0,0.0,1,0.5,1,2.125,0,,,,,0,28,28,28,,,,,,,,,267.1634934159956,267.1634934159956,267.1634934159956,267.1634934159956,267.1634934159956,267.1634934159956,267.1634934159956,267.1634934159956,267.0858222913322,267.1634934159956,267.1634934159956,267.1634934159956,267.0858222913322,267.1634934159956,267.1634934159956,267.1634934159956,269.2362062079992,,267.1634934159956,267.1634934159956,272.32156745799875,267.1634934159956,267.1634934159956,267.1634934159956,267.1634934159956,267.6244165829994,268.68252299999585,267.5947576666624,,269.2362062079992,270.29521079099504,269.2067490416632,,267.1634934159956,272.32156745799875,267.1634934159956,272.32156745799875,272.3623887079957,273.04995341599715,267.1634934159956,1,1,1.1892707930019242,reldom2_s037,001,2025-03-14_14h08.33.981,Aud-B-Scan_AC,2022.2.5,None,
0,0.0,None,fixation,stimulus/audwhat_stim/blank_white.png,stimulus/audwhat_stim/blank_white.png,stimulus/audwhere_stim/blank_white.png,stimulus/audwhere_stim/blank_white.png,stimulus/audwhat_stim/blank_white.png,stimulus/audwhat_stim/blank_white.png,stimulus/audwhat_stim/blank_white.png,stimulus/audwhat_stim/blank_white.png,0.0,0.0,0.0,0.0,0,0.0,0,0.0,0,0.0,0,0.0,0,0.0,0.0,0,0,0,0,0,0,0,0,0,0.0,0,0.0,0,0.0,0,0.0,10,,,,,0,29,29,29,,,,,,,,,273.2832481660007,273.2832481660007,273.2832481660007,273.2832481660007,273.2832481660007,273.2832481660007,273.2832481660007,273.2832481660007,273.1832867493305,273.2832481660007,273.2832481660007,273.2832481660007,273.1832867493305,273.2832481660007,273.2832481660007,273.2832481660007,273.2832481660007,273.2832481660007,273.2832481660007,273.2832481660007,273.2832481660007,273.2832481660007,273.2832481660007,273.2832481660007,273.2832481660007,273.2832481660007,273.2832481660007,273.2332867493305,273.2832481660007,273.2832481660007,273.2832481660007,273.2332867493305,273.2832481660007,273.2832481660007,273.2832481660007,273.2832481660007,273.2832481660007,278.47931474999496,278.47931474999496,283.4465024159945,None,0,,reldom2_s037,001,2025-03-14_14h08.33.981,Aud-B-Scan_AC,2022.2.5,None,
23,Second_Order,4.0,audwhere,stimulus/audwhere_stim/right_toward_300h.wav,stimulus/audwhere_stim/left_toward_270h.wav,stimulus/audwhere_stim/left_away_300h.wav,stimulus/audwhere_stim/right_away_300h.wav,stimulus/audwhat_stim/match_blank.png,stimulus/audwhat_stim/match_box.png,stimulus/audwhat_stim/match_yes.png,stimulus/audwhat_stim/match_no.png,1.0,Match,Direction,Direction,1,5.125,0,5.125,0,5.125,0,5.125,0,0.75,0.75,0,0,0,0,0,0,0,0,1,0.5,1,2.125,1,0.5,1,2.125,0,,,,,0,30,30,30,,,,,,,,,283.4465024159945,288.5641380409943,283.4465024159945,283.4465024159945,283.4465024159945,283.4465024159945,283.90046666599665,284.8872766249988,283.9145774576648,,285.5229229999968,286.52152379099425,285.53548304166566,,288.5641380409943,289.41563837499416,291.4677603749951,295.4153902909966,289.41563837499416,289.41563837499416,294.57470829099475,289.41563837499416,289.41563837499416,289.41563837499416,289.41563837499416,289.8706056249939,290.91720045799593,289.84141741666485,,291.4677603749951,292.5198803329986,291.4386533746622,,289.41563837499416,294.57470829099475,289.41563837499416,294.57470829099475,294.57470829099475,,289.41563837499416,1,1,1.2753368339981535,reldom2_s037,001,2025-03-14_14h08.33.981,Aud-B-Scan_AC,2022.2.5,None,
24,Second_Order,4.0,audwhere,stimulus/audwhere_stim/right_toward_300h.wav,stimulus/audwhere_stim/left_toward_300h.wav,stimulus/audwhere_stim/left_away_290h.wav,stimulus/audwhere_stim/right_away_280h.wav,stimulus/audwhat_stim/match_blank.png,stimulus/audwhat_stim/match_box.png,stimulus/audwhat_stim/match_yes.png,stimulus/audwhat_stim/match_no.png,1.0,Match,Direction,Direction,1,5.125,0,5.125,0,5.125,0,5.125,0,0.625,0.625,0,0,0,0,0,0,0,0,1,0.5,1,2.125,1,0.5,1,2.125,0,,,,,0,31,31,31,,,,,,,,,295.4153902909966,300.53705395799625,295.4153902909966,295.4153902909966,295.4153902909966,295.4153902909966,295.87563258299633,296.86583929100016,295.87918204166294,,297.5003474999976,298.49905437499547,297.5129859576666,,300.53705395799625,301.26881866599433,303.34833824999805,307.3857579159958,301.26881866599433,301.26881866599433,306.43766637500084,301.26881866599433,301.26881866599433,301.26881866599433,301.26881866599433,301.71978729099646,302.7578395829987,301.6910749166675,,303.34833824999805,304.3930746659971,303.31903549966614,,301.26881866599433,306.43766637500084,301.26881866599433,306.43766637500084,306.43766637500084,307.1169136249955,301.26881866599433,1,1,1.1354654169990681,reldom2_s037,001,2025-03-14_14h08.33.981,Aud-B-Scan_AC,2022.2.5,None,
0,0.0,None,fixation,stimulus/audwhat_stim/blank_white.png,stimulus/audwhat_stim/blank_white.png,stimulus/audwhere_stim/blank_white.png,stimulus/audwhere_stim/blank_white.png,stimulus/audwhat_stim/blank_white.png,stimulus/audwhat_stim/blank_white.png,stimulus/audwhat_stim/blank_white.png,stimulus/audwhat_stim/blank_white.png,0.0,0.0,0.0,0.0,0,0.0,0,0.0,0,0.0,0,0.0,0,0.0,0.0,0,0,0,0,0,0,0,0,0,0.0,0,0.0,0,0.0,0,0.0,9,,,,,0,32,32,32,,,,,,,,,307.3857579159958,307.3857579159958,307.3857579159958,307.3857579159958,307.3857579159958,307.3857579159958,307.3857579159958,307.3857579159958,307.29030866633013,307.3857579159958,307.3857579159958,307.3857579159958,307.29030866633013,307.3857579159958,307.3857579159958,307.3857579159958,307.3857579159958,307.3857579159958,307.3857579159958,307.3857579159958,307.3857579159958,307.3857579159958,307.3857579159958,307.3857579159958,307.3857579159958,307.3857579159958,307.3857579159958,307.34030866633015,307.3857579159958,307.3857579159958,307.3857579159958,307.34030866633015,307.3857579159958,307.3857579159958,307.3857579159958,307.3857579159958,307.3857579159958,312.61183933299617,312.61183933299617,316.61951370799943,None,0,,reldom2_s037,001,2025-03-14_14h08.33.981,Aud-B-Scan_AC,2022.2.5,None,
25,First_Order,5.0,audwhat,stimulus/audwhat_stim/dummy.wav,stimulus/audwhat_stim/dummy.wav,stimulus/audwhat_stim/percussion xylophone_high-pitch_Ftri_loud.wav,stimulus/audwhat_stim/percussion mallet_low-pitch_F_loud.wav,stimulus/audwhat_stim/blank_white.png,stimulus/audwhat_stim/pitch_box.png,stimulus/audwhat_stim/pitch_yes.png,stimulus/audwhat_stim/pitch_no.png,None,Pitch,None,Category,2,0.0,0,5.125,0,5.125,0,5.125,0,0.0,0.625,0,0,0,0,0,0,0,0,0,0.0,0,0.0,1,0.5,1,2.125,0,,,,,0,33,33,33,,,,,,,,,316.61951370799943,316.61951370799943,316.61951370799943,316.61951370799943,316.61951370799943,316.61951370799943,316.61951370799943,316.61951370799943,316.5515654576617,316.61951370799943,316.61951370799943,316.61951370799943,316.5515654576617,316.61951370799943,316.61951370799943,316.61951370799943,318.7293246249974,322.738212749995,316.61951370799943,316.61951370799943,321.80216562499845,316.61951370799943,316.61951370799943,316.61951370799943,316.61951370799943,317.0786044999986,318.1331285829947,317.0494077496662,318.08766029099934,318.7293246249974,319.78820124999766,318.7008839576631,,316.61951370799943,321.80216562499845,316.61951370799943,321.80216562499845,321.84283979099564,322.5280367499945,316.61951370799943,2,1,0.7485509589969297,reldom2_s037,001,2025-03-14_14h08.33.981,Aud-B-Scan_AC,2022.2.5,None,
26,First_Order,5.0,audwhat,stimulus/audwhat_stim/dummy.wav,stimulus/audwhat_stim/dummy.wav,stimulus/audwhat_stim/percussion mallet_low-pitch_Dtri_loud.wav,stimulus/audwhat_stim/percussion xylophone_high-pitch_Ftri_loud.wav,stimulus/audwhat_stim/blank_white.png,stimulus/audwhat_stim/category_box.png,stimulus/audwhat_stim/category_yes.png,stimulus/audwhat_stim/category_no.png,None,Category,None,Category,1,0.0,0,5.125,0,5.125,0,5.125,0,0.0,0.625,0,0,0,0,0,0,0,0,0,0.0,0,0.0,1,0.5,1,2.125,0,,,,,0,34,34,34,,,,,,,,,322.738212749995,322.738212749995,322.738212749995,322.738212749995,322.738212749995,322.738212749995,322.738212749995,322.738212749995,322.6613700833278,322.738212749995,322.738212749995,322.738212749995,322.6613700833278,322.738212749995,322.738212749995,322.738212749995,324.8143127910007,328.85734558299737,322.738212749995,322.738212749995,327.913104457999,322.738212749995,322.738212749995,322.738212749995,322.738212749995,323.20339616599813,324.26133512499655,323.1742159996613,,324.8143127910007,325.8795280409977,324.78447837466615,325.83303850000084,322.738212749995,327.913104457999,322.738212749995,327.913104457999,327.9543032500005,328.6042732909991,322.738212749995,1,1,0.9648054589997628,reldom2_s037,001,2025-03-14_14h08.33.981,Aud-B-Scan_AC,2022.2.5,None,
27,First_Order,5.0,audwhat,stimulus/audwhat_stim/dummy.wav,stimulus/audwhat_stim/dummy.wav,stimulus/audwhat_stim/string cello_low-pitch_Dtri_loud.wav,stimulus/audwhat_stim/percussion mallet_low-pitch_Dtri_loud.wav,stimulus/audwhat_stim/blank_white.png,stimulus/audwhat_stim/pitch_box.png,stimulus/audwhat_stim/pitch_yes.png,stimulus/audwhat_stim/pitch_no.png,None,Pitch,None,Pitch,1,0.0,0,5.125,0,5.125,0,5.125,0,0.0,0.625,0,0,0,0,0,0,0,0,0,0.0,0,0.0,1,0.5,1,2.125,0,,,,,0,35,35,35,,,,,,,,,328.85734558299737,328.85734558299737,328.85734558299737,328.85734558299737,328.85734558299737,328.85734558299737,328.85734558299737,328.85734558299737,328.7783312493285,328.85734558299737,328.85734558299737,328.85734558299737,328.7783312493285,328.85734558299737,328.85734558299737,328.85734558299737,330.93049479099864,,328.85734558299737,328.85734558299737,334.0216684159968,328.85734558299737,328.85734558299737,328.85734558299737,328.85734558299737,329.3216039159961,330.3790167499974,329.2914007916663,,330.93049479099864,331.9946377499946,330.9008921666648,,328.85734558299737,334.0216684159968,328.85734558299737,334.0216684159968,334.06191874999786,334.74831012499635,328.85734558299737,1,1,1.1055789999954868,reldom2_s037,001,2025-03-14_14h08.33.981,Aud-B-Scan_AC,2022.2.5,None,
28,First_Order,5.0,audwhat,stimulus/audwhat_stim/dummy.wav,stimulus/audwhat_stim/dummy.wav,stimulus/audwhat_stim/percussion xylophone_high-pitch_Ftri_loud.wav,stimulus/audwhat_stim/percussion mallet_low-pitch_F_loud.wav,stimulus/audwhat_stim/blank_white.png,stimulus/audwhat_stim/category_box.png,stimulus/audwhat_stim/category_yes.png,stimulus/audwhat_stim/category_no.png,None,Category,None,Category,1,0.0,0,5.125,0,5.125,0,5.125,0,0.0,0.625,0,0,0,0,0,0,0,0,0,0.0,0,0.0,1,0.5,1,2.125,0,,,,,0,36,36,36,,,,,,,,,334.9612993749979,334.9612993749979,334.9612993749979,334.9612993749979,334.9612993749979,334.9612993749979,334.9612993749979,334.9612993749979,334.8816434583297,334.9612993749979,334.9612993749979,334.9612993749979,334.8816434583297,334.9612993749979,334.9612993749979,334.9612993749979,337.0468915829988,,334.9612993749979,334.9612993749979,340.1560908329993,334.9612993749979,334.9612993749979,334.9612993749979,334.9612993749979,335.425604707998,336.4911265829942,335.39578399966217,336.4446990829965,337.0468915829988,338.1198474999983,337.0169769996612,,334.9612993749979,340.1560908329993,334.9612993749979,340.1560908329993,340.1560908329993,340.80598016599833,334.9612993749979,1,1,0.8065944589980063,reldom2_s037,001,2025-03-14_14h08.33.981,Aud-B-Scan_AC,2022.2.5,None,
0,0.0,None,fixation,stimulus/audwhat_stim/blank_white.png,stimulus/audwhat_stim/blank_white.png,stimulus/audwhere_stim/blank_white.png,stimulus/audwhere_stim/blank_white.png,stimulus/audwhat_stim/blank_white.png,stimulus/audwhat_stim/blank_white.png,stimulus/audwhat_stim/blank_white.png,stimulus/audwhat_stim/blank_white.png,0.0,0.0,0.0,0.0,0,0.0,0,0.0,0,0.0,0,0.0,0,0.0,0.0,0,0,0,0,0,0,0,0,0,0.0,0,0.0,0,0.0,0,0.0,8,,,,,0,37,37,37,,,,,,,,,341.078334040998,341.078334040998,341.078334040998,341.078334040998,341.078334040998,341.078334040998,341.078334040998,341.078334040998,340.9792949993299,341.078334040998,341.078334040998,341.078334040998,340.9792949993299,341.078334040998,341.078334040998,341.078334040998,341.078334040998,341.078334040998,341.078334040998,341.078334040998,341.078334040998,341.078334040998,341.078334040998,341.078334040998,341.078334040998,341.078334040998,341.078334040998,341.0292949993299,341.078334040998,341.078334040998,341.078334040998,341.0292949993299,341.078334040998,341.078334040998,341.078334040998,341.078334040998,341.078334040998,346.2828182909943,346.2828182909943,349.2360883750007,None,0,,reldom2_s037,001,2025-03-14_14h08.33.981,Aud-B-Scan_AC,2022.2.5,None,
29,Second_Order,5.0,audwhat,stimulus/audwhat_stim/string viola_low-pitch_Dtri_loud.wav,stimulus/audwhat_stim/percussion mallet_low-pitch_Dtri_loud.wav,stimulus/audwhat_stim/string viola_low-pitch_Dtri_loud.wav,stimulus/audwhat_stim/string cello_high-pitch_Ftri_loud.wav,stimulus/audwhat_stim/match_blank.png,stimulus/audwhat_stim/match_box.png,stimulus/audwhat_stim/match_yes.png,stimulus/audwhat_stim/match_no.png,2.0,Match,Pitch,Category,2,5.125,0,5.125,0,5.125,0,5.125,0,0.75,0.75,0,0,0,0,0,0,0,0,1,0.5,1,2.125,1,0.5,1,2.125,0,,,,,0,38,38,38,,,,,,,,,349.2360883750007,354.34910300000047,349.2360883750007,349.2360883750007,349.2360883750007,349.2360883750007,349.68585533299483,350.6728502499973,349.7000309996622,,351.30923795799754,352.31041841599654,351.3209493326615,,354.34910300000047,355.2004937909951,357.25419337499625,,355.2004937909951,355.2004937909951,360.3679758329963,355.2004937909951,355.2004937909951,355.2004937909951,355.2004937909951,355.6549502909984,356.70186408299924,355.6261222076612,,357.25419337499625,358.30962712499604,357.2244438326636,,355.2004937909951,360.3679758329963,355.2004937909951,360.3679758329963,360.3679758329963,,355.2004937909951,2,1,0.9544499179974082,reldom2_s037,001,2025-03-14_14h08.33.981,Aud-B-Scan_AC,2022.2.5,None,
30,Second_Order,5.0,audwhat,stimulus/audwhat_stim/string viola_high-pitch_Ftri_loud.wav,stimulus/audwhat_stim/percussion xylophone_high-pitch_Ftri_loud.wav,stimulus/audwhat_stim/string viola_low-pitch_D_loud.wav,stimulus/audwhat_stim/percussion mallet_low-pitch_D_loud.wav,stimulus/audwhat_stim/match_blank.png,stimulus/audwhat_stim/match_box.png,stimulus/audwhat_stim/match_yes.png,stimulus/audwhat_stim/match_no.png,1.0,Match,Pitch,Pitch,1,5.125,0,5.125,0,5.125,0,5.125,0,0.625,0.625,0,0,0,0,0,0,0,0,1,0.5,1,2.125,1,0.5,1,2.125,0,,,,,0,39,39,39,,,,,,,,,361.16749120799795,366.288762624994,361.16749120799795,361.16749120799795,361.16749120799795,361.16749120799795,361.61287641599483,362.6001873329951,361.62769270766535,,363.252983624996,364.25092404099996,363.2650957916669,364.25402437499724,366.288762624994,367.02520525,369.0623073749957,,367.02520525,367.02520525,372.202116415996,367.02520525,367.02520525,367.02520525,367.02520525,367.47641566599486,368.5187527079979,367.44760991666067,,369.0623073749957,370.11237683299987,369.0333282916656,,367.02520525,372.202116415996,367.02520525,372.202116415996,372.202116415996,372.88282645800064,367.02520525,1,1,0.7948432510020211,reldom2_s037,001,2025-03-14_14h08.33.981,Aud-B-Scan_AC,2022.2.5,None,
0,0.0,None,fixation,stimulus/audwhat_stim/blank_white.png,stimulus/audwhat_stim/blank_white.png,stimulus/audwhere_stim/blank_white.png,stimulus/audwhere_stim/blank_white.png,stimulus/audwhat_stim/blank_white.png,stimulus/audwhat_stim/blank_white.png,stimulus/audwhat_stim/blank_white.png,stimulus/audwhat_stim/blank_white.png,0.0,0.0,0.0,0.0,0,0.0,0,0.0,0,0.0,0,0.0,0,0.0,0.0,0,0,0,0,0,0,0,0,0,0.0,0,0.0,0,0.0,0,0.0,9,,,,,0,40,40,40,,,,,,,,,373.1119178749941,373.1119178749941,373.1119178749941,373.1119178749941,373.1119178749941,373.1119178749941,373.1119178749941,373.1119178749941,373.01615979133396,373.1119178749941,373.1119178749941,373.1119178749941,373.01615979133396,373.1119178749941,373.1119178749941,373.1119178749941,373.1119178749941,373.1119178749941,373.1119178749941,373.1119178749941,373.1119178749941,373.1119178749941,373.1119178749941,373.1119178749941,373.1119178749941,373.1119178749941,373.1119178749941,373.066159791334,373.1119178749941,373.1119178749941,373.1119178749941,373.066159791334,373.1119178749941,373.1119178749941,373.1119178749941,373.1119178749941,373.1119178749941,378.2970858749977,378.2970858749977,382.3675843329984,None,0,,reldom2_s037,001,2025-03-14_14h08.33.981,Aud-B-Scan_AC,2022.2.5,None,
31,First_Order,6.0,audwhat,stimulus/audwhat_stim/dummy.wav,stimulus/audwhat_stim/dummy.wav,stimulus/audwhat_stim/string viola_low-pitch_D_loud.wav,stimulus/audwhat_stim/percussion mallet_low-pitch_D_loud.wav,stimulus/audwhat_stim/blank_white.png,stimulus/audwhat_stim/category_box.png,stimulus/audwhat_stim/category_yes.png,stimulus/audwhat_stim/category_no.png,None,Category,None,Pitch,2,0.0,0,5.125,0,5.125,0,5.125,0,0.0,0.625,0,0,0,0,0,0,0,0,0,0.0,0,0.0,1,0.5,1,2.125,0,,,,,0,41,41,41,,,,,,,,,382.3675843329984,382.3675843329984,382.3675843329984,382.3675843329984,382.3675843329984,382.3675843329984,382.3675843329984,382.3675843329984,382.2977334576668,382.3675843329984,382.3675843329984,382.3675843329984,382.2977334576668,382.3675843329984,382.3675843329984,382.3675843329984,384.4461741249979,388.48326329099655,382.3675843329984,382.3675843329984,387.5435288749941,382.3675843329984,382.3675843329984,382.3675843329984,382.3675843329984,382.82905149999715,383.89342254099756,382.79968099966595,,384.4461741249979,385.513376582996,384.4162938326665,,382.3675843329984,387.5435288749941,382.3675843329984,387.5435288749941,387.58385095799895,388.23168933299894,382.3675843329984,2,1,0.9918157920037629,reldom2_s037,001,2025-03-14_14h08.33.981,Aud-B-Scan_AC,2022.2.5,None,
32,First_Order,6.0,audwhat,stimulus/audwhat_stim/dummy.wav,stimulus/audwhat_stim/dummy.wav,stimulus/audwhat_stim/percussion mallet_high-pitch_Dtri_loud.wav,stimulus/audwhat_stim/string viola_high-pitch_Dtri_loud.wav,stimulus/audwhat_stim/blank_white.png,stimulus/audwhat_stim/pitch_box.png,stimulus/audwhat_stim/pitch_yes.png,stimulus/audwhat_stim/pitch_no.png,None,Pitch,None,Pitch,1,0.0,0,5.125,0,5.125,0,5.125,0,0.0,0.625,0,0,0,0,0,0,0,0,0,0.0,0,0.0,1,0.5,1,2.125,0,,,,,0,42,42,42,,,,,,,,,388.48326329099655,388.48326329099655,388.48326329099655,388.48326329099655,388.48326329099655,388.48326329099655,388.48326329099655,388.48326329099655,388.4057788333322,388.48326329099655,388.48326329099655,388.48326329099655,388.4057788333322,388.48326329099655,388.48326329099655,388.48326329099655,390.59890616600023,,388.48326329099655,388.48326329099655,393.6396546249962,388.48326329099655,388.48326329099655,388.48326329099655,388.48326329099655,388.94356879100087,390.00136862499494,388.9140024576666,,390.59890616600023,391.66375870799675,390.56921629166413,,388.48326329099655,393.6396546249962,388.48326329099655,393.6396546249962,393.6807605409995,394.367731833001,388.48326329099655,1,1,0.9410543339981814,reldom2_s037,001,2025-03-14_14h08.33.981,Aud-B-Scan_AC,2022.2.5,None,
33,First_Order,6.0,audwhat,stimulus/audwhat_stim/dummy.wav,stimulus/audwhat_stim/dummy.wav,stimulus/audwhat_stim/string cello_high-pitch_D_loud.wav,stimulus/audwhat_stim/string viola_low-pitch_F_loud.wav,stimulus/audwhat_stim/blank_white.png,stimulus/audwhat_stim/pitch_box.png,stimulus/audwhat_stim/pitch_yes.png,stimulus/audwhat_stim/pitch_no.png,None,Pitch,None,Category,2,0.0,0,5.125,0,5.125,0,5.125,0,0.0,0.625,0,0,0,0,0,0,0,0,0,0.0,0,0.0,1,0.5,1,2.125,0,,,,,0,43,43,43,,,,,,,,,394.5796652499994,394.5796652499994,394.5796652499994,394.5796652499994,394.5796652499994,394.5796652499994,394.5796652499994,394.5796652499994,394.50106516633434,394.5796652499994,394.5796652499994,394.5796652499994,394.50106516633434,394.5796652499994,394.5796652499994,394.5796652499994,396.65318833299534,,394.5796652499994,394.5796652499994,399.7445818749984,394.5796652499994,394.5796652499994,394.5796652499994,394.5796652499994,395.0394619159997,396.0992574159973,395.0104334576647,,396.65318833299534,397.7174026249995,396.6229964166671,,394.5796652499994,399.7445818749984,394.5796652499994,399.7445818749984,399.785912583,400.4714413749971,394.5796652499994,2,1,0.8390225010007271,reldom2_s037,001,2025-03-14_14h08.33.981,Aud-B-Scan_AC,2022.2.5,None,
34,First_Order,6.0,audwhat,stimulus/audwhat_stim/dummy.wav,stimulus/audwhat_stim/dummy.wav,stimulus/audwhat_stim/percussion mallet_low-pitch_F_loud.wav,stimulus/audwhat_stim/string viola_low-pitch_F_loud.wav,stimulus/audwhat_stim/blank_white.png,stimulus/audwhat_stim/category_box.png,stimulus/audwhat_stim/category_yes.png,stimulus/audwhat_stim/category_no.png,None,Category,None,Pitch,2,0.0,0,5.125,0,5.125,0,5.125,0,0.0,0.625,0,0,0,0,0,0,0,0,0,0.0,0,0.0,1,0.5,1,2.125,0,,,,,0,44,44,44,,,,,,,,,400.683563999999,400.683563999999,400.683563999999,400.683563999999,400.683563999999,400.683563999999,400.683563999999,400.683563999999,400.6047747083304,400.683563999999,400.683563999999,400.683563999999,400.6047747083304,400.683563999999,400.683563999999,400.683563999999,402.7670710409948,,400.683563999999,400.683563999999,405.8738630000007,400.683563999999,400.683563999999,400.683563999999,400.683563999999,401.1483892909964,402.212747957994,401.118333666662,,402.7670710409948,403.8391402499983,402.73736770766504,,400.683563999999,405.8738630000007,400.683563999999,405.8738630000007,405.8738630000007,406.52482408299693,400.683563999999,2,1,0.7433750009950018,reldom2_s037,001,2025-03-14_14h08.33.981,Aud-B-Scan_AC,2022.2.5,None,
0,0.0,None,fixation,stimulus/audwhat_stim/blank_white.png,stimulus/audwhat_stim/blank_white.png,stimulus/audwhere_stim/blank_white.png,stimulus/audwhere_stim/blank_white.png,stimulus/audwhat_stim/blank_white.png,stimulus/audwhat_stim/blank_white.png,stimulus/audwhat_stim/blank_white.png,stimulus/audwhat_stim/blank_white.png,0.0,0.0,0.0,0.0,0,0.0,0,0.0,0,0.0,0,0.0,0,0.0,0.0,0,0,0,0,0,0,0,0,0,0.0,0,0.0,0,0.0,0,0.0,9,,,,,0,45,45,45,,,,,,,,,406.7971624999991,406.7971624999991,406.7971624999991,406.7971624999991,406.7971624999991,406.7971624999991,406.7971624999991,406.7971624999991,406.6989399583273,406.7971624999991,406.7971624999991,406.7971624999991,406.6989399583273,406.7971624999991,406.7971624999991,406.7971624999991,406.7971624999991,406.7971624999991,406.7971624999991,406.7971624999991,406.7971624999991,406.7971624999991,406.7971624999991,406.7971624999991,406.7971624999991,406.7971624999991,406.7971624999991,406.7489399583273,406.7971624999991,406.7971624999991,406.7971624999991,406.7489399583273,406.7971624999991,406.7971624999991,406.7971624999991,406.7971624999991,406.7971624999991,412.00817445799476,412.00817445799476,415.92425016599736,None,0,,reldom2_s037,001,2025-03-14_14h08.33.981,Aud-B-Scan_AC,2022.2.5,None,
35,Second_Order,6.0,audwhat,stimulus/audwhat_stim/string cello_low-pitch_D_loud.wav,stimulus/audwhat_stim/percussion mallet_low-pitch_D_loud.wav,stimulus/audwhat_stim/percussion mallet_low-pitch_D_loud.wav,stimulus/audwhat_stim/percussion xylophone_high-pitch_Ftri_loud.wav,stimulus/audwhat_stim/match_blank.png,stimulus/audwhat_stim/match_box.png,stimulus/audwhat_stim/match_yes.png,stimulus/audwhat_stim/match_no.png,2.0,Match,Pitch,Category,2,5.125,0,5.125,0,5.125,0,5.125,0,0.75,0.75,0,0,0,0,0,0,0,0,1,0.5,1,2.125,1,0.5,1,2.125,0,,,,,0,46,46,46,,,,,,,,,415.92425016599736,421.03666004099796,415.92425016599736,415.92425016599736,415.92425016599736,415.92425016599736,416.3729907079978,417.3602092910005,416.3874580416634,,418.0086085829971,418.99719766599446,418.01199820766146,,421.03666004099796,421.8855432909986,423.9432128749977,,421.8855432909986,421.8855432909986,427.05992241599597,421.8855432909986,421.8855432909986,421.8855432909986,421.8855432909986,422.3413367079993,423.3948642499963,422.3121858746638,,423.9432128749977,424.9979590410003,423.91393724966133,424.95231741599855,421.8855432909986,427.05992241599597,421.8855432909986,427.05992241599597,427.05992241599597,,421.8855432909986,2,1,0.8137645009992411,reldom2_s037,001,2025-03-14_14h08.33.981,Aud-B-Scan_AC,2022.2.5,None,
36,Second_Order,6.0,audwhat,stimulus/audwhat_stim/string cello_low-pitch_Dtri_loud.wav,stimulus/audwhat_stim/percussion mallet_low-pitch_Dtri_loud.wav,stimulus/audwhat_stim/string viola_high-pitch_F_loud.wav,stimulus/audwhat_stim/percussion xylophone_high-pitch_F_loud.wav,stimulus/audwhat_stim/match_blank.png,stimulus/audwhat_stim/match_box.png,stimulus/audwhat_stim/match_yes.png,stimulus/audwhat_stim/match_no.png,1.0,Match,Pitch,Pitch,1,5.125,0,5.125,0,5.125,0,5.125,0,0.625,0.625,0,0,0,0,0,0,0,0,1,0.5,1,2.125,1,0.5,1,2.125,0,,,,,0,47,47,47,,,,,,,,,427.8640170829967,432.9801859579966,427.8640170829967,427.8640170829967,427.8640170829967,427.8640170829967,428.31840087499586,429.30464070799644,428.3315479996638,,429.9399548750007,430.93842629099527,429.9527899996649,,432.9801859579966,433.70981308299815,435.75039516599645,439.80829999999696,433.70981308299815,433.70981308299815,438.89657608299603,433.70981308299815,433.70981308299815,433.70981308299815,433.70981308299815,434.16105799999787,435.20664462499553,434.1325093326634,,435.75039516599645,436.800710083,435.7215637916636,436.7551344999956,433.70981308299815,438.89657608299603,433.70981308299815,438.89657608299603,438.89657608299603,439.57833549999486,433.70981308299815,1,1,0.9358815009982209,reldom2_s037,001,2025-03-14_14h08.33.981,Aud-B-Scan_AC,2022.2.5,None,
0,0.0,None,fixation,stimulus/audwhat_stim/blank_white.png,stimulus/audwhat_stim/blank_white.png,stimulus/audwhere_stim/blank_white.png,stimulus/audwhere_stim/blank_white.png,stimulus/audwhat_stim/blank_white.png,stimulus/audwhat_stim/blank_white.png,stimulus/audwhat_stim/blank_white.png,stimulus/audwhat_stim/blank_white.png,0.0,0.0,0.0,0.0,0,0.0,0,0.0,0,0.0,0,0.0,0,0.0,0.0,0,0,0,0,0,0,0,0,0,0.0,0,0.0,0,0.0,0,0.0,10,,,,,0,48,48,48,,,,,,,,,439.80829999999696,439.80829999999696,439.80829999999696,439.80829999999696,439.80829999999696,439.80829999999696,439.80829999999696,439.80829999999696,439.7116688333282,439.80829999999696,439.80829999999696,439.80829999999696,439.7116688333282,439.80829999999696,439.80829999999696,439.80829999999696,439.80829999999696,439.80829999999696,439.80829999999696,439.80829999999696,439.80829999999696,439.80829999999696,439.80829999999696,439.80829999999696,439.80829999999696,439.80829999999696,439.80829999999696,439.7616688333282,439.80829999999696,439.80829999999696,439.80829999999696,439.7616688333282,439.80829999999696,439.80829999999696,439.80829999999696,439.80829999999696,439.80829999999696,444.99436137500015,444.99436137500015,450.07665299999644,None,0,,reldom2_s037,001,2025-03-14_14h08.33.981,Aud-B-Scan_AC,2022.2.5,None,
37,First_Order,7.0,audwhere,stimulus/audwhere_stim/dummy.wav,stimulus/audwhere_stim/dummy.wav,stimulus/audwhere_stim/right_toward_300h.wav,stimulus/audwhere_stim/left_toward_290h.wav,stimulus/audwhere_stim/blank_white.png,stimulus/audwhere_stim/direction_box.png,stimulus/audwhere_stim/direction_yes.png,stimulus/audwhere_stim/direction_no.png,None,Direction,None,Direction,1,0.0,0,5.125,0,5.125,0,5.125,0,0.0,0.625,0,0,0,0,0,0,0,0,0,0.0,0,0.0,1,0.5,1,2.125,0,,,,,0,49,49,49,,,,,,,,,450.07665299999644,450.07665299999644,450.07665299999644,450.07665299999644,450.07665299999644,450.07665299999644,450.07665299999644,450.07665299999644,450.00654437466676,450.07665299999644,450.07665299999644,450.07665299999644,450.00654437466676,450.07665299999644,450.07665299999644,450.07665299999644,452.15317741599574,456.1966260409972,450.07665299999644,450.07665299999644,455.2578386249952,450.07665299999644,450.07665299999644,450.07665299999644,450.07665299999644,450.5357528749955,451.59819633299776,450.5060272916637,,452.15317741599574,453.21987850000005,452.1230991666637,,450.07665299999644,455.2578386249952,450.07665299999644,455.2578386249952,455.2989324579976,455.9855649159945,450.07665299999644,1,1,1.2910018759939703,reldom2_s037,001,2025-03-14_14h08.33.981,Aud-B-Scan_AC,2022.2.5,None,
38,First_Order,7.0,audwhere,stimulus/audwhere_stim/dummy.wav,stimulus/audwhere_stim/dummy.wav,stimulus/audwhere_stim/right_toward_290h.wav,stimulus/audwhere_stim/right_away_270h.wav,stimulus/audwhere_stim/blank_white.png,stimulus/audwhere_stim/side_box.png,stimulus/audwhere_stim/side_yes.png,stimulus/audwhere_stim/side_no.png,None,Side,None,Side,1,0.0,0,5.125,0,5.125,0,5.125,0,0.0,0.625,0,0,0,0,0,0,0,0,0,0.0,0,0.0,1,0.5,1,2.125,0,,,,,0,50,50,50,,,,,,,,,456.1966260409972,456.1966260409972,456.1966260409972,456.1966260409972,456.1966260409972,456.1966260409972,456.1966260409972,456.1966260409972,456.1188982493278,456.1966260409972,456.1966260409972,456.1966260409972,456.1188982493278,456.1966260409972,456.1966260409972,456.1966260409972,458.2697426659943,,456.1966260409972,456.1966260409972,461.3493661659959,456.1966260409972,456.1966260409972,456.1966260409972,456.1966260409972,456.65605087499716,457.7169037909989,456.62658499966733,,458.2697426659943,459.3286153749941,458.2404456666666,,456.1966260409972,461.3493661659959,456.1966260409972,461.3493661659959,461.3904577909998,462.07668049999484,456.1966260409972,1,1,1.6706947499988019,reldom2_s037,001,2025-03-14_14h08.33.981,Aud-B-Scan_AC,2022.2.5,None,
39,First_Order,7.0,audwhere,stimulus/audwhere_stim/dummy.wav,stimulus/audwhere_stim/dummy.wav,stimulus/audwhere_stim/left_away_290h.wav,stimulus/audwhere_stim/left_toward_290h.wav,stimulus/audwhere_stim/blank_white.png,stimulus/audwhere_stim/direction_box.png,stimulus/audwhere_stim/direction_yes.png,stimulus/audwhere_stim/direction_no.png,None,Direction,None,Side,2,0.0,0,5.125,0,5.125,0,5.125,0,0.0,0.625,0,0,0,0,0,0,0,0,0,0.0,0,0.0,1,0.5,1,2.125,0,,,,,0,51,51,51,,,,,,,,,462.2883710829992,462.2883710829992,462.2883710829992,462.2883710829992,462.2883710829992,462.2883710829992,462.2883710829992,462.2883710829992,462.21001383332816,462.2883710829992,462.2883710829992,462.2883710829992,462.21001383332816,462.2883710829992,462.2883710829992,462.2883710829992,464.3760287909972,,462.2883710829992,462.2883710829992,467.4821077499946,462.2883710829992,462.2883710829992,462.2883710829992,462.2883710829992,462.7521791249965,463.8219160410008,462.7218019166651,,464.3760287909972,465.4443405409984,464.34553583266484,,462.2883710829992,467.4821077499946,462.2883710829992,467.4821077499946,467.4821077499946,468.13541279099445,462.2883710829992,2,1,1.544129668000096,reldom2_s037,001,2025-03-14_14h08.33.981,Aud-B-Scan_AC,2022.2.5,None,
40,First_Order,7.0,audwhere,stimulus/audwhere_stim/dummy.wav,stimulus/audwhere_stim/dummy.wav,stimulus/audwhere_stim/right_away_280h.wav,stimulus/audwhere_stim/right_toward_290h.wav,stimulus/audwhere_stim/blank_white.png,stimulus/audwhere_stim/direction_box.png,stimulus/audwhere_stim/direction_yes.png,stimulus/audwhere_stim/direction_no.png,None,Direction,None,Side,2,0.0,0,5.125,0,5.125,0,5.125,0,0.0,0.625,0,0,0,0,0,0,0,0,0,0.0,0,0.0,1,0.5,1,2.125,0,,,,,0,52,52,52,,,,,,,,,468.3889090409939,468.3889090409939,468.3889090409939,468.3889090409939,468.3889090409939,468.3889090409939,468.3889090409939,468.3889090409939,468.30950833333384,468.3889090409939,468.3889090409939,468.3889090409939,468.30950833333384,468.3889090409939,468.3889090409939,468.3889090409939,470.48019341599866,,468.3889090409939,468.3889090409939,473.5423657499996,468.3889090409939,468.3889090409939,468.3889090409939,468.3889090409939,468.85262429099384,469.92420950000087,468.8225945826673,,470.48019341599866,471.5483582079978,470.45006858266083,,468.3889090409939,473.5423657499996,468.3889090409939,473.5423657499996,473.5831767079944,474.2334102909954,468.3889090409939,2,1,1.2494934179994743,reldom2_s037,001,2025-03-14_14h08.33.981,Aud-B-Scan_AC,2022.2.5,None,
0,0.0,None,fixation,stimulus/audwhat_stim/blank_white.png,stimulus/audwhat_stim/blank_white.png,stimulus/audwhere_stim/blank_white.png,stimulus/audwhere_stim/blank_white.png,stimulus/audwhat_stim/blank_white.png,stimulus/audwhat_stim/blank_white.png,stimulus/audwhat_stim/blank_white.png,stimulus/audwhat_stim/blank_white.png,0.0,0.0,0.0,0.0,0,0.0,0,0.0,0,0.0,0,0.0,0,0.0,0.0,0,0,0,0,0,0,0,0,0,0.0,0,0.0,0,0.0,0,0.0,8,,,,,0,53,53,53,,,,,,,,,474.50685112499923,474.50685112499923,474.50685112499923,474.50685112499923,474.50685112499923,474.50685112499923,474.50685112499923,474.50685112499923,474.4075538743292,474.50685112499923,474.50685112499923,474.50685112499923,474.4075538743292,474.50685112499923,474.50685112499923,474.50685112499923,474.50685112499923,474.50685112499923,474.50685112499923,474.50685112499923,474.50685112499923,474.50685112499923,474.50685112499923,474.50685112499923,474.50685112499923,474.50685112499923,474.50685112499923,474.4575538743292,474.50685112499923,474.50685112499923,474.50685112499923,474.4575538743292,474.50685112499923,474.50685112499923,474.50685112499923,474.50685112499923,474.50685112499923,479.7184135409989,479.7184135409989,482.67940166599874,None,0,,reldom2_s037,001,2025-03-14_14h08.33.981,Aud-B-Scan_AC,2022.2.5,None,
41,Second_Order,7.0,audwhere,stimulus/audwhere_stim/left_toward_300h.wav,stimulus/audwhere_stim/right_toward_280h.wav,stimulus/audwhere_stim/right_toward_270h.wav,stimulus/audwhere_stim/right_away_290h.wav,stimulus/audwhat_stim/match_blank.png,stimulus/audwhat_stim/match_box.png,stimulus/audwhat_stim/match_yes.png,stimulus/audwhat_stim/match_no.png,2.0,Match,Direction,Side,2,5.125,0,5.125,0,5.125,0,5.125,0,0.75,0.75,0,0,0,0,0,0,0,0,1,0.5,1,2.125,1,0.5,1,2.125,0,,,,,0,54,54,54,,,,,,,,,482.67940166599874,487.80291366599704,482.67940166599874,482.67940166599874,482.67940166599874,482.67940166599874,483.130045124999,484.1278433330008,483.14228141666194,484.1321409999946,484.7625678330005,485.7525238329981,484.76598270766067,,487.80291366599704,488.655707124999,490.7123924999978,,488.655707124999,488.655707124999,493.8292369999981,488.655707124999,488.655707124999,488.655707124999,488.655707124999,489.112450790999,490.1638861659958,489.081955707665,,490.7123924999978,491.76777716599463,490.68377016666295,,488.655707124999,493.8292369999981,488.655707124999,493.8292369999981,493.8292369999981,,488.655707124999,1,0,2.317214791997685,reldom2_s037,001,2025-03-14_14h08.33.981,Aud-B-Scan_AC,2022.2.5,None,
42,Second_Order,7.0,audwhere,stimulus/audwhere_stim/right_toward_290h.wav,stimulus/audwhere_stim/left_toward_270h.wav,stimulus/audwhere_stim/left_toward_290h.wav,stimulus/audwhere_stim/left_away_280h.wav,stimulus/audwhat_stim/match_blank.png,stimulus/audwhat_stim/match_box.png,stimulus/audwhat_stim/match_yes.png,stimulus/audwhat_stim/match_no.png,2.0,Match,Direction,Side,2,5.125,0,5.125,0,5.125,0,5.125,0,0.625,0.625,0,0,0,0,0,0,0,0,1,0.5,1,2.125,1,0.5,1,2.125,0,,,,,0,55,55,55,,,,,,,,,494.62763012499636,499.7519894579964,494.62763012499636,494.62763012499636,494.62763012499636,494.62763012499636,495.08658404099697,496.07546641599765,495.0896854996647,,496.7113337080009,497.709153374999,496.72355412466663,497.7126902499949,499.7519894579964,500.47893166599533,502.56385029100056,506.5823028329978,500.47893166599533,500.47893166599533,505.6706874160009,500.47893166599533,500.47893166599533,500.47893166599533,500.47893166599533,500.9290894579972,501.97439408299397,500.9005939996607,,502.56385029100056,503.61933474999387,502.5345867076651,,500.47893166599533,505.6706874160009,500.47893166599533,505.6706874160009,505.6706874160009,506.3526322079997,500.47893166599533,2,1,1.3408989179952187,reldom2_s037,001,2025-03-14_14h08.33.981,Aud-B-Scan_AC,2022.2.5,None,
0,0.0,None,fixation,stimulus/audwhat_stim/blank_white.png,stimulus/audwhat_stim/blank_white.png,stimulus/audwhere_stim/blank_white.png,stimulus/audwhere_stim/blank_white.png,stimulus/audwhat_stim/blank_white.png,stimulus/audwhat_stim/blank_white.png,stimulus/audwhat_stim/blank_white.png,stimulus/audwhat_stim/blank_white.png,0.0,0.0,0.0,0.0,0,0.0,0,0.0,0,0.0,0,0.0,0,0.0,0.0,0,0,0,0,0,0,0,0,0,0.0,0,0.0,0,0.0,0,0.0,10,,,,,0,56,56,56,,,,,,,,,506.5823028329978,506.5823028329978,506.5823028329978,506.5823028329978,506.5823028329978,506.5823028329978,506.5823028329978,506.5823028329978,506.48596554133303,506.5823028329978,506.5823028329978,506.5823028329978,506.48596554133303,506.5823028329978,506.5823028329978,506.5823028329978,506.5823028329978,506.5823028329978,506.5823028329978,506.5823028329978,506.5823028329978,506.5823028329978,506.5823028329978,506.5823028329978,506.5823028329978,506.5823028329978,506.5823028329978,506.53596554133304,506.5823028329978,506.5823028329978,506.5823028329978,506.53596554133304,506.5823028329978,506.5823028329978,506.5823028329978,506.5823028329978,506.5823028329978,511.768853374997,511.768853374997,516.8455815829948,None,0,,reldom2_s037,001,2025-03-14_14h08.33.981,Aud-B-Scan_AC,2022.2.5,None,
43,First_Order,8.0,audwhere,stimulus/audwhere_stim/dummy.wav,stimulus/audwhere_stim/dummy.wav,stimulus/audwhere_stim/right_toward_270h.wav,stimulus/audwhere_stim/left_toward_300h.wav,stimulus/audwhere_stim/blank_white.png,stimulus/audwhere_stim/side_box.png,stimulus/audwhere_stim/side_yes.png,stimulus/audwhere_stim/side_no.png,None,Side,None,Direction,2,0.0,0,5.125,0,5.125,0,5.125,0,0.0,0.625,0,0,0,0,0,0,0,0,0,0.0,0,0.0,1,0.5,1,2.125,0,,,,,0,57,57,57,,,,,,,,,516.8455815829948,516.8455815829948,516.8455815829948,516.8455815829948,516.8455815829948,516.8455815829948,516.8455815829948,516.8455815829948,516.7768514576625,516.8455815829948,516.8455815829948,516.8455815829948,516.7768514576625,516.8455815829948,516.8455815829948,516.8455815829948,518.9554083749972,522.9715152499994,516.8455815829948,516.8455815829948,522.0334217499985,516.8455815829948,516.8455815829948,516.8455815829948,516.8455815829948,517.3056301659963,518.3581875829987,517.2765687496615,,518.9554083749972,520.0156554579953,518.9259227916666,,516.8455815829948,522.0334217499985,516.8455815829948,522.0334217499985,522.0744602499981,522.7616344579947,516.8455815829948,2,1,2.362553917999321,reldom2_s037,001,2025-03-14_14h08.33.981,Aud-B-Scan_AC,2022.2.5,None,
44,First_Order,8.0,audwhere,stimulus/audwhere_stim/dummy.wav,stimulus/audwhere_stim/dummy.wav,stimulus/audwhere_stim/right_toward_270h.wav,stimulus/audwhere_stim/left_toward_280h.wav,stimulus/audwhere_stim/blank_white.png,stimulus/audwhere_stim/side_box.png,stimulus/audwhere_stim/side_yes.png,stimulus/audwhere_stim/side_no.png,None,Side,None,Direction,2,0.0,0,5.125,0,5.125,0,5.125,0,0.0,0.625,0,0,0,0,0,0,0,0,0,0.0,0,0.0,1,0.5,1,2.125,0,,,,,0,58,58,58,,,,,,,,,522.9715152499994,522.9715152499994,522.9715152499994,522.9715152499994,522.9715152499994,522.9715152499994,522.9715152499994,522.9715152499994,522.894967791328,522.9715152499994,522.9715152499994,522.9715152499994,522.894967791328,522.9715152499994,522.9715152499994,522.9715152499994,525.0434276659944,,522.9715152499994,522.9715152499994,528.131134999996,522.9715152499994,522.9715152499994,522.9715152499994,522.9715152499994,523.4316862079941,524.4904805409969,523.4025354576627,,525.0434276659944,526.1059873749982,525.0137202076623,,522.9715152499994,528.131134999996,522.9715152499994,528.131134999996,528.1722344579975,528.8591172909946,522.9715152499994,2,1,1.1747520419958164,reldom2_s037,001,2025-03-14_14h08.33.981,Aud-B-Scan_AC,2022.2.5,None,
45,First_Order,8.0,audwhere,stimulus/audwhere_stim/dummy.wav,stimulus/audwhere_stim/dummy.wav,stimulus/audwhere_stim/right_toward_270h.wav,stimulus/audwhere_stim/left_toward_290h.wav,stimulus/audwhere_stim/blank_white.png,stimulus/audwhere_stim/direction_box.png,stimulus/audwhere_stim/direction_yes.png,stimulus/audwhere_stim/direction_no.png,None,Direction,None,Direction,1,0.0,0,5.125,0,5.125,0,5.125,0,0.0,0.625,0,0,0,0,0,0,0,0,0,0.0,0,0.0,1,0.5,1,2.125,0,,,,,0,59,59,59,,,,,,,,,529.0706113329943,529.0706113329943,529.0706113329943,529.0706113329943,529.0706113329943,529.0706113329943,529.0706113329943,529.0706113329943,528.992450624328,529.0706113329943,529.0706113329943,529.0706113329943,528.992450624328,529.0706113329943,529.0706113329943,529.0706113329943,531.1600398749943,,529.0706113329943,529.0706113329943,534.2192192079965,529.0706113329943,529.0706113329943,529.0706113329943,529.0706113329943,529.5371309999973,530.6020978749948,529.5074864576638,,531.1600398749943,532.2288339160004,531.1296086246623,,529.0706113329943,534.2192192079965,529.0706113329943,534.2192192079965,534.3009662909972,534.9519010829972,529.0706113329943,1,1,1.2699330010000267,reldom2_s037,001,2025-03-14_14h08.33.981,Aud-B-Scan_AC,2022.2.5,None,
46,First_Order,8.0,audwhere,stimulus/audwhere_stim/dummy.wav,stimulus/audwhere_stim/dummy.wav,stimulus/audwhere_stim/left_away_300h.wav,stimulus/audwhere_stim/left_toward_300h.wav,stimulus/audwhere_stim/blank_white.png,stimulus/audwhere_stim/side_box.png,stimulus/audwhere_stim/side_yes.png,stimulus/audwhere_stim/side_no.png,None,Side,None,Side,1,0.0,0,5.125,0,5.125,0,5.125,0,0.0,0.625,0,0,0,0,0,0,0,0,0,0.0,0,0.0,1,0.5,1,2.125,0,,,,,0,60,60,60,,,,,,,,,535.1659766249941,535.1659766249941,535.1659766249941,535.1659766249941,535.1659766249941,535.1659766249941,535.1659766249941,535.1659766249941,535.0852344163305,535.1659766249941,535.1659766249941,535.1659766249941,535.0852344163305,535.1659766249941,535.1659766249941,535.1659766249941,537.2452892910005,541.3033798749966,535.1659766249941,535.1659766249941,540.3404437499994,535.1659766249941,535.1659766249941,535.1659766249941,535.1659766249941,535.6288613329962,536.6920505409944,535.5991082916628,,537.2452892910005,538.307657749996,537.2156876246629,,535.1659766249941,540.3404437499994,535.1659766249941,540.3404437499994,540.3810102499992,541.029357540996,535.1659766249941,1,1,1.2283731259958586,reldom2_s037,001,2025-03-14_14h08.33.981,Aud-B-Scan_AC,2022.2.5,None,
0,0.0,None,fixation,stimulus/audwhat_stim/blank_white.png,stimulus/audwhat_stim/blank_white.png,stimulus/audwhere_stim/blank_white.png,stimulus/audwhere_stim/blank_white.png,stimulus/audwhat_stim/blank_white.png,stimulus/audwhat_stim/blank_white.png,stimulus/audwhat_stim/blank_white.png,stimulus/audwhat_stim/blank_white.png,0.0,0.0,0.0,0.0,0,0.0,0,0.0,0,0.0,0,0.0,0,0.0,0.0,0,0,0,0,0,0,0,0,0,0.0,0,0.0,0,0.0,0,0.0,9,,,,,0,61,61,61,,,,,,,,,541.3033798749966,541.3033798749966,541.3033798749966,541.3033798749966,541.3033798749966,541.3033798749966,541.3033798749966,541.3033798749966,541.2034861663288,541.3033798749966,541.3033798749966,541.3033798749966,541.2034861663288,541.3033798749966,541.3033798749966,541.3033798749966,541.3033798749966,541.3033798749966,541.3033798749966,541.3033798749966,541.3033798749966,541.3033798749966,541.3033798749966,541.3033798749966,541.3033798749966,541.3033798749966,541.3033798749966,541.2534861663288,541.3033798749966,541.3033798749966,541.3033798749966,541.2534861663288,541.3033798749966,541.3033798749966,541.3033798749966,541.3033798749966,541.3033798749966,546.5075400409987,546.5075400409987,550.4747229159984,None,0,,reldom2_s037,001,2025-03-14_14h08.33.981,Aud-B-Scan_AC,2022.2.5,None,
47,Second_Order,8.0,audwhere,stimulus/audwhere_stim/right_away_300h.wav,stimulus/audwhere_stim/right_toward_270h.wav,stimulus/audwhere_stim/left_away_280h.wav,stimulus/audwhere_stim/left_toward_270h.wav,stimulus/audwhat_stim/match_blank.png,stimulus/audwhat_stim/match_box.png,stimulus/audwhat_stim/match_yes.png,stimulus/audwhat_stim/match_no.png,1.0,Match,Side,Side,1,5.125,0,5.125,0,5.125,0,5.125,0,0.75,0.75,0,0,0,0,0,0,0,0,1,0.5,1,2.125,1,0.5,1,2.125,0,,,,,0,62,62,62,,,,,,,,,550.4747229159984,555.5976917909938,550.4747229159984,550.4747229159984,550.4747229159984,550.4747229159984,550.9340679579982,551.9212807910008,550.9483702076652,,552.5572392079994,553.5546046249947,552.5692107496618,,555.5976917909938,556.4477846659938,558.5007877909957,,556.4477846659938,556.4477846659938,561.6226404999979,556.4477846659938,556.4477846659938,556.4477846659938,556.4477846659938,556.9016830409964,557.9522524999993,556.8726027916675,,558.5007877909957,559.5599206659972,558.4714552076659,,556.4477846659938,561.6226404999979,556.4477846659938,561.6226404999979,561.6226404999979,,556.4477846659938,1,1,1.0947701260010945,reldom2_s037,001,2025-03-14_14h08.33.981,Aud-B-Scan_AC,2022.2.5,None,
48,Second_Order,8.0,audwhere,stimulus/audwhere_stim/right_toward_270h.wav,stimulus/audwhere_stim/right_away_270h.wav,stimulus/audwhere_stim/left_away_280h.wav,stimulus/audwhere_stim/left_toward_290h.wav,stimulus/audwhat_stim/match_blank.png,stimulus/audwhat_stim/match_box.png,stimulus/audwhat_stim/match_yes.png,stimulus/audwhat_stim/match_no.png,1.0,Match,Side,Side,1,5.125,0,5.125,0,5.125,0,5.125,0,0.625,0.625,0,0,0,0,0,0,0,0,1,0.5,1,2.125,1,0.5,1,2.125,0,,,,,0,63,63,63,,,,,,,,,562.4203733329996,567.5411461659969,562.4203733329996,562.4203733329996,562.4203733329996,562.4203733329996,562.8787680829992,563.8653477080006,562.8924390826617,,564.5002804579999,565.4991002499955,564.5129444166635,,567.5411461659969,568.2702908329957,570.3126197909951,574.370908375,568.2702908329957,568.2702908329957,573.4611124579969,568.2702908329957,568.2702908329957,568.2702908329957,568.2702908329957,568.7219022079953,569.7683056659953,568.6925386246623,,570.3126197909951,571.3637451659961,570.2833440416618,,568.2702908329957,573.4611124579969,568.2702908329957,573.4611124579969,573.4611124579969,574.1411342909996,568.2702908329957,1,1,1.115373417000228,reldom2_s037,001,2025-03-14_14h08.33.981,Aud-B-Scan_AC,2022.2.5,None,
0,0.0,None,fixation,stimulus/audwhat_stim/blank_white.png,stimulus/audwhat_stim/blank_white.png,stimulus/audwhere_stim/blank_white.png,stimulus/audwhere_stim/blank_white.png,stimulus/audwhat_stim/blank_white.png,stimulus/audwhat_stim/blank_white.png,stimulus/audwhat_stim/blank_white.png,stimulus/audwhat_stim/blank_white.png,0.0,0.0,0.0,0.0,0,0.0,0,0.0,0,0.0,0,0.0,0,0.0,0.0,0,0,0,0,0,0,0,0,0,0.0,0,0.0,0,0.0,0,0.0,16,,,,,0,64,64,64,,,,,,,,,574.370908375,574.370908375,574.370908375,574.370908375,574.370908375,574.370908375,574.370908375,574.370908375,574.2744676243329,574.370908375,574.370908375,574.370908375,574.2744676243329,574.370908375,574.370908375,574.370908375,574.370908375,574.370908375,574.370908375,574.370908375,574.370908375,574.370908375,574.370908375,574.370908375,574.370908375,574.370908375,574.370908375,574.3244676243329,574.370908375,574.370908375,574.370908375,574.3244676243329,574.370908375,574.370908375,574.370908375,574.370908375,574.370908375,579.5729289160008,579.5729289160008,590.5133984999993,None,0,,reldom2_s037,001,2025-03-14_14h08.33.981,Aud-B-Scan_AC,2022.2.5,None,
