Trial,Order,Block,Type,Stimuli_File1,Stimuli_File2,Stimuli_File3,Stimuli_File4,Cue_File1,Cue_File2,Response_File_Yes,Response_File_No,Match,Cue_Dimension,Pair1_Dimension,Pair2_Dimension,Key,Cue1_Duration,Cue1_Onset,Cue2_Duration,Cue2_Onset,ResponseYes_Duration,ResponseYes_Onset,ResponseNo_Duration,ResponseNo_Onset,ITI_Within,ITI_Between,Image1_Duration,Image1_Onset,Image2_Duration,Image2_Onset,Image3_Duration,Image3_Onset,Image4_Duration,Image4_Onset,Sound1_Duration,Sound1_Onset,Sound2_Duration,Sound2_Onset,Sound3_Duration,Sound3_Onset,Sound4_Duration,Sound4_Onset,Fixation_Duration,trials_2.thisRepN,trials_2.thisTrialN,trials_2.thisN,trials_2.thisIndex,trials.thisRepN,trials.thisTrialN,trials.thisN,trials.thisIndex,text_start.started,key_resp_start.started,key_resp_start.keys,key_resp_start.rt,text2.started,key_resp_2.started,key_resp_2.keys,key_resp_2.rt,cue_file1.started,cue_file1.stopped,image_1.started,image_1.stopped,image_2.started,image_2.stopped,sound_icon1.started,sound_icon1.stopped,sound_1.started,sound_1.stopped,sound_icon2.started,sound_icon2.stopped,sound_2.started,sound_2.stopped,image_blank_1.started,image_blank_1.stopped,key_press.started,key_press.stopped,fixation_text.started,cue_file2.started,cue_file2.stopped,image_3.started,image_3.stopped,image_4.started,image_4.stopped,sound_icon3.started,sound_icon3.stopped,sound_3.started,sound_3.stopped,sound_icon4.started,sound_icon4.stopped,sound_4.started,sound_4.stopped,response_yes.started,response_yes.stopped,response_no.started,response_no.stopped,iti_blank.started,iti_blank.stopped,fixation_text.stopped,key_press.keys,key_press.corr,key_press.rt,participant,session,date,expName,psychopyVersion,frameRate,
,,,,,,,,,,,,,,,,,,,,,,,,,,,,,,,,,,,,,,,,,,,,,,,,,,,,7.181246500003908,7.181246500003908,2,4.552053416999115,,,,,,,,,,,,,,,,,,,,,,,,,,,,,,,,,,,,,,,,,,,,,,,,reldom2_s037,001,2025-03-14_14h31.35.794,What-B-Scan_AC,2022.2.5,None,
,,,,,,,,,,,,,,,,,,,,,,,,,,,,,,,,,,,,,,,,,,,,0,0,0,0,,,,,,,,,11.775017666004715,11.775017666004715,5,18.025681999999506,,,,,,,,,,,,,,,,,,,,,,,,,,,,,,,,,,,,,,,,,,,,reldom2_s037,001,2025-03-14_14h31.35.794,What-B-Scan_AC,2022.2.5,None,
,,,,,,,,,,,,,,,,,,,,,,,,,,,,,,,,,,,,,,,,,,,,1,0,1,0,,,,,,,,,29.819666540999606,29.819666540999606,5,1.982947584001522,,,,,,,,,,,,,,,,,,,,,,,,,,,,,,,,,,,,,,,,,,,,reldom2_s037,001,2025-03-14_14h31.35.794,What-B-Scan_AC,2022.2.5,None,
,,,,,,,,,,,,,,,,,,,,,,,,,,,,,,,,,,,,,,,,,,,,2,0,2,0,,,,,,,,,31.81898487500439,31.81898487500439,5,1.9811885009985417,,,,,,,,,,,,,,,,,,,,,,,,,,,,,,,,,,,,,,,,,,,,reldom2_s037,001,2025-03-14_14h31.35.794,What-B-Scan_AC,2022.2.5,None,
,,,,,,,,,,,,,,,,,,,,,,,,,,,,,,,,,,,,,,,,,,,,3,0,3,0,,,,,,,,,33.81010850000166,33.81010850000166,5,1.990156043000752,,,,,,,,,,,,,,,,,,,,,,,,,,,,,,,,,,,,,,,,,,,,reldom2_s037,001,2025-03-14_14h31.35.794,What-B-Scan_AC,2022.2.5,None,
0,0.0,None,fixation,stimulus/viswhat_stim/blank_white.png,stimulus/viswhat_stim/blank_white.png,stimulus/audwhat_stim/blank_white.png,stimulus/audwhat_stim/blank_white.png,stimulus/viswhat_stim/blank_white.png,stimulus/viswhat_stim/blank_white.png,stimulus/viswhat_stim/blank_white.png,stimulus/viswhat_stim/blank_white.png,0.0,0.0,0.0,0.0,0,0.0,0,0.0,0,0.0,0,0.0,0,0.0,0.0,0,0.0,0,0.0,0,0.0,0,0.0,0,0.0,0,0.0,0,0.0,0,0.0,16,,,,,0,0,0,0,,,,,,,,,36.022764708002796,36.022764708002796,36.022764708002796,36.022764708002796,36.022764708002796,36.022764708002796,36.022764708002796,36.022764708002796,35.92484249966753,36.022764708002796,36.022764708002796,36.022764708002796,35.92484249966753,36.022764708002796,36.022764708002796,36.022764708002796,36.022764708002796,36.022764708002796,36.022764708002796,36.022764708002796,36.022764708002796,36.022764708002796,36.022764708002796,36.022764708002796,36.022764708002796,36.022764708002796,36.022764708002796,35.974842499667524,36.022764708002796,36.022764708002796,36.022764708002796,35.974842499667524,36.022764708002796,36.022764708002796,36.022764708002796,36.022764708002796,36.022764708002796,41.23142745800578,41.23142745800578,52.47397487499984,None,0,,reldom2_s037,001,2025-03-14_14h31.35.794,What-B-Scan_AC,2022.2.5,None,
1,First_Order,1.0,viswhat,stimulus/viswhat_stim/blank_white.png,stimulus/viswhat_stim/blank_white.png,stimulus/viswhat_stim/water_vehicle-pirateship.png,stimulus/viswhat_stim/water_animal-lobster.png,stimulus/viswhat_stim/blank_white.png,stimulus/viswhat_stim/location_box.png,stimulus/viswhat_stim/location_yes.png,stimulus/viswhat_stim/location_no.png,None,Location,None,Location,1,0.0,0,5.125,0,5.125,0,5.125,0,0.0,0.625,0,0.0,0,0.0,1,0.5,1,2.125,0,0.0,0,0.0,0,0.0,0,0.0,0,,,,,0,1,1,1,,,,,,,,,52.47397487499984,52.47397487499984,52.47397487499984,52.47397487499984,52.47397487499984,52.47397487499984,52.47397487499984,52.47397487499984,52.189131916004406,52.47397487499984,52.47397487499984,52.47397487499984,52.189131916004406,52.47397487499984,52.47397487499984,52.47397487499984,54.49487550000049,,52.47397487499984,52.47397487499984,57.81828291599959,52.9064167079996,54.06286995800474,54.49487550000049,55.651006791005784,52.47397487499984,52.47397487499984,52.339131916004405,52.47397487499984,52.47397487499984,52.47397487499984,52.339131916004405,52.47397487499984,52.47397487499984,57.81828291599959,52.47397487499984,57.81828291599959,57.67773854100233,,52.47397487499984,1,1,1.0536970009998186,reldom2_s037,001,2025-03-14_14h31.35.794,What-B-Scan_AC,2022.2.5,None,
2,First_Order,1.0,viswhat,stimulus/viswhat_stim/blank_white.png,stimulus/viswhat_stim/blank_white.png,stimulus/viswhat_stim/land_vehicle-firetruck.png,stimulus/viswhat_stim/water_vehicle-jetski.png,stimulus/viswhat_stim/blank_white.png,stimulus/viswhat_stim/location_box.png,stimulus/viswhat_stim/location_yes.png,stimulus/viswhat_stim/location_no.png,None,Location,None,Type,2,0.0,0,5.125,0,5.125,0,5.125,0,0.0,0.625,0,0.0,0,0.0,1,0.5,1,2.125,0,0.0,0,0.0,0,0.0,0,0.0,0,,,,,0,2,2,2,,,,,,,,,58.46336458300357,58.46336458300357,58.46336458300357,58.46336458300357,58.46336458300357,58.46336458300357,58.46336458300357,58.46336458300357,58.43043520833938,58.46336458300357,58.46336458300357,58.46336458300357,58.43043520833938,58.46336458300357,58.46336458300357,58.46336458300357,60.57700745799957,64.59964912500436,58.46336458300357,58.46336458300357,63.61333983300574,58.95081112500338,59.965689208002004,60.57700745799957,61.60708745800366,58.46336458300357,58.46336458300357,58.44710187500605,58.46336458300357,58.46336458300357,58.46336458300357,58.44710187500605,58.46336458300357,58.46336458300357,63.61333983300574,58.46336458300357,63.61333983300574,63.68965462500637,64.33011633300339,58.46336458300357,2,1,1.4832359179999912,reldom2_s037,001,2025-03-14_14h31.35.794,What-B-Scan_AC,2022.2.5,None,
3,First_Order,1.0,viswhat,stimulus/viswhat_stim/blank_white.png,stimulus/viswhat_stim/blank_white.png,stimulus/viswhat_stim/land_animal-moose.png,stimulus/viswhat_stim/water_animal-jellyfish.png,stimulus/viswhat_stim/blank_white.png,stimulus/viswhat_stim/type_box.png,stimulus/viswhat_stim/type_yes.png,stimulus/viswhat_stim/type_no.png,None,Type,None,Type,1,0.0,0,5.125,0,5.125,0,5.125,0,0.0,0.625,0,0.0,0,0.0,1,0.5,1,2.125,0,0.0,0,0.0,0,0.0,0,0.0,0,,,,,0,3,3,3,,,,,,,,,64.59964912500436,64.59964912500436,64.59964912500436,64.59964912500436,64.59964912500436,64.59964912500436,64.59964912500436,64.59964912500436,64.50498275000572,64.59964912500436,64.59964912500436,64.59964912500436,64.50498275000572,64.59964912500436,64.59964912500436,64.59964912500436,66.67599783300102,,64.59964912500436,64.59964912500436,69.76962808300595,65.07632062500488,66.14383195800474,66.67599783300102,67.74939741600247,64.59964912500436,64.59964912500436,64.55498275000573,64.59964912500436,64.59964912500436,64.59964912500436,64.55498275000573,64.59964912500436,64.59964912500436,69.76962808300595,64.59964912500436,69.76962808300595,69.82495991600445,70.68714362500032,64.59964912500436,1,1,0.8496201679954538,reldom2_s037,001,2025-03-14_14h31.35.794,What-B-Scan_AC,2022.2.5,None,
4,First_Order,1.0,viswhat,stimulus/viswhat_stim/blank_white.png,stimulus/viswhat_stim/blank_white.png,stimulus/viswhat_stim/land_animal-tiger.png,stimulus/viswhat_stim/land_vehicle-rv.png,stimulus/viswhat_stim/blank_white.png,stimulus/viswhat_stim/type_box.png,stimulus/viswhat_stim/type_yes.png,stimulus/viswhat_stim/type_no.png,None,Type,None,Location,2,0.0,0,5.125,0,5.125,0,5.125,0,0.0,0.625,0,0.0,0,0.0,1,0.5,1,2.125,0,0.0,0,0.0,0,0.0,0,0.0,0,,,,,0,4,4,4,,,,,,,,,70.68714362500032,70.68714362500032,70.68714362500032,70.68714362500032,70.68714362500032,70.68714362500032,70.68714362500032,70.68714362500032,70.63840329167094,70.68714362500032,70.68714362500032,70.68714362500032,70.63840329167094,70.68714362500032,70.68714362500032,70.68714362500032,72.7876063750009,,70.68714362500032,70.68714362500032,75.8541520409999,71.1689570410017,72.20217137500003,72.7876063750009,73.82329633300105,70.68714362500032,70.68714362500032,70.6550699583376,70.68714362500032,70.68714362500032,70.68714362500032,70.6550699583376,70.68714362500032,70.68714362500032,75.8541520409999,70.68714362500032,75.8541520409999,75.91227591600182,76.57686762500089,70.68714362500032,2,1,0.48795379199873423,reldom2_s037,001,2025-03-14_14h31.35.794,What-B-Scan_AC,2022.2.5,None,
0,0.0,None,fixation,stimulus/viswhat_stim/blank_white.png,stimulus/viswhat_stim/blank_white.png,stimulus/audwhat_stim/blank_white.png,stimulus/audwhat_stim/blank_white.png,stimulus/viswhat_stim/blank_white.png,stimulus/viswhat_stim/blank_white.png,stimulus/viswhat_stim/blank_white.png,stimulus/viswhat_stim/blank_white.png,0.0,0.0,0.0,0.0,0,0.0,0,0.0,0,0.0,0,0.0,0,0.0,0.0,0,0.0,0,0.0,0,0.0,0,0.0,0,0.0,0,0.0,0,0.0,0,0.0,9,,,,,0,5,5,5,,,,,,,,,76.81834045800497,76.81834045800497,76.81834045800497,76.81834045800497,76.81834045800497,76.81834045800497,76.81834045800497,76.81834045800497,76.72252979167193,76.81834045800497,76.81834045800497,76.81834045800497,76.72252979167193,76.81834045800497,76.81834045800497,76.81834045800497,76.81834045800497,76.81834045800497,76.81834045800497,76.81834045800497,76.81834045800497,76.81834045800497,76.81834045800497,76.81834045800497,76.81834045800497,76.81834045800497,76.81834045800497,76.77252979167194,76.81834045800497,76.81834045800497,76.81834045800497,76.77252979167194,76.81834045800497,76.81834045800497,76.81834045800497,76.81834045800497,76.81834045800497,82.0087143750061,82.0087143750061,86.0075905410049,None,0,,reldom2_s037,001,2025-03-14_14h31.35.794,What-B-Scan_AC,2022.2.5,None,
5,Second_Order,1.0,viswhat,stimulus/viswhat_stim/land_animal-bunny.png,stimulus/viswhat_stim/land_vehicle-motorcycle.png,stimulus/viswhat_stim/water_animal-octopus.png,stimulus/viswhat_stim/land_animal-fox.png,stimulus/viswhat_stim/match_blank.png,stimulus/viswhat_stim/match_box.png,stimulus/viswhat_stim/match_yes.png,stimulus/viswhat_stim/match_no.png,2.0,Match,Location,Type,2,5.125,0,5.125,0,5.125,0,5.125,0,0.75,0.75,1,0.5,1,2.125,1,0.5,1,2.125,0,0.0,0,0.0,0,0.0,0,0.0,0,,,,,0,6,6,6,,,,,,,,,86.0075905410049,91.12454450000223,86.44451200000185,87.43136387500272,88.07917345800524,89.06786145800288,86.0075905410049,86.0075905410049,86.02009870767021,86.0075905410049,86.0075905410049,86.0075905410049,86.02009870767021,86.0075905410049,91.12454450000223,91.93891658299981,94.01438354100537,97.91909195799963,91.93891658299981,91.93891658299981,97.08840125000279,92.40148387500085,93.42275325000082,94.01438354100537,95.04140379100136,91.93891658299981,91.93891658299981,91.90748912500275,91.93891658299981,91.93891658299981,91.93891658299981,91.90748912500275,91.93891658299981,91.93891658299981,97.08840125000279,91.93891658299981,97.08840125000279,97.13980366600299,,91.93891658299981,2,1,0.9228066260038759,reldom2_s037,001,2025-03-14_14h31.35.794,What-B-Scan_AC,2022.2.5,None,
6,Second_Order,1.0,viswhat,stimulus/viswhat_stim/land_vehicle-tank.png,stimulus/viswhat_stim/land_animal-wolf.png,stimulus/viswhat_stim/water_vehicle-motorboatraft.png,stimulus/viswhat_stim/water_animal-squid.png,stimulus/viswhat_stim/match_blank.png,stimulus/viswhat_stim/match_box.png,stimulus/viswhat_stim/match_yes.png,stimulus/viswhat_stim/match_no.png,1.0,Match,Location,Location,1,5.125,0,5.125,0,5.125,0,5.125,0,0.625,0.625,1,0.5,1,2.125,1,0.5,1,2.125,0,0.0,0,0.0,0,0.0,0,0.0,0,,,,,0,7,7,7,,,,,,,,,97.91909195799963,103.03395445800561,98.3897631660002,99.38808333300403,100.02801466600067,101.02510375000566,97.91909195799963,97.91909195799963,97.9215709996725,97.91909195799963,97.91909195799963,97.91909195799963,97.9215709996725,97.91909195799963,103.03395445800561,103.73074000000634,105.79896450000524,109.84178512500512,103.73074000000634,103.73074000000634,108.88081187500211,104.167827958001,105.18749416600622,105.79896450000524,106.83230412500416,103.73074000000634,103.73074000000634,103.69825766600552,103.73074000000634,103.73074000000634,103.73074000000634,103.69825766600552,103.73074000000634,103.73074000000634,108.88081187500211,103.73074000000634,108.88081187500211,108.9285279579999,109.56841820800037,103.73074000000634,1,1,0.7742567089953809,reldom2_s037,001,2025-03-14_14h31.35.794,What-B-Scan_AC,2022.2.5,None,
0,0.0,None,fixation,stimulus/viswhat_stim/blank_white.png,stimulus/viswhat_stim/blank_white.png,stimulus/audwhat_stim/blank_white.png,stimulus/audwhat_stim/blank_white.png,stimulus/viswhat_stim/blank_white.png,stimulus/viswhat_stim/blank_white.png,stimulus/viswhat_stim/blank_white.png,stimulus/viswhat_stim/blank_white.png,0.0,0.0,0.0,0.0,0,0.0,0,0.0,0,0.0,0,0.0,0,0.0,0.0,0,0.0,0,0.0,0,0.0,0,0.0,0,0.0,0,0.0,0,0.0,0,0.0,9,,,,,0,8,8,8,,,,,,,,,109.84178512500512,109.84178512500512,109.84178512500512,109.84178512500512,109.84178512500512,109.84178512500512,109.84178512500512,109.84178512500512,109.73870695800142,109.84178512500512,109.84178512500512,109.84178512500512,109.73870695800142,109.84178512500512,109.84178512500512,109.84178512500512,109.84178512500512,109.84178512500512,109.84178512500512,109.84178512500512,109.84178512500512,109.84178512500512,109.84178512500512,109.84178512500512,109.84178512500512,109.84178512500512,109.84178512500512,109.78870695800143,109.84178512500512,109.84178512500512,109.84178512500512,109.78870695800143,109.84178512500512,109.84178512500512,109.84178512500512,109.84178512500512,109.84178512500512,115.06664950000413,115.06664950000413,119.28679908300546,None,0,,reldom2_s037,001,2025-03-14_14h31.35.794,What-B-Scan_AC,2022.2.5,None,
7,First_Order,2.0,viswhat,stimulus/viswhat_stim/blank_white.png,stimulus/viswhat_stim/blank_white.png,stimulus/viswhat_stim/water_animal-lobster.png,stimulus/viswhat_stim/water_vehicle-canoe.png,stimulus/viswhat_stim/blank_white.png,stimulus/viswhat_stim/location_box.png,stimulus/viswhat_stim/location_yes.png,stimulus/viswhat_stim/location_no.png,None,Location,None,Location,1,0.0,0,5.125,0,5.125,0,5.125,0,0.0,0.625,0,0.0,0,0.0,1,0.5,1,2.125,0,0.0,0,0.0,0,0.0,0,0.0,0,,,,,0,9,9,9,,,,,,,,,119.28679908300546,119.28679908300546,119.28679908300546,119.28679908300546,119.28679908300546,119.28679908300546,119.28679908300546,119.28679908300546,119.0073206666663,119.28679908300546,119.28679908300546,119.28679908300546,119.0073206666663,119.28679908300546,119.28679908300546,119.28679908300546,121.37863133300561,,119.28679908300546,119.28679908300546,124.6619005829998,119.73471383300057,120.93143433300429,121.37863133300561,122.57621354100411,119.28679908300546,119.28679908300546,119.14065399999963,119.28679908300546,119.28679908300546,119.28679908300546,119.14065399999963,119.28679908300546,119.28679908300546,124.6619005829998,119.28679908300546,124.6619005829998,124.5177937910048,,119.28679908300546,1,1,0.6988955010019708,reldom2_s037,001,2025-03-14_14h31.35.794,What-B-Scan_AC,2022.2.5,None,
8,First_Order,2.0,viswhat,stimulus/viswhat_stim/blank_white.png,stimulus/viswhat_stim/blank_white.png,stimulus/viswhat_stim/water_animal-jellyfish.png,stimulus/viswhat_stim/land_animal-bunny.png,stimulus/viswhat_stim/blank_white.png,stimulus/viswhat_stim/type_box.png,stimulus/viswhat_stim/type_yes.png,stimulus/viswhat_stim/type_no.png,None,Type,None,Type,1,0.0,0,5.125,0,5.125,0,5.125,0,0.0,0.625,0,0.0,0,0.0,1,0.5,1,2.125,0,0.0,0,0.0,0,0.0,0,0.0,0,,,,,0,10,10,10,,,,,,,,,125.38046904100338,125.38046904100338,125.38046904100338,125.38046904100338,125.38046904100338,125.38046904100338,125.38046904100338,125.38046904100338,125.29869262500287,125.38046904100338,125.38046904100338,125.38046904100338,125.29869262500287,125.38046904100338,125.38046904100338,125.38046904100338,127.46151066600578,131.47911608300637,125.38046904100338,125.38046904100338,130.536738625,125.8492536660051,126.88944700000138,127.46151066600578,128.50761525000416,125.38046904100338,125.38046904100338,125.3320259583362,125.38046904100338,125.38046904100338,125.38046904100338,125.3320259583362,125.38046904100338,125.38046904100338,130.536738625,125.38046904100338,130.536738625,130.58364062500186,131.2811645000038,125.38046904100338,1,1,0.7230564589990536,reldom2_s037,001,2025-03-14_14h31.35.794,What-B-Scan_AC,2022.2.5,None,
9,First_Order,2.0,viswhat,stimulus/viswhat_stim/blank_white.png,stimulus/viswhat_stim/blank_white.png,stimulus/viswhat_stim/land_animal-cat.png,stimulus/viswhat_stim/water_animal-whale (1).png,stimulus/viswhat_stim/blank_white.png,stimulus/viswhat_stim/location_box.png,stimulus/viswhat_stim/location_yes.png,stimulus/viswhat_stim/location_no.png,None,Location,None,Type,2,0.0,0,5.125,0,5.125,0,5.125,0,0.0,0.625,0,0.0,0,0.0,1,0.5,1,2.125,0,0.0,0,0.0,0,0.0,0,0.0,0,,,,,0,11,11,11,,,,,,,,,131.47911608300637,131.47911608300637,131.47911608300637,131.47911608300637,131.47911608300637,131.47911608300637,131.47911608300637,131.47911608300637,131.4311645000038,131.47911608300637,131.47911608300637,131.47911608300637,131.4311645000038,131.47911608300637,131.47911608300637,131.47911608300637,133.5754604160029,137.59424662500533,131.47911608300637,131.47911608300637,136.64123812500475,131.9634883750041,132.99695820800116,133.5754604160029,134.61419283300347,131.47911608300637,131.47911608300637,131.44783116667048,131.47911608300637,131.47911608300637,131.47911608300637,131.44783116667048,131.47911608300637,131.47911608300637,136.64123812500475,131.47911608300637,136.64123812500475,136.69509083300363,137.3337908329995,131.47911608300637,2,1,0.7757361679978203,reldom2_s037,001,2025-03-14_14h31.35.794,What-B-Scan_AC,2022.2.5,None,
10,First_Order,2.0,viswhat,stimulus/viswhat_stim/blank_white.png,stimulus/viswhat_stim/blank_white.png,stimulus/viswhat_stim/water_animal-shark.png,stimulus/viswhat_stim/water_vehicle-yacht.png,stimulus/viswhat_stim/blank_white.png,stimulus/viswhat_stim/type_box.png,stimulus/viswhat_stim/type_yes.png,stimulus/viswhat_stim/type_no.png,None,Type,None,Location,2,0.0,0,5.125,0,5.125,0,5.125,0,0.0,0.625,0,0.0,0,0.0,1,0.5,1,2.125,0,0.0,0,0.0,0,0.0,0,0.0,0,,,,,0,12,12,12,,,,,,,,,137.59424662500533,137.59424662500533,137.59424662500533,137.59424662500533,137.59424662500533,137.59424662500533,137.59424662500533,137.59424662500533,137.5299802496719,137.59424662500533,137.59424662500533,137.59424662500533,137.5299802496719,137.59424662500533,137.59424662500533,137.59424662500533,139.6876287910054,143.7417785830039,137.59424662500533,137.59424662500533,142.77074208300473,138.06548004100478,139.13207458300167,139.6876287910054,140.71883087500464,137.59424662500533,137.59424662500533,137.56331358300523,137.59424662500533,137.59424662500533,137.59424662500533,137.56331358300523,137.59424662500533,137.59424662500533,142.77074208300473,137.59424662500533,142.77074208300473,142.80813470800058,143.47652137499972,137.59424662500533,2,1,0.9259955840025214,reldom2_s037,001,2025-03-14_14h31.35.794,What-B-Scan_AC,2022.2.5,None,
0,0.0,None,fixation,stimulus/viswhat_stim/blank_white.png,stimulus/viswhat_stim/blank_white.png,stimulus/audwhat_stim/blank_white.png,stimulus/audwhat_stim/blank_white.png,stimulus/viswhat_stim/blank_white.png,stimulus/viswhat_stim/blank_white.png,stimulus/viswhat_stim/blank_white.png,stimulus/viswhat_stim/blank_white.png,0.0,0.0,0.0,0.0,0,0.0,0,0.0,0,0.0,0,0.0,0,0.0,0.0,0,0.0,0,0.0,0,0.0,0,0.0,0,0.0,0,0.0,0,0.0,0,0.0,10,,,,,0,13,13,13,,,,,,,,,143.7417785830039,143.7417785830039,143.7417785830039,143.7417785830039,143.7417785830039,143.7417785830039,143.7417785830039,143.7417785830039,143.64711466633358,143.7417785830039,143.7417785830039,143.7417785830039,143.64711466633358,143.7417785830039,143.7417785830039,143.7417785830039,143.7417785830039,143.7417785830039,143.7417785830039,143.7417785830039,143.7417785830039,143.7417785830039,143.7417785830039,143.7417785830039,143.7417785830039,143.7417785830039,143.7417785830039,143.69711466633356,143.7417785830039,143.7417785830039,143.7417785830039,143.69711466633356,143.7417785830039,143.7417785830039,143.7417785830039,143.7417785830039,143.7417785830039,148.96059004100243,148.96059004100243,153.8656822500052,None,0,,reldom2_s037,001,2025-03-14_14h31.35.794,What-B-Scan_AC,2022.2.5,None,
11,Second_Order,2.0,viswhat,stimulus/viswhat_stim/land_animal-ostrich.png,stimulus/viswhat_stim/water_animal-stingray.png,stimulus/viswhat_stim/water_vehicle-cruiseship.png,stimulus/viswhat_stim/water_animal-seaturtle.png,stimulus/viswhat_stim/match_blank.png,stimulus/viswhat_stim/match_box.png,stimulus/viswhat_stim/match_yes.png,stimulus/viswhat_stim/match_no.png,2.0,Match,Type,Location,2,5.125,0,5.125,0,5.125,0,5.125,0,0.75,0.75,1,0.5,1,2.125,1,0.5,1,2.125,0,0.0,0,0.0,0,0.0,0,0.0,0,,,,,0,14,14,14,,,,,,,,,153.8656822500052,158.9801826660041,154.33532108300278,155.33410995799932,155.96941700000025,156.95802462500433,153.8656822500052,153.8656822500052,153.8767546243345,153.8656822500052,153.8656822500052,153.8656822500052,153.8767546243345,153.8656822500052,158.9801826660041,159.95365470800607,161.9634285409993,,159.95365470800607,159.95365470800607,165.17402883300383,160.35544570800266,161.46015900000202,161.9634285409993,163.07115870800044,159.95365470800607,159.95365470800607,159.86531541600417,159.95365470800607,159.95365470800607,159.95365470800607,159.86531541600417,159.95365470800607,159.95365470800607,165.17402883300383,159.95365470800607,165.17402883300383,165.0790859580011,,159.95365470800607,2,1,0.8481547920018784,reldom2_s037,001,2025-03-14_14h31.35.794,What-B-Scan_AC,2022.2.5,None,
12,Second_Order,2.0,viswhat,stimulus/viswhat_stim/land_animal-ostrich.png,stimulus/viswhat_stim/land_vehicle-oldcar.png,stimulus/viswhat_stim/water_vehicle-ship.png,stimulus/viswhat_stim/land_vehicle-vespa.png,stimulus/viswhat_stim/match_blank.png,stimulus/viswhat_stim/match_box.png,stimulus/viswhat_stim/match_yes.png,stimulus/viswhat_stim/match_no.png,2.0,Match,Location,Type,2,5.125,0,5.125,0,5.125,0,5.125,0,0.625,0.625,1,0.5,1,2.125,1,0.5,1,2.125,0,0.0,0,0.0,0,0.0,0,0.0,0,,,,,0,15,15,15,,,,,,,,,165.87191745800374,170.99232904100063,166.33014995800477,167.32859733300575,167.95094200000312,168.9492933750007,165.87191745800374,165.87191745800374,165.8812500833335,165.87191745800374,165.87191745800374,165.87191745800374,165.8812500833335,165.87191745800374,170.99232904100063,171.7694730830044,173.8044211660017,,171.7694730830044,171.7694730830044,177.00636829100404,172.17429162500048,173.26011450000078,173.8044211660017,174.8977722500058,171.7694730830044,171.7694730830044,171.7053167499995,171.7694730830044,171.7694730830044,171.7694730830044,171.7053167499995,171.7694730830044,171.7694730830044,177.00636829100404,171.7694730830044,177.00636829100404,176.94354579100036,177.8511658330026,171.7694730830044,2,1,0.7301005420013098,reldom2_s037,001,2025-03-14_14h31.35.794,What-B-Scan_AC,2022.2.5,None,
0,0.0,None,fixation,stimulus/viswhat_stim/blank_white.png,stimulus/viswhat_stim/blank_white.png,stimulus/audwhat_stim/blank_white.png,stimulus/audwhat_stim/blank_white.png,stimulus/viswhat_stim/blank_white.png,stimulus/viswhat_stim/blank_white.png,stimulus/viswhat_stim/blank_white.png,stimulus/viswhat_stim/blank_white.png,0.0,0.0,0.0,0.0,0,0.0,0,0.0,0,0.0,0,0.0,0,0.0,0.0,0,0.0,0,0.0,0,0.0,0,0.0,0,0.0,0,0.0,0,0.0,0,0.0,9,,,,,0,16,16,16,,,,,,,,,177.8511658330026,177.8511658330026,177.8511658330026,177.8511658330026,177.8511658330026,177.8511658330026,177.8511658330026,177.8511658330026,177.75300691633942,177.8511658330026,177.8511658330026,177.8511658330026,177.75300691633942,177.8511658330026,177.8511658330026,177.8511658330026,177.8511658330026,177.8511658330026,177.8511658330026,177.8511658330026,177.8511658330026,177.8511658330026,177.8511658330026,177.8511658330026,177.8511658330026,177.8511658330026,177.8511658330026,177.80300691633943,177.8511658330026,177.8511658330026,177.8511658330026,177.80300691633943,177.8511658330026,177.8511658330026,177.8511658330026,177.8511658330026,177.8511658330026,183.06237754100584,183.06237754100584,187.08845637500053,None,0,,reldom2_s037,001,2025-03-14_14h31.35.794,What-B-Scan_AC,2022.2.5,None,
13,First_Order,3.0,audwhat,stimulus/audwhat_stim/dummy.wav,stimulus/audwhat_stim/dummy.wav,stimulus/audwhat_stim/percussion mallet_low-pitch_Ftri_loud.wav,stimulus/audwhat_stim/percussion xylophone_high-pitch_Dtri_loud.wav,stimulus/audwhat_stim/blank_white.png,stimulus/audwhat_stim/pitch_box.png,stimulus/audwhat_stim/pitch_yes.png,stimulus/audwhat_stim/pitch_no.png,None,Pitch,None,Category,2,0.0,0,5.125,0,5.125,0,5.125,0,0.0,0.625,0,0.0,0,0.0,0,0.0,0,0.0,0,0.0,0,0.0,1,0.5,1,2.125,0,,,,,0,17,17,17,,,,,,,,,187.08845637500053,187.08845637500053,187.08845637500053,187.08845637500053,187.08845637500053,187.08845637500053,187.08845637500053,187.08845637500053,187.01832745767268,187.08845637500053,187.08845637500053,187.08845637500053,187.01832745767268,187.08845637500053,187.08845637500053,187.08845637500053,189.16267362500366,,187.08845637500053,187.08845637500053,192.25156750000315,187.08845637500053,187.08845637500053,187.08845637500053,187.08845637500053,187.54840912500367,188.61035937500128,187.51880362467298,,189.16267362500366,190.22456291600247,189.13284937466622,190.1782934160001,187.08845637500053,192.25156750000315,187.08845637500053,192.25156750000315,192.29210120800417,192.94241624999995,187.08845637500053,2,1,1.06011854299868,reldom2_s037,001,2025-03-14_14h31.35.794,What-B-Scan_AC,2022.2.5,None,
14,First_Order,3.0,audwhat,stimulus/audwhat_stim/dummy.wav,stimulus/audwhat_stim/dummy.wav,stimulus/audwhat_stim/string cello_low-pitch_D_loud.wav,stimulus/audwhat_stim/percussion mallet_low-pitch_D_loud.wav,stimulus/audwhat_stim/blank_white.png,stimulus/audwhat_stim/pitch_box.png,stimulus/audwhat_stim/pitch_yes.png,stimulus/audwhat_stim/pitch_no.png,None,Pitch,None,Pitch,1,0.0,0,5.125,0,5.125,0,5.125,0,0.0,0.625,0,0.0,0,0.0,0,0.0,0,0.0,0,0.0,0,0.0,1,0.5,1,2.125,0,,,,,0,18,18,18,,,,,,,,,193.19505237500562,193.19505237500562,193.19505237500562,193.19505237500562,193.19505237500562,193.19505237500562,193.19505237500562,193.19505237500562,193.11644145833466,193.19505237500562,193.19505237500562,193.19505237500562,193.11644145833466,193.19505237500562,193.19505237500562,193.19505237500562,195.2660317080008,,193.19505237500562,193.19505237500562,198.35164000000077,193.19505237500562,193.19505237500562,193.19505237500562,193.19505237500562,193.655277458005,194.71543516599922,193.62556524966593,,195.2660317080008,196.32844587500585,195.2361898746715,,193.19505237500562,198.35164000000077,193.19505237500562,198.35164000000077,198.39267450000625,199.04350095800328,193.19505237500562,1,1,0.7506245839977055,reldom2_s037,001,2025-03-14_14h31.35.794,What-B-Scan_AC,2022.2.5,None,
15,First_Order,3.0,audwhat,stimulus/audwhat_stim/dummy.wav,stimulus/audwhat_stim/dummy.wav,stimulus/audwhat_stim/string cello_high-pitch_D_loud.wav,stimulus/audwhat_stim/string cello_low-pitch_Ftri_loud.wav,stimulus/audwhat_stim/blank_white.png,stimulus/audwhat_stim/category_box.png,stimulus/audwhat_stim/category_yes.png,stimulus/audwhat_stim/category_no.png,None,Category,None,Category,1,0.0,0,5.125,0,5.125,0,5.125,0,0.0,0.625,0,0.0,0,0.0,0,0.0,0,0.0,0,0.0,0,0.0,1,0.5,1,2.125,0,,,,,0,19,19,19,,,,,,,,,199.2977502499998,199.2977502499998,199.2977502499998,199.2977502499998,199.2977502499998,199.2977502499998,199.2977502499998,199.2977502499998,199.21671224933576,199.2977502499998,199.2977502499998,199.2977502499998,199.21671224933576,199.2977502499998,199.2977502499998,199.2977502499998,201.38656400000036,,199.2977502499998,199.2977502499998,204.45728537499963,199.2977502499998,199.2977502499998,199.2977502499998,199.2977502499998,199.76151454100182,200.83081745800155,199.73179516666667,,201.38656400000036,202.460099791002,201.35659174967103,,199.2977502499998,204.45728537499963,199.2977502499998,204.45728537499963,204.49877258299966,205.15278600000602,199.2977502499998,1,1,0.8938417509998544,reldom2_s037,001,2025-03-14_14h31.35.794,What-B-Scan_AC,2022.2.5,None,
16,First_Order,3.0,audwhat,stimulus/audwhat_stim/dummy.wav,stimulus/audwhat_stim/dummy.wav,stimulus/audwhat_stim/string viola_low-pitch_F_loud.wav,stimulus/audwhat_stim/percussion mallet_low-pitch_F_loud.wav,stimulus/audwhat_stim/blank_white.png,stimulus/audwhat_stim/category_box.png,stimulus/audwhat_stim/category_yes.png,stimulus/audwhat_stim/category_no.png,None,Category,None,Pitch,2,0.0,0,5.125,0,5.125,0,5.125,0,0.0,0.625,0,0.0,0,0.0,0,0.0,0,0.0,0,0.0,0,0.0,1,0.5,1,2.125,0,,,,,0,20,20,20,,,,,,,,,205.40580404100183,205.40580404100183,205.40580404100183,205.40580404100183,205.40580404100183,205.40580404100183,205.40580404100183,205.40580404100183,205.32704295833733,205.40580404100183,205.40580404100183,205.40580404100183,205.32704295833733,205.40580404100183,205.40580404100183,205.40580404100183,207.49386300000333,,205.40580404100183,205.40580404100183,210.55842900000425,205.40580404100183,205.40580404100183,205.40580404100183,205.40580404100183,205.8698846660045,206.93835062500148,205.83945824966602,,207.49386300000333,208.56439662500634,207.46394745767273,,205.40580404100183,210.55842900000425,205.40580404100183,210.55842900000425,210.59933866600477,211.25073295800394,205.40580404100183,2,1,1.1300057510015904,reldom2_s037,001,2025-03-14_14h31.35.794,What-B-Scan_AC,2022.2.5,None,
0,0.0,None,fixation,stimulus/viswhat_stim/blank_white.png,stimulus/viswhat_stim/blank_white.png,stimulus/audwhat_stim/blank_white.png,stimulus/audwhat_stim/blank_white.png,stimulus/viswhat_stim/blank_white.png,stimulus/viswhat_stim/blank_white.png,stimulus/viswhat_stim/blank_white.png,stimulus/viswhat_stim/blank_white.png,0.0,0.0,0.0,0.0,0,0.0,0,0.0,0,0.0,0,0.0,0,0.0,0.0,0,0.0,0,0.0,0,0.0,0,0.0,0,0.0,0,0.0,0,0.0,0,0.0,9,,,,,0,21,21,21,,,,,,,,,211.5234191250056,211.5234191250056,211.5234191250056,211.5234191250056,211.5234191250056,211.5234191250056,211.5234191250056,211.5234191250056,211.4242863333367,211.5234191250056,211.5234191250056,211.5234191250056,211.4242863333367,211.5234191250056,211.5234191250056,211.5234191250056,211.5234191250056,211.5234191250056,211.5234191250056,211.5234191250056,211.5234191250056,211.5234191250056,211.5234191250056,211.5234191250056,211.5234191250056,211.5234191250056,211.5234191250056,211.4742863333367,211.5234191250056,211.5234191250056,211.5234191250056,211.4742863333367,211.5234191250056,211.5234191250056,211.5234191250056,211.5234191250056,211.5234191250056,216.7530856250014,216.7530856250014,220.68291850000242,None,0,,reldom2_s037,001,2025-03-14_14h31.35.794,What-B-Scan_AC,2022.2.5,None,
17,Second_Order,3.0,audwhat,stimulus/audwhat_stim/percussion mallet_high-pitch_Ftri_loud.wav,stimulus/audwhat_stim/string cello_high-pitch_Ftri_loud.wav,stimulus/audwhat_stim/percussion mallet_low-pitch_D_loud.wav,stimulus/audwhat_stim/string viola_low-pitch_D_loud.wav,stimulus/viswhat_stim/match_blank.png,stimulus/viswhat_stim/match_box.png,stimulus/viswhat_stim/match_yes.png,stimulus/viswhat_stim/match_no.png,1.0,Match,Pitch,Pitch,1,5.125,0,5.125,0,5.125,0,5.125,0,0.75,0.75,0,0.0,0,0.0,0,0.0,0,0.0,1,0.5,1,2.125,1,0.5,1,2.125,0,,,,,0,22,22,22,,,,,,,,,220.68291850000242,225.80328262500552,220.68291850000242,220.68291850000242,220.68291850000242,220.68291850000242,221.1392737080023,222.12533050000638,221.153131416668,,222.76180462500633,223.75918591600202,222.77399641667242,,225.80328262500552,226.66626933299995,228.72658883300028,232.65785254100047,226.66626933299995,226.66626933299995,231.85263900000427,226.66626933299995,226.66626933299995,226.66626933299995,226.66626933299995,227.12338366600306,228.1765834580001,227.09401924966758,,228.72658883300028,229.78367187500407,228.6972428746706,,226.66626933299995,231.85263900000427,226.66626933299995,231.85263900000427,231.85263900000427,,226.66626933299995,1,1,0.9255737509956816,reldom2_s037,001,2025-03-14_14h31.35.794,What-B-Scan_AC,2022.2.5,None,
18,Second_Order,3.0,audwhat,stimulus/audwhat_stim/percussion mallet_high-pitch_Dtri_loud.wav,stimulus/audwhat_stim/string cello_high-pitch_Dtri_loud.wav,stimulus/audwhat_stim/string viola_low-pitch_Ftri_loud.wav,stimulus/audwhat_stim/percussion mallet_low-pitch_Ftri_loud.wav,stimulus/viswhat_stim/match_blank.png,stimulus/viswhat_stim/match_box.png,stimulus/viswhat_stim/match_yes.png,stimulus/viswhat_stim/match_no.png,1.0,Match,Pitch,Pitch,1,5.125,0,5.125,0,5.125,0,5.125,0,0.625,0.625,0,0.0,0,0.0,0,0.0,0,0.0,1,0.5,1,2.125,1,0.5,1,2.125,0,,,,,0,23,23,23,,,,,,,,,232.65785254100047,237.77955333300633,232.65785254100047,232.65785254100047,232.65785254100047,232.65785254100047,233.11850233300356,234.1163694160059,233.13077624966925,,234.73854725000274,235.73696508300054,234.75079395767196,,237.77955333300633,238.50704020800185,240.55266637500608,244.61831720800546,238.50704020800185,238.50704020800185,243.66152904100454,238.50704020800185,238.50704020800185,238.50704020800185,238.50704020800185,238.9595487080005,240.00715550000314,238.9305609166661,,240.55266637500608,241.6055142500045,240.52379449966637,,238.50704020800185,243.66152904100454,238.50704020800185,243.66152904100454,243.70177183300257,244.38907595800265,238.50704020800185,2,0,0.8605185839987826,reldom2_s037,001,2025-03-14_14h31.35.794,What-B-Scan_AC,2022.2.5,None,
0,0.0,None,fixation,stimulus/viswhat_stim/blank_white.png,stimulus/viswhat_stim/blank_white.png,stimulus/audwhat_stim/blank_white.png,stimulus/audwhat_stim/blank_white.png,stimulus/viswhat_stim/blank_white.png,stimulus/viswhat_stim/blank_white.png,stimulus/viswhat_stim/blank_white.png,stimulus/viswhat_stim/blank_white.png,0.0,0.0,0.0,0.0,0,0.0,0,0.0,0,0.0,0,0.0,0,0.0,0.0,0,0.0,0,0.0,0,0.0,0,0.0,0,0.0,0,0.0,0,0.0,0,0.0,8,,,,,0,24,24,24,,,,,,,,,244.61831720800546,244.61831720800546,244.61831720800546,244.61831720800546,244.61831720800546,244.61831720800546,244.61831720800546,244.61831720800546,244.522409291336,244.61831720800546,244.61831720800546,244.61831720800546,244.522409291336,244.61831720800546,244.61831720800546,244.61831720800546,244.61831720800546,244.61831720800546,244.61831720800546,244.61831720800546,244.61831720800546,244.61831720800546,244.61831720800546,244.61831720800546,244.61831720800546,244.61831720800546,244.61831720800546,244.572409291336,244.61831720800546,244.61831720800546,244.61831720800546,244.572409291336,244.61831720800546,244.61831720800546,244.61831720800546,244.61831720800546,244.61831720800546,249.83485083300184,249.83485083300184,252.87797216600302,None,0,,reldom2_s037,001,2025-03-14_14h31.35.794,What-B-Scan_AC,2022.2.5,None,
19,First_Order,4.0,audwhat,stimulus/audwhat_stim/dummy.wav,stimulus/audwhat_stim/dummy.wav,stimulus/audwhat_stim/percussion mallet_low-pitch_Ftri_loud.wav,stimulus/audwhat_stim/string viola_low-pitch_Ftri_loud.wav,stimulus/audwhat_stim/blank_white.png,stimulus/audwhat_stim/pitch_box.png,stimulus/audwhat_stim/pitch_yes.png,stimulus/audwhat_stim/pitch_no.png,None,Pitch,None,Pitch,1,0.0,0,5.125,0,5.125,0,5.125,0,0.0,0.625,0,0.0,0,0.0,0,0.0,0,0.0,0,0.0,0,0.0,1,0.5,1,2.125,0,,,,,0,25,25,25,,,,,,,,,252.87797216600302,252.87797216600302,252.87797216600302,252.87797216600302,252.87797216600302,252.87797216600302,252.87797216600302,252.87797216600302,252.80696412467177,252.87797216600302,252.87797216600302,252.87797216600302,252.80696412467177,252.87797216600302,252.87797216600302,252.87797216600302,254.94844233299955,,252.87797216600302,252.87797216600302,258.04043483300484,252.87797216600302,252.87797216600302,252.87797216600302,252.87797216600302,253.3373381660058,254.39629362500273,253.3077410416702,,254.94844233299955,256.01054025000485,254.918706166671,,252.87797216600302,258.04043483300484,252.87797216600302,258.04043483300484,258.0814689580002,258.7325367500016,252.87797216600302,1,1,1.3765192509963526,reldom2_s037,001,2025-03-14_14h31.35.794,What-B-Scan_AC,2022.2.5,None,
20,First_Order,4.0,audwhat,stimulus/audwhat_stim/dummy.wav,stimulus/audwhat_stim/dummy.wav,stimulus/audwhat_stim/string viola_low-pitch_F_loud.wav,stimulus/audwhat_stim/string cello_high-pitch_Ftri_loud.wav,stimulus/audwhat_stim/blank_white.png,stimulus/audwhat_stim/category_box.png,stimulus/audwhat_stim/category_yes.png,stimulus/audwhat_stim/category_no.png,None,Category,None,Category,1,0.0,0,5.125,0,5.125,0,5.125,0,0.0,0.625,0,0.0,0,0.0,0,0.0,0,0.0,0,0.0,0,0.0,1,0.5,1,2.125,0,,,,,0,26,26,26,,,,,,,,,258.98501929100166,258.98501929100166,258.98501929100166,258.98501929100166,258.98501929100166,258.98501929100166,258.98501929100166,258.98501929100166,258.9063543333342,258.98501929100166,258.98501929100166,258.98501929100166,258.9063543333342,258.98501929100166,258.98501929100166,258.98501929100166,261.07502979100536,,258.98501929100166,258.98501929100166,264.1396089580012,258.98501929100166,258.98501929100166,258.98501929100166,258.98501929100166,259.450930125,260.519037500002,259.42041541666936,,261.07502979100536,262.1440231660017,261.0458863746719,,258.98501929100166,264.1396089580012,258.98501929100166,264.1396089580012,264.1807800000024,264.831847458001,258.98501929100166,1,1,0.5479078749995097,reldom2_s037,001,2025-03-14_14h31.35.794,What-B-Scan_AC,2022.2.5,None,
21,First_Order,4.0,audwhat,stimulus/audwhat_stim/dummy.wav,stimulus/audwhat_stim/dummy.wav,stimulus/audwhat_stim/string viola_high-pitch_F_loud.wav,stimulus/audwhat_stim/percussion mallet_high-pitch_F_loud.wav,stimulus/audwhat_stim/blank_white.png,stimulus/audwhat_stim/category_box.png,stimulus/audwhat_stim/category_yes.png,stimulus/audwhat_stim/category_no.png,None,Category,None,Pitch,2,0.0,0,5.125,0,5.125,0,5.125,0,0.0,0.625,0,0.0,0,0.0,0,0.0,0,0.0,0,0.0,0,0.0,1,0.5,1,2.125,0,,,,,0,27,27,27,,,,,,,,,265.0846275410004,265.0846275410004,265.0846275410004,265.0846275410004,265.0846275410004,265.0846275410004,265.0846275410004,265.0846275410004,265.0057857913363,265.0846275410004,265.0846275410004,265.0846275410004,265.0057857913363,265.0846275410004,265.0846275410004,265.0846275410004,267.1715584160047,,265.0846275410004,265.0846275410004,270.23627750000014,265.0846275410004,265.0846275410004,265.0846275410004,265.0846275410004,265.54775966600573,266.6149064160054,265.51785758266874,,267.1715584160047,268.2442164580061,267.1415502916682,,265.0846275410004,270.23627750000014,265.0846275410004,270.23627750000014,270.2775473750007,270.929650500002,265.0846275410004,2,1,0.1989177929935977,reldom2_s037,001,2025-03-14_14h31.35.794,What-B-Scan_AC,2022.2.5,None,
22,First_Order,4.0,audwhat,stimulus/audwhat_stim/dummy.wav,stimulus/audwhat_stim/dummy.wav,stimulus/audwhat_stim/percussion xylophone_high-pitch_D_loud.wav,stimulus/audwhat_stim/percussion mallet_low-pitch_F_loud.wav,stimulus/audwhat_stim/blank_white.png,stimulus/audwhat_stim/pitch_box.png,stimulus/audwhat_stim/pitch_yes.png,stimulus/audwhat_stim/pitch_no.png,None,Pitch,None,Category,2,0.0,0,5.125,0,5.125,0,5.125,0,0.0,0.625,0,0.0,0,0.0,0,0.0,0,0.0,0,0.0,0,0.0,1,0.5,1,2.125,0,,,,,0,28,28,28,,,,,,,,,271.1836144580011,271.1836144580011,271.1836144580011,271.1836144580011,271.1836144580011,271.1836144580011,271.1836144580011,271.1836144580011,271.10296816633684,271.1836144580011,271.1836144580011,271.1836144580011,271.10296816633684,271.1836144580011,271.1836144580011,271.1836144580011,273.26980066599936,,271.1836144580011,271.1836144580011,276.36992929100234,271.1836144580011,271.1836144580011,271.1836144580011,271.1836144580011,271.6464143750054,272.71398116600176,271.6166914996686,272.66762545800157,273.26980066599936,274.34023062500637,273.24002624967056,,271.1836144580011,276.36992929100234,271.1836144580011,276.36992929100234,276.41117154100357,277.0627166250051,271.1836144580011,2,1,0.6899316670023836,reldom2_s037,001,2025-03-14_14h31.35.794,What-B-Scan_AC,2022.2.5,None,
0,0.0,None,fixation,stimulus/viswhat_stim/blank_white.png,stimulus/viswhat_stim/blank_white.png,stimulus/audwhat_stim/blank_white.png,stimulus/audwhat_stim/blank_white.png,stimulus/viswhat_stim/blank_white.png,stimulus/viswhat_stim/blank_white.png,stimulus/viswhat_stim/blank_white.png,stimulus/viswhat_stim/blank_white.png,0.0,0.0,0.0,0.0,0,0.0,0,0.0,0,0.0,0,0.0,0,0.0,0.0,0,0.0,0,0.0,0,0.0,0,0.0,0,0.0,0,0.0,0,0.0,0,0.0,10,,,,,0,29,29,29,,,,,,,,,277.2938936249993,277.2938936249993,277.2938936249993,277.2938936249993,277.2938936249993,277.2938936249993,277.2938936249993,277.2938936249993,277.19604995833845,277.2938936249993,277.2938936249993,277.2938936249993,277.19604995833845,277.2938936249993,277.2938936249993,277.2938936249993,277.2938936249993,277.2938936249993,277.2938936249993,277.2938936249993,277.2938936249993,277.2938936249993,277.2938936249993,277.2938936249993,277.2938936249993,277.2938936249993,277.2938936249993,277.24604995833846,277.2938936249993,277.2938936249993,277.2938936249993,277.24604995833846,277.2938936249993,277.2938936249993,277.2938936249993,277.2938936249993,277.2938936249993,282.51940495800227,282.51940495800227,287.46188062500005,None,0,,reldom2_s037,001,2025-03-14_14h31.35.794,What-B-Scan_AC,2022.2.5,None,
23,Second_Order,4.0,audwhat,stimulus/audwhat_stim/percussion mallet_high-pitch_Ftri_loud.wav,stimulus/audwhat_stim/percussion mallet_low-pitch_Dtri_loud.wav,stimulus/audwhat_stim/percussion mallet_high-pitch_D_loud.wav,stimulus/audwhat_stim/string viola_high-pitch_D_loud.wav,stimulus/viswhat_stim/match_blank.png,stimulus/viswhat_stim/match_box.png,stimulus/viswhat_stim/match_yes.png,stimulus/viswhat_stim/match_no.png,2.0,Match,Category,Pitch,2,5.125,0,5.125,0,5.125,0,5.125,0,0.75,0.75,0,0.0,0,0.0,0,0.0,0,0.0,1,0.5,1,2.125,1,0.5,1,2.125,0,,,,,0,30,30,30,,,,,,,,,287.46188062500005,292.5847467910062,287.46188062500005,287.46188062500005,287.46188062500005,287.46188062500005,287.910619166003,288.909469875005,287.9236200416674,,289.54442612500134,290.5333995830006,289.5481214996728,,292.5847467910062,293.43710779100365,295.50261508300173,,293.43710779100365,293.43710779100365,298.592660291004,293.43710779100365,293.43710779100365,293.43710779100365,293.43710779100365,293.8949638750055,294.9501984580056,293.8653711666668,,295.50261508300173,296.5667813330001,295.4734992076667,,293.43710779100365,298.592660291004,293.43710779100365,298.592660291004,298.63380275000236,,293.43710779100365,2,1,0.6760937090002699,reldom2_s037,001,2025-03-14_14h31.35.794,What-B-Scan_AC,2022.2.5,None,
24,Second_Order,4.0,audwhat,stimulus/audwhat_stim/string viola_high-pitch_Dtri_loud.wav,stimulus/audwhat_stim/percussion mallet_high-pitch_Dtri_loud.wav,stimulus/audwhat_stim/string cello_low-pitch_Dtri_loud.wav,stimulus/audwhat_stim/string viola_high-pitch_Ftri_loud.wav,stimulus/viswhat_stim/match_blank.png,stimulus/viswhat_stim/match_box.png,stimulus/viswhat_stim/match_yes.png,stimulus/viswhat_stim/match_no.png,2.0,Match,Pitch,Category,2,5.125,0,5.125,0,5.125,0,5.125,0,0.625,0.625,0,0.0,0,0.0,0,0.0,0,0.0,1,0.5,1,2.125,1,0.5,1,2.125,0,,,,,0,31,31,31,,,,,,,,,299.40058745800343,304.5173641250003,299.40058745800343,299.40058745800343,299.40058745800343,299.40058745800343,299.8534878749997,300.8403810830059,299.8678614576677,,301.475981333002,302.47434525000426,301.4885131246667,,304.5173641250003,305.2481574160047,307.2988392080006,,305.2481574160047,305.2481574160047,310.41306462500506,305.2481574160047,305.2481574160047,305.2481574160047,305.2481574160047,305.7017769580052,306.7513830829994,305.6727755416689,,307.2988392080006,308.35504745800426,307.2699373746693,,305.2481574160047,310.41306462500506,305.2481574160047,310.41306462500506,310.41306462500506,311.0985901250024,305.2481574160047,2,1,0.947635624994291,reldom2_s037,001,2025-03-14_14h31.35.794,What-B-Scan_AC,2022.2.5,None,
0,0.0,None,fixation,stimulus/viswhat_stim/blank_white.png,stimulus/viswhat_stim/blank_white.png,stimulus/audwhat_stim/blank_white.png,stimulus/audwhat_stim/blank_white.png,stimulus/viswhat_stim/blank_white.png,stimulus/viswhat_stim/blank_white.png,stimulus/viswhat_stim/blank_white.png,stimulus/viswhat_stim/blank_white.png,0.0,0.0,0.0,0.0,0,0.0,0,0.0,0,0.0,0,0.0,0,0.0,0.0,0,0.0,0,0.0,0,0.0,0,0.0,0,0.0,0,0.0,0,0.0,0,0.0,9,,,,,0,32,32,32,,,,,,,,,311.3292779160038,311.3292779160038,311.3292779160038,311.3292779160038,311.3292779160038,311.3292779160038,311.3292779160038,311.3292779160038,311.2319234583357,311.3292779160038,311.3292779160038,311.3292779160038,311.2319234583357,311.3292779160038,311.3292779160038,311.3292779160038,311.3292779160038,311.3292779160038,311.3292779160038,311.3292779160038,311.3292779160038,311.3292779160038,311.3292779160038,311.3292779160038,311.3292779160038,311.3292779160038,311.3292779160038,311.2819234583357,311.3292779160038,311.3292779160038,311.3292779160038,311.2819234583357,311.3292779160038,311.3292779160038,311.3292779160038,311.3292779160038,311.3292779160038,316.51291708300414,316.51291708300414,320.6011911250025,None,0,,reldom2_s037,001,2025-03-14_14h31.35.794,What-B-Scan_AC,2022.2.5,None,
25,First_Order,5.0,viswhat,stimulus/viswhat_stim/blank_white.png,stimulus/viswhat_stim/blank_white.png,stimulus/viswhat_stim/land_animal-elephant.png,stimulus/viswhat_stim/land_vehicle-firetruck.png,stimulus/viswhat_stim/blank_white.png,stimulus/viswhat_stim/location_box.png,stimulus/viswhat_stim/location_yes.png,stimulus/viswhat_stim/location_no.png,None,Location,None,Location,1,0.0,0,5.125,0,5.125,0,5.125,0,0.0,0.625,0,0.0,0,0.0,1,0.5,1,2.125,0,0.0,0,0.0,0,0.0,0,0.0,0,,,,,0,33,33,33,,,,,,,,,320.6011911250025,320.6011911250025,320.6011911250025,320.6011911250025,320.6011911250025,320.6011911250025,320.6011911250025,320.6011911250025,320.5015794996676,320.6011911250025,320.6011911250025,320.6011911250025,320.5015794996676,320.6011911250025,320.6011911250025,320.6011911250025,322.67196154100384,,320.6011911250025,320.6011911250025,325.8045403330034,321.0722014999992,322.13828054100304,322.67196154100384,323.7397805830042,320.6011911250025,320.6011911250025,320.55157949966764,320.6011911250025,320.6011911250025,320.6011911250025,320.55157949966764,320.6011911250025,320.6011911250025,325.8045403330034,320.6011911250025,325.8045403330034,325.8045403330034,326.6354391660061,320.6011911250025,1,1,0.8452848749948316,reldom2_s037,001,2025-03-14_14h31.35.794,What-B-Scan_AC,2022.2.5,None,
26,First_Order,5.0,viswhat,stimulus/viswhat_stim/blank_white.png,stimulus/viswhat_stim/blank_white.png,stimulus/viswhat_stim/land_vehicle-tank.png,stimulus/viswhat_stim/land_animal-pig.png,stimulus/viswhat_stim/blank_white.png,stimulus/viswhat_stim/type_box.png,stimulus/viswhat_stim/type_yes.png,stimulus/viswhat_stim/type_no.png,None,Type,None,Location,2,0.0,0,5.125,0,5.125,0,5.125,0,0.0,0.625,0,0.0,0,0.0,1,0.5,1,2.125,0,0.0,0,0.0,0,0.0,0,0.0,0,,,,,0,34,34,34,,,,,,,,,326.6354391660061,326.6354391660061,326.6354391660061,326.6354391660061,326.6354391660061,326.6354391660061,326.6354391660061,326.6354391660061,326.611765041666,326.6354391660061,326.6354391660061,326.6354391660061,326.611765041666,326.6354391660061,326.6354391660061,326.6354391660061,328.7297184160052,332.8005101660019,326.6354391660061,326.6354391660061,331.76849125000444,327.11497591600346,328.11994887500623,328.7297184160052,329.7372067079996,326.6354391660061,326.6354391660061,326.6284317083327,326.6354391660061,326.6354391660061,326.6354391660061,326.6284317083327,326.6354391660061,326.6354391660061,331.76849125000444,326.6354391660061,331.76849125000444,331.8514460830047,332.4785067080011,326.6354391660061,2,1,0.7315694170029019,reldom2_s037,001,2025-03-14_14h31.35.794,What-B-Scan_AC,2022.2.5,None,
27,First_Order,5.0,viswhat,stimulus/viswhat_stim/blank_white.png,stimulus/viswhat_stim/blank_white.png,stimulus/viswhat_stim/land_animal-moose.png,stimulus/viswhat_stim/land_vehicle-vespa.png,stimulus/viswhat_stim/blank_white.png,stimulus/viswhat_stim/location_box.png,stimulus/viswhat_stim/location_yes.png,stimulus/viswhat_stim/location_no.png,None,Location,None,Location,1,0.0,0,5.125,0,5.125,0,5.125,0,0.0,0.625,0,0.0,0,0.0,1,0.5,1,2.125,0,0.0,0,0.0,0,0.0,0,0.0,0,,,,,0,35,35,35,,,,,,,,,332.8005101660019,332.8005101660019,332.8005101660019,332.8005101660019,332.8005101660019,332.8005101660019,332.8005101660019,332.8005101660019,332.6787646663336,332.8005101660019,332.8005101660019,332.8005101660019,332.6787646663336,332.8005101660019,332.8005101660019,332.8005101660019,334.8784297910024,,332.8005101660019,332.8005101660019,338.0201942910062,333.2684624160029,334.3439640830038,334.8784297910024,335.9514380410037,332.8005101660019,332.8005101660019,332.7454313330003,332.8005101660019,332.8005101660019,332.8005101660019,332.7454313330003,332.8005101660019,332.8005101660019,338.0201942910062,332.8005101660019,338.0201942910062,338.0201942910062,338.90409254100086,332.8005101660019,1,1,0.7106347090011695,reldom2_s037,001,2025-03-14_14h31.35.794,What-B-Scan_AC,2022.2.5,None,
28,First_Order,5.0,viswhat,stimulus/viswhat_stim/blank_white.png,stimulus/viswhat_stim/blank_white.png,stimulus/viswhat_stim/land_animal-giraffe.png,stimulus/viswhat_stim/water_animal-squid.png,stimulus/viswhat_stim/blank_white.png,stimulus/viswhat_stim/location_box.png,stimulus/viswhat_stim/location_yes.png,stimulus/viswhat_stim/location_no.png,None,Location,None,Type,2,0.0,0,5.125,0,5.125,0,5.125,0,0.0,0.625,0,0.0,0,0.0,1,0.5,1,2.125,0,0.0,0,0.0,0,0.0,0,0.0,0,,,,,0,36,36,36,,,,,,,,,338.90409254100086,338.90409254100086,338.90409254100086,338.90409254100086,338.90409254100086,338.90409254100086,338.90409254100086,338.90409254100086,338.8141837493376,338.90409254100086,338.90409254100086,338.90409254100086,338.8141837493376,338.90409254100086,338.90409254100086,338.90409254100086,340.99857266600156,,338.90409254100086,338.90409254100086,344.08194087500306,339.3451836250024,340.39374741600477,340.99857266600156,342.04923987499933,338.90409254100086,338.90409254100086,338.86418374933754,338.90409254100086,338.90409254100086,338.90409254100086,338.86418374933754,338.90409254100086,338.90409254100086,344.08194087500306,338.90409254100086,344.08194087500306,344.1314315000054,345.02661920800165,338.90409254100086,2,1,0.830031459001475,reldom2_s037,001,2025-03-14_14h31.35.794,What-B-Scan_AC,2022.2.5,None,
0,0.0,None,fixation,stimulus/viswhat_stim/blank_white.png,stimulus/viswhat_stim/blank_white.png,stimulus/audwhat_stim/blank_white.png,stimulus/audwhat_stim/blank_white.png,stimulus/viswhat_stim/blank_white.png,stimulus/viswhat_stim/blank_white.png,stimulus/viswhat_stim/blank_white.png,stimulus/viswhat_stim/blank_white.png,0.0,0.0,0.0,0.0,0,0.0,0,0.0,0,0.0,0,0.0,0,0.0,0.0,0,0.0,0,0.0,0,0.0,0,0.0,0,0.0,0,0.0,0,0.0,0,0.0,9,,,,,0,37,37,37,,,,,,,,,345.02661920800165,345.02661920800165,345.02661920800165,345.02661920800165,345.02661920800165,345.02661920800165,345.02661920800165,345.02661920800165,344.92306308300465,345.02661920800165,345.02661920800165,345.02661920800165,344.92306308300465,345.02661920800165,345.02661920800165,345.02661920800165,345.02661920800165,345.02661920800165,345.02661920800165,345.02661920800165,345.02661920800165,345.02661920800165,345.02661920800165,345.02661920800165,345.02661920800165,345.02661920800165,345.02661920800165,344.97306308300466,345.02661920800165,345.02661920800165,345.02661920800165,344.97306308300466,345.02661920800165,345.02661920800165,345.02661920800165,345.02661920800165,345.02661920800165,350.20943575000274,350.20943575000274,354.1800987500028,None,0,,reldom2_s037,001,2025-03-14_14h31.35.794,What-B-Scan_AC,2022.2.5,None,
29,Second_Order,5.0,viswhat,stimulus/viswhat_stim/water_vehicle-pirateship.png,stimulus/viswhat_stim/land_vehicle-schoolbus.png,stimulus/viswhat_stim/water_animal-dolphin.png,stimulus/viswhat_stim/land_animal-cat.png,stimulus/viswhat_stim/match_blank.png,stimulus/viswhat_stim/match_box.png,stimulus/viswhat_stim/match_yes.png,stimulus/viswhat_stim/match_no.png,1.0,Match,Type,Type,1,5.125,0,5.125,0,5.125,0,5.125,0,0.75,0.75,1,0.5,1,2.125,1,0.5,1,2.125,0,0.0,0,0.0,0,0.0,0,0.0,0,,,,,0,38,38,38,,,,,,,,,354.1800987500028,359.2935066249993,354.6490030410059,355.64733250000427,356.270200166,357.2675870410021,354.1800987500028,354.1800987500028,354.1860897493335,354.1800987500028,354.1800987500028,354.1800987500028,354.1860897493335,354.1800987500028,359.2935066249993,360.1162460830019,362.1977583330008,366.1484955000051,360.1162460830019,360.1162460830019,365.2736917910006,360.5638198750021,361.58787504100474,362.1977583330008,363.2262827500017,360.1162460830019,360.1162460830019,360.0946351666726,360.1162460830019,360.1162460830019,360.1162460830019,360.0946351666726,360.1162460830019,360.1162460830019,365.2736917910006,360.1162460830019,365.2736917910006,365.3002294580001,,360.1162460830019,1,1,0.7920681260002311,reldom2_s037,001,2025-03-14_14h31.35.794,What-B-Scan_AC,2022.2.5,None,
30,Second_Order,5.0,viswhat,stimulus/viswhat_stim/water_animal-orka.png,stimulus/viswhat_stim/land_animal-bunny.png,stimulus/viswhat_stim/land_vehicle-motorcycle.png,stimulus/viswhat_stim/water_vehicle-motorboatraft.png,stimulus/viswhat_stim/match_blank.png,stimulus/viswhat_stim/match_box.png,stimulus/viswhat_stim/match_yes.png,stimulus/viswhat_stim/match_no.png,1.0,Match,Type,Type,1,5.125,0,5.125,0,5.125,0,5.125,0,0.625,0.625,1,0.5,1,2.125,1,0.5,1,2.125,0,0.0,0,0.0,0,0.0,0,0.0,0,,,,,0,39,39,39,,,,,,,,,366.1484955000051,371.2705572910054,366.5578668330054,367.5445836660001,368.17996445800236,369.1781289999999,366.1484955000051,366.1484955000051,366.1475969993354,366.1484955000051,366.1484955000051,366.1484955000051,366.1475969993354,366.1484955000051,371.2705572910054,371.96148354100296,374.03272270800517,378.08912441600114,371.96148354100296,371.96148354100296,377.1147847079992,372.40394441600074,373.43968983300147,374.03272270800517,375.0707460000049,371.96148354100296,371.96148354100296,371.9346287500055,371.96148354100296,371.96148354100296,371.96148354100296,371.9346287500055,371.96148354100296,371.96148354100296,377.1147847079992,371.96148354100296,377.1147847079992,377.1628252080045,377.8121553750025,371.96148354100296,1,1,1.0687034169968683,reldom2_s037,001,2025-03-14_14h31.35.794,What-B-Scan_AC,2022.2.5,None,
0,0.0,None,fixation,stimulus/viswhat_stim/blank_white.png,stimulus/viswhat_stim/blank_white.png,stimulus/audwhat_stim/blank_white.png,stimulus/audwhat_stim/blank_white.png,stimulus/viswhat_stim/blank_white.png,stimulus/viswhat_stim/blank_white.png,stimulus/viswhat_stim/blank_white.png,stimulus/viswhat_stim/blank_white.png,0.0,0.0,0.0,0.0,0,0.0,0,0.0,0,0.0,0,0.0,0,0.0,0.0,0,0.0,0,0.0,0,0.0,0,0.0,0,0.0,0,0.0,0,0.0,0,0.0,9,,,,,0,40,40,40,,,,,,,,,378.08912441600114,378.08912441600114,378.08912441600114,378.08912441600114,378.08912441600114,378.08912441600114,378.08912441600114,378.08912441600114,377.9835930000059,378.08912441600114,378.08912441600114,378.08912441600114,377.9835930000059,378.08912441600114,378.08912441600114,378.08912441600114,378.08912441600114,378.08912441600114,378.08912441600114,378.08912441600114,378.08912441600114,378.08912441600114,378.08912441600114,378.08912441600114,378.08912441600114,378.08912441600114,378.08912441600114,378.05025966667256,378.08912441600114,378.08912441600114,378.08912441600114,378.05025966667256,378.08912441600114,378.08912441600114,378.08912441600114,378.08912441600114,378.08912441600114,383.28818745800527,383.28818745800527,387.3742222910005,None,0,,reldom2_s037,001,2025-03-14_14h31.35.794,What-B-Scan_AC,2022.2.5,None,
31,First_Order,6.0,viswhat,stimulus/viswhat_stim/blank_white.png,stimulus/viswhat_stim/blank_white.png,stimulus/viswhat_stim/water_vehicle-ship.png,stimulus/viswhat_stim/land_vehicle-schoolbus.png,stimulus/viswhat_stim/blank_white.png,stimulus/viswhat_stim/location_box.png,stimulus/viswhat_stim/location_yes.png,stimulus/viswhat_stim/location_no.png,None,Location,None,Type,2,0.0,0,5.125,0,5.125,0,5.125,0,0.0,0.625,0,0.0,0,0.0,1,0.5,1,2.125,0,0.0,0,0.0,0,0.0,0,0.0,0,,,,,0,41,41,41,,,,,,,,,387.3742222910005,387.3742222910005,387.3742222910005,387.3742222910005,387.3742222910005,387.3742222910005,387.3742222910005,387.3742222910005,387.272883916669,387.3742222910005,387.3742222910005,387.3742222910005,387.272883916669,387.3742222910005,387.3742222910005,387.3742222910005,389.4750490410006,393.4502804580043,387.3742222910005,387.3742222910005,392.53690458300116,387.8551015000048,388.9349300829999,389.4750490410006,390.55863775000034,387.3742222910005,387.3742222910005,387.322883916669,387.3742222910005,387.3742222910005,387.3742222910005,387.322883916669,387.3742222910005,387.3742222910005,392.53690458300116,387.3742222910005,392.53690458300116,392.59174783300114,393.4502804580043,387.3742222910005,2,1,1.3313232500004233,reldom2_s037,001,2025-03-14_14h31.35.794,What-B-Scan_AC,2022.2.5,None,
32,First_Order,6.0,viswhat,stimulus/viswhat_stim/blank_white.png,stimulus/viswhat_stim/blank_white.png,stimulus/viswhat_stim/land_vehicle-bus.png,stimulus/viswhat_stim/water_vehicle-jetski.png,stimulus/viswhat_stim/blank_white.png,stimulus/viswhat_stim/type_box.png,stimulus/viswhat_stim/type_yes.png,stimulus/viswhat_stim/type_no.png,None,Type,None,Type,1,0.0,0,5.125,0,5.125,0,5.125,0,0.0,0.625,0,0.0,0,0.0,1,0.5,1,2.125,0,0.0,0,0.0,0,0.0,0,0.0,0,,,,,0,42,42,42,,,,,,,,,393.4502804580043,393.4502804580043,393.4502804580043,393.4502804580043,393.4502804580043,393.4502804580043,393.4502804580043,393.4502804580043,393.4113189576698,393.4502804580043,393.4502804580043,393.4502804580043,393.4113189576698,393.4502804580043,393.4502804580043,393.4502804580043,395.5642807500044,,393.4502804580043,393.4502804580043,398.58715720799955,393.91604079100216,394.9278826660011,395.5642807500044,396.58725433300424,393.4502804580043,393.4502804580043,393.4279856243365,393.4502804580043,393.4502804580043,393.4502804580043,393.4279856243365,393.4502804580043,393.4502804580043,398.58715720799955,393.4502804580043,398.58715720799955,398.65718337500584,399.28833495800063,393.4502804580043,1,1,0.9065911259967834,reldom2_s037,001,2025-03-14_14h31.35.794,What-B-Scan_AC,2022.2.5,None,
33,First_Order,6.0,viswhat,stimulus/viswhat_stim/blank_white.png,stimulus/viswhat_stim/blank_white.png,stimulus/viswhat_stim/water_animal-seahorse.png,stimulus/viswhat_stim/water_vehicle-cabincruiser.png,stimulus/viswhat_stim/blank_white.png,stimulus/viswhat_stim/type_box.png,stimulus/viswhat_stim/type_yes.png,stimulus/viswhat_stim/type_no.png,None,Type,None,Location,2,0.0,0,5.125,0,5.125,0,5.125,0,0.0,0.625,0,0.0,0,0.0,1,0.5,1,2.125,0,0.0,0,0.0,0,0.0,0,0.0,0,,,,,0,43,43,43,,,,,,,,,399.53671762500016,399.53671762500016,399.53671762500016,399.53671762500016,399.53671762500016,399.53671762500016,399.53671762500016,399.53671762500016,399.48140754100456,399.53671762500016,399.53671762500016,399.53671762500016,399.48140754100456,399.53671762500016,399.53671762500016,399.53671762500016,401.6413946660032,405.64301474999957,399.53671762500016,399.53671762500016,404.68218979100493,400.0217999160013,401.0564917080046,401.6413946660032,402.68198395800573,399.53671762500016,399.53671762500016,399.5147408743379,399.53671762500016,399.53671762500016,399.53671762500016,399.5147408743379,399.53671762500016,399.53671762500016,404.68218979100493,399.53671762500016,404.68218979100493,404.74004091600364,405.40250033300254,399.53671762500016,2,1,1.338929334000568,reldom2_s037,001,2025-03-14_14h31.35.794,What-B-Scan_AC,2022.2.5,None,
34,First_Order,6.0,viswhat,stimulus/viswhat_stim/blank_white.png,stimulus/viswhat_stim/blank_white.png,stimulus/viswhat_stim/land_animal-tiger.png,stimulus/viswhat_stim/water_animal-octopus.png,stimulus/viswhat_stim/blank_white.png,stimulus/viswhat_stim/type_box.png,stimulus/viswhat_stim/type_yes.png,stimulus/viswhat_stim/type_no.png,None,Type,None,Type,1,0.0,0,5.125,0,5.125,0,5.125,0,0.0,0.625,0,0.0,0,0.0,1,0.5,1,2.125,0,0.0,0,0.0,0,0.0,0,0.0,0,,,,,0,44,44,44,,,,,,,,,405.64301474999957,405.64301474999957,405.64301474999957,405.64301474999957,405.64301474999957,405.64301474999957,405.64301474999957,405.64301474999957,405.5764573746691,405.64301474999957,405.64301474999957,405.64301474999957,405.5764573746691,405.64301474999957,405.64301474999957,405.64301474999957,407.749681375004,411.77973754100094,405.64301474999957,405.64301474999957,410.80367225000373,406.1173042500013,407.14998041600484,407.749681375004,408.7826576660009,405.64301474999957,405.64301474999957,405.6097907080024,405.64301474999957,405.64301474999957,405.64301474999957,405.6097907080024,405.64301474999957,405.64301474999957,410.80367225000373,405.64301474999957,410.80367225000373,410.84155087500403,411.51391262499965,405.64301474999957,1,1,1.430234917002963,reldom2_s037,001,2025-03-14_14h31.35.794,What-B-Scan_AC,2022.2.5,None,
0,0.0,None,fixation,stimulus/viswhat_stim/blank_white.png,stimulus/viswhat_stim/blank_white.png,stimulus/audwhat_stim/blank_white.png,stimulus/audwhat_stim/blank_white.png,stimulus/viswhat_stim/blank_white.png,stimulus/viswhat_stim/blank_white.png,stimulus/viswhat_stim/blank_white.png,stimulus/viswhat_stim/blank_white.png,0.0,0.0,0.0,0.0,0,0.0,0,0.0,0,0.0,0,0.0,0,0.0,0.0,0,0.0,0,0.0,0,0.0,0,0.0,0,0.0,0,0.0,0,0.0,0,0.0,8,,,,,0,45,45,45,,,,,,,,,411.77973754100094,411.77973754100094,411.77973754100094,411.77973754100094,411.77973754100094,411.77973754100094,411.77973754100094,411.77973754100094,411.68476374933573,411.77973754100094,411.77973754100094,411.77973754100094,411.68476374933573,411.77973754100094,411.77973754100094,411.77973754100094,411.77973754100094,411.77973754100094,411.77973754100094,411.77973754100094,411.77973754100094,411.77973754100094,411.77973754100094,411.77973754100094,411.77973754100094,411.77973754100094,411.77973754100094,411.73476374933574,411.77973754100094,411.77973754100094,411.77973754100094,411.73476374933574,411.77973754100094,411.77973754100094,411.77973754100094,411.77973754100094,411.77973754100094,417.0098893329996,417.0098893329996,419.9084311250044,None,0,,reldom2_s037,001,2025-03-14_14h31.35.794,What-B-Scan_AC,2022.2.5,None,
35,Second_Order,6.0,viswhat,stimulus/viswhat_stim/land_animal-wolf.png,stimulus/viswhat_stim/land_vehicle-schoolbus.png,stimulus/viswhat_stim/water_animal-shark.png,stimulus/viswhat_stim/water_vehicle-ship.png,stimulus/viswhat_stim/match_blank.png,stimulus/viswhat_stim/match_box.png,stimulus/viswhat_stim/match_yes.png,stimulus/viswhat_stim/match_no.png,1.0,Match,Location,Location,1,5.125,0,5.125,0,5.125,0,5.125,0,0.75,0.75,1,0.5,1,2.125,1,0.5,1,2.125,0,0.0,0,0.0,0,0.0,0,0.0,0,,,,,0,46,46,46,,,,,,,,,419.9084311250044,425.0284032080017,420.38352795800165,421.3820618750033,422.0060659580049,423.00254687500274,419.9084311250044,419.9084311250044,419.9159088743346,419.9084311250044,419.9084311250044,419.9084311250044,419.9159088743346,419.9084311250044,425.0284032080017,425.927310250001,427.9411135830014,,425.927310250001,425.927310250001,431.13779291600076,426.3429657910019,427.4544221250035,427.9411135830014,429.05362858300214,425.927310250001,425.927310250001,425.86205829100214,425.927310250001,425.927310250001,425.927310250001,425.86205829100214,425.927310250001,425.927310250001,431.13779291600076,425.927310250001,431.13779291600076,431.0739731249996,,425.927310250001,1,1,2.128141417000734,reldom2_s037,001,2025-03-14_14h31.35.794,What-B-Scan_AC,2022.2.5,None,
36,Second_Order,6.0,viswhat,stimulus/viswhat_stim/land_vehicle-oldcar.png,stimulus/viswhat_stim/land_animal-cat.png,stimulus/viswhat_stim/water_vehicle-cargoboat.png,stimulus/viswhat_stim/water_animal-orka.png,stimulus/viswhat_stim/match_blank.png,stimulus/viswhat_stim/match_box.png,stimulus/viswhat_stim/match_yes.png,stimulus/viswhat_stim/match_no.png,1.0,Match,Location,Location,1,5.125,0,5.125,0,5.125,0,5.125,0,0.625,0.625,1,0.5,1,2.125,1,0.5,1,2.125,0,0.0,0,0.0,0,0.0,0,0.0,0,,,,,0,47,47,47,,,,,,,,,431.8805315000063,437.0022963330048,432.3280102909994,433.32691166600125,433.9613705410011,434.95151791600074,431.8805315000063,431.8805315000063,431.87950616667024,431.8805315000063,431.8805315000063,431.8805315000063,431.87950616667024,431.8805315000063,437.0022963330048,437.781302166004,439.80832383300003,443.8985839580055,437.781302166004,437.781302166004,442.95969920800417,438.17292295800144,439.2841870830016,439.80832383300003,440.861357875001,437.781302166004,437.781302166004,437.71992533300505,437.781302166004,437.781302166004,437.781302166004,437.71992533300505,437.781302166004,437.781302166004,442.95969920800417,437.781302166004,442.95969920800417,442.95969920800417,443.8985839580055,437.781302166004,1,1,0.8124877090012887,reldom2_s037,001,2025-03-14_14h31.35.794,What-B-Scan_AC,2022.2.5,None,
0,0.0,None,fixation,stimulus/viswhat_stim/blank_white.png,stimulus/viswhat_stim/blank_white.png,stimulus/audwhat_stim/blank_white.png,stimulus/audwhat_stim/blank_white.png,stimulus/viswhat_stim/blank_white.png,stimulus/viswhat_stim/blank_white.png,stimulus/viswhat_stim/blank_white.png,stimulus/viswhat_stim/blank_white.png,0.0,0.0,0.0,0.0,0,0.0,0,0.0,0,0.0,0,0.0,0,0.0,0.0,0,0.0,0,0.0,0,0.0,0,0.0,0,0.0,0,0.0,0,0.0,0,0.0,10,,,,,0,48,48,48,,,,,,,,,443.8985839580055,443.8985839580055,443.8985839580055,443.8985839580055,443.8985839580055,443.8985839580055,443.8985839580055,443.8985839580055,443.8028644583382,443.8985839580055,443.8985839580055,443.8985839580055,443.8028644583382,443.8985839580055,443.8985839580055,443.8985839580055,443.8985839580055,443.8985839580055,443.8985839580055,443.8985839580055,443.8985839580055,443.8985839580055,443.8985839580055,443.8985839580055,443.8985839580055,443.8985839580055,443.8985839580055,443.85286445833816,443.8985839580055,443.8985839580055,443.8985839580055,443.85286445833816,443.8985839580055,443.8985839580055,443.8985839580055,443.8985839580055,443.8985839580055,449.09028283299995,449.09028283299995,454.16281300000264,None,0,,reldom2_s037,001,2025-03-14_14h31.35.794,What-B-Scan_AC,2022.2.5,None,
37,First_Order,7.0,audwhat,stimulus/audwhat_stim/dummy.wav,stimulus/audwhat_stim/dummy.wav,stimulus/audwhat_stim/string viola_low-pitch_Ftri_loud.wav,stimulus/audwhat_stim/string viola_high-pitch_Dtri_loud.wav,stimulus/audwhat_stim/blank_white.png,stimulus/audwhat_stim/category_box.png,stimulus/audwhat_stim/category_yes.png,stimulus/audwhat_stim/category_no.png,None,Category,None,Category,1,0.0,0,5.125,0,5.125,0,5.125,0,0.0,0.625,0,0.0,0,0.0,0,0.0,0,0.0,0,0.0,0,0.0,1,0.5,1,2.125,0,,,,,0,49,49,49,,,,,,,,,454.16281300000264,454.16281300000264,454.16281300000264,454.16281300000264,454.16281300000264,454.16281300000264,454.16281300000264,454.16281300000264,454.09068137467204,454.16281300000264,454.16281300000264,454.16281300000264,454.09068137467204,454.16281300000264,454.16281300000264,454.16281300000264,456.24922820800566,,454.16281300000264,454.16281300000264,459.3539227500005,454.16281300000264,454.16281300000264,454.16281300000264,454.16281300000264,454.6255691660044,455.69087712500186,454.5959552916722,,456.24922820800566,457.316809750002,456.2194078326686,,454.16281300000264,459.3539227500005,454.16281300000264,459.3539227500005,459.3539227500005,460.00729220799985,454.16281300000264,1,1,1.361638750997372,reldom2_s037,001,2025-03-14_14h31.35.794,What-B-Scan_AC,2022.2.5,None,
38,First_Order,7.0,audwhat,stimulus/audwhat_stim/dummy.wav,stimulus/audwhat_stim/dummy.wav,stimulus/audwhat_stim/percussion mallet_high-pitch_D_loud.wav,stimulus/audwhat_stim/string viola_high-pitch_D_loud.wav,stimulus/audwhat_stim/blank_white.png,stimulus/audwhat_stim/pitch_box.png,stimulus/audwhat_stim/pitch_yes.png,stimulus/audwhat_stim/pitch_no.png,None,Pitch,None,Pitch,1,0.0,0,5.125,0,5.125,0,5.125,0,0.0,0.625,0,0.0,0,0.0,0,0.0,0,0.0,0,0.0,0,0.0,1,0.5,1,2.125,0,,,,,0,50,50,50,,,,,,,,,460.2608560410008,460.2608560410008,460.2608560410008,460.2608560410008,460.2608560410008,460.2608560410008,460.2608560410008,460.2608560410008,460.18131041633944,460.2608560410008,460.2608560410008,460.2608560410008,460.18131041633944,460.2608560410008,460.2608560410008,460.2608560410008,462.34136933300033,466.3897084160053,460.2608560410008,460.2608560410008,465.4440735829994,460.2608560410008,460.2608560410008,460.2608560410008,460.2608560410008,460.723322458005,461.784796208005,460.69348779166853,,462.34136933300033,463.40910012500535,462.31110020766596,,460.2608560410008,465.4440735829994,460.2608560410008,465.4440735829994,465.4849174580013,466.13717737499974,460.2608560410008,1,1,1.5215204999985872,reldom2_s037,001,2025-03-14_14h31.35.794,What-B-Scan_AC,2022.2.5,None,
39,First_Order,7.0,audwhat,stimulus/audwhat_stim/dummy.wav,stimulus/audwhat_stim/dummy.wav,stimulus/audwhat_stim/string viola_low-pitch_Dtri_loud.wav,stimulus/audwhat_stim/percussion mallet_low-pitch_Dtri_loud.wav,stimulus/audwhat_stim/blank_white.png,stimulus/audwhat_stim/category_box.png,stimulus/audwhat_stim/category_yes.png,stimulus/audwhat_stim/category_no.png,None,Category,None,Pitch,2,0.0,0,5.125,0,5.125,0,5.125,0,0.0,0.625,0,0.0,0,0.0,0,0.0,0,0.0,0,0.0,0,0.0,1,0.5,1,2.125,0,,,,,0,51,51,51,,,,,,,,,466.3897084160053,466.3897084160053,466.3897084160053,466.3897084160053,466.3897084160053,466.3897084160053,466.3897084160053,466.3897084160053,466.3113254163346,466.3897084160053,466.3897084160053,466.3897084160053,466.3113254163346,466.3897084160053,466.3897084160053,466.3897084160053,468.48377170800086,472.50394295799924,466.3897084160053,466.3897084160053,471.55359725000017,466.3897084160053,466.3897084160053,466.3897084160053,466.3897084160053,466.8554978750035,467.9264220410041,466.8253440826704,,468.48377170800086,469.55746825000097,468.45368149967203,,466.3897084160053,471.55359725000017,466.3897084160053,471.55359725000017,471.5949771250016,472.2503818330006,466.3897084160053,2,1,0.2943342090002261,reldom2_s037,001,2025-03-14_14h31.35.794,What-B-Scan_AC,2022.2.5,None,
40,First_Order,7.0,audwhat,stimulus/audwhat_stim/dummy.wav,stimulus/audwhat_stim/dummy.wav,stimulus/audwhat_stim/string viola_high-pitch_F_loud.wav,stimulus/audwhat_stim/string viola_low-pitch_Ftri_loud.wav,stimulus/audwhat_stim/blank_white.png,stimulus/audwhat_stim/pitch_box.png,stimulus/audwhat_stim/pitch_yes.png,stimulus/audwhat_stim/pitch_no.png,None,Pitch,None,Category,2,0.0,0,5.125,0,5.125,0,5.125,0,0.0,0.625,0,0.0,0,0.0,0,0.0,0,0.0,0,0.0,0,0.0,1,0.5,1,2.125,0,,,,,0,52,52,52,,,,,,,,,472.50394295799924,472.50394295799924,472.50394295799924,472.50394295799924,472.50394295799924,472.50394295799924,472.50394295799924,472.50394295799924,472.4245986663392,472.50394295799924,472.50394295799924,472.50394295799924,472.4245986663392,472.50394295799924,472.50394295799924,472.50394295799924,474.5939985830046,,472.50394295799924,472.50394295799924,477.69785854100337,472.50394295799924,472.50394295799924,472.50394295799924,472.50394295799924,472.96949049999967,474.0380310000037,472.9385099996691,,474.5939985830046,475.6630504160057,474.5640537496695,,472.50394295799924,477.69785854100337,472.50394295799924,477.69785854100337,477.69785854100337,478.35088870800246,472.50394295799924,2,1,0.7387598749992321,reldom2_s037,001,2025-03-14_14h31.35.794,What-B-Scan_AC,2022.2.5,None,
0,0.0,None,fixation,stimulus/viswhat_stim/blank_white.png,stimulus/viswhat_stim/blank_white.png,stimulus/audwhat_stim/blank_white.png,stimulus/audwhat_stim/blank_white.png,stimulus/viswhat_stim/blank_white.png,stimulus/viswhat_stim/blank_white.png,stimulus/viswhat_stim/blank_white.png,stimulus/viswhat_stim/blank_white.png,0.0,0.0,0.0,0.0,0,0.0,0,0.0,0,0.0,0,0.0,0,0.0,0.0,0,0.0,0,0.0,0,0.0,0,0.0,0,0.0,0,0.0,0,0.0,0,0.0,9,,,,,0,53,53,53,,,,,,,,,478.62456570799986,478.62456570799986,478.62456570799986,478.62456570799986,478.62456570799986,478.62456570799986,478.62456570799986,478.62456570799986,478.52469466633386,478.62456570799986,478.62456570799986,478.62456570799986,478.52469466633386,478.62456570799986,478.62456570799986,478.62456570799986,478.62456570799986,478.62456570799986,478.62456570799986,478.62456570799986,478.62456570799986,478.62456570799986,478.62456570799986,478.62456570799986,478.62456570799986,478.62456570799986,478.62456570799986,478.57469466633387,478.62456570799986,478.62456570799986,478.62456570799986,478.57469466633387,478.62456570799986,478.62456570799986,478.62456570799986,478.62456570799986,478.62456570799986,483.85917175000213,483.85917175000213,487.7920017910001,None,0,,reldom2_s037,001,2025-03-14_14h31.35.794,What-B-Scan_AC,2022.2.5,None,
41,Second_Order,7.0,audwhat,stimulus/audwhat_stim/percussion mallet_low-pitch_F_loud.wav,stimulus/audwhat_stim/percussion mallet_high-pitch_D_loud.wav,stimulus/audwhat_stim/string cello_low-pitch_Dtri_loud.wav,stimulus/audwhat_stim/string viola_high-pitch_F_loud.wav,stimulus/viswhat_stim/match_blank.png,stimulus/viswhat_stim/match_box.png,stimulus/viswhat_stim/match_yes.png,stimulus/viswhat_stim/match_no.png,1.0,Match,Category,Category,1,5.125,0,5.125,0,5.125,0,5.125,0,0.75,0.75,0,0.0,0,0.0,0,0.0,0,0.0,1,0.5,1,2.125,1,0.5,1,2.125,0,,,,,0,54,54,54,,,,,,,,,487.7920017910001,492.9142103330014,487.7920017910001,487.7920017910001,487.7920017910001,487.7920017910001,488.24014991600416,489.2391961250032,488.25351608267033,,489.8737933750017,490.8632864579995,489.8770279576677,490.8632864579995,492.9142103330014,493.7679261660014,495.84094725000614,,493.7679261660014,493.7679261660014,498.9335856250036,493.7679261660014,493.7679261660014,493.7679261660014,493.7679261660014,494.18204150000383,495.24163450000196,494.1523057916677,,495.84094725000614,496.9070543750058,495.8098612496726,,493.7679261660014,498.9335856250036,493.7679261660014,498.9335856250036,498.9335856250036,,493.7679261660014,1,1,0.6527190010019694,reldom2_s037,001,2025-03-14_14h31.35.794,What-B-Scan_AC,2022.2.5,None,
42,Second_Order,7.0,audwhat,stimulus/audwhat_stim/percussion mallet_high-pitch_Ftri_loud.wav,stimulus/audwhat_stim/percussion mallet_low-pitch_F_loud.wav,stimulus/audwhat_stim/percussion mallet_low-pitch_Dtri_loud.wav,stimulus/audwhat_stim/string viola_low-pitch_Dtri_loud.wav,stimulus/viswhat_stim/match_blank.png,stimulus/viswhat_stim/match_box.png,stimulus/viswhat_stim/match_yes.png,stimulus/viswhat_stim/match_no.png,2.0,Match,Category,Pitch,2,5.125,0,5.125,0,5.125,0,5.125,0,0.625,0.625,0,0.0,0,0.0,0,0.0,0,0.0,1,0.5,1,2.125,1,0.5,1,2.125,0,,,,,0,55,55,55,,,,,,,,,499.74170654100453,504.86302187500405,499.74170654100453,499.74170654100453,499.74170654100453,499.74170654100453,500.2019688750006,501.1998507080061,500.21474358266664,,501.8223570410046,502.820646416003,501.8349311246677,,504.86302187500405,505.5951478749994,507.6548984580004,511.69945883300534,505.5951478749994,505.5951478749994,510.7832310830054,505.5951478749994,505.5951478749994,505.5951478749994,505.5951478749994,506.0080125000022,507.06083887500426,505.978632874667,,507.6548984580004,508.71737541600305,507.6254765416709,,505.5951478749994,510.7832310830054,505.5951478749994,510.7832310830054,510.7832310830054,511.46774687500147,505.5951478749994,2,1,0.4368243339995388,reldom2_s037,001,2025-03-14_14h31.35.794,What-B-Scan_AC,2022.2.5,None,
0,0.0,None,fixation,stimulus/viswhat_stim/blank_white.png,stimulus/viswhat_stim/blank_white.png,stimulus/audwhat_stim/blank_white.png,stimulus/audwhat_stim/blank_white.png,stimulus/viswhat_stim/blank_white.png,stimulus/viswhat_stim/blank_white.png,stimulus/viswhat_stim/blank_white.png,stimulus/viswhat_stim/blank_white.png,0.0,0.0,0.0,0.0,0,0.0,0,0.0,0,0.0,0,0.0,0,0.0,0.0,0,0.0,0,0.0,0,0.0,0,0.0,0,0.0,0,0.0,0,0.0,0,0.0,9,,,,,0,56,56,56,,,,,,,,,511.69945883300534,511.69945883300534,511.69945883300534,511.69945883300534,511.69945883300534,511.69945883300534,511.69945883300534,511.69945883300534,511.6010802083348,511.69945883300534,511.69945883300534,511.69945883300534,511.6010802083348,511.69945883300534,511.69945883300534,511.69945883300534,511.69945883300534,511.69945883300534,511.69945883300534,511.69945883300534,511.69945883300534,511.69945883300534,511.69945883300534,511.69945883300534,511.69945883300534,511.69945883300534,511.69945883300534,511.6510802083348,511.69945883300534,511.69945883300534,511.69945883300534,511.6510802083348,511.69945883300534,511.69945883300534,511.69945883300534,511.69945883300534,511.69945883300534,516.8877109580062,516.8877109580062,520.9426149580031,None,0,,reldom2_s037,001,2025-03-14_14h31.35.794,What-B-Scan_AC,2022.2.5,None,
43,First_Order,8.0,audwhat,stimulus/audwhat_stim/dummy.wav,stimulus/audwhat_stim/dummy.wav,stimulus/audwhat_stim/string cello_high-pitch_D_loud.wav,stimulus/audwhat_stim/string cello_low-pitch_F_loud.wav,stimulus/audwhat_stim/blank_white.png,stimulus/audwhat_stim/pitch_box.png,stimulus/audwhat_stim/pitch_yes.png,stimulus/audwhat_stim/pitch_no.png,None,Pitch,None,Category,2,0.0,0,5.125,0,5.125,0,5.125,0,0.0,0.625,0,0.0,0,0.0,0,0.0,0,0.0,0,0.0,0,0.0,1,0.5,1,2.125,0,,,,,0,57,57,57,,,,,,,,,520.9426149580031,520.9426149580031,520.9426149580031,520.9426149580031,520.9426149580031,520.9426149580031,520.9426149580031,520.9426149580031,520.8714244166719,520.9426149580031,520.9426149580031,520.9426149580031,520.8714244166719,520.9426149580031,520.9426149580031,520.9426149580031,523.0230744159999,527.0609585410057,520.9426149580031,520.9426149580031,526.1175574160006,520.9426149580031,520.9426149580031,520.9426149580031,520.9426149580031,521.405252250006,522.4691557910046,521.3755244166716,,523.0230744159999,524.0900170410023,522.9936225826716,,520.9426149580031,526.1175574160006,520.9426149580031,526.1175574160006,526.1585306250054,526.808603000005,520.9426149580031,2,1,0.7666050429979805,reldom2_s037,001,2025-03-14_14h31.35.794,What-B-Scan_AC,2022.2.5,None,
44,First_Order,8.0,audwhat,stimulus/audwhat_stim/dummy.wav,stimulus/audwhat_stim/dummy.wav,stimulus/audwhat_stim/percussion mallet_low-pitch_F_loud.wav,stimulus/audwhat_stim/string cello_low-pitch_F_loud.wav,stimulus/audwhat_stim/blank_white.png,stimulus/audwhat_stim/pitch_box.png,stimulus/audwhat_stim/pitch_yes.png,stimulus/audwhat_stim/pitch_no.png,None,Pitch,None,Pitch,1,0.0,0,5.125,0,5.125,0,5.125,0,0.0,0.625,0,0.0,0,0.0,0,0.0,0,0.0,0,0.0,0,0.0,1,0.5,1,2.125,0,,,,,0,58,58,58,,,,,,,,,527.0609585410057,527.0609585410057,527.0609585410057,527.0609585410057,527.0609585410057,527.0609585410057,527.0609585410057,527.0609585410057,526.9822069993335,527.0609585410057,527.0609585410057,527.0609585410057,526.9822069993335,527.0609585410057,527.0609585410057,527.0609585410057,529.1437233329998,533.1855198750054,527.0609585410057,527.0609585410057,532.2421635000064,527.0609585410057,527.0609585410057,527.0609585410057,527.0609585410057,527.5229741660005,528.5898521250056,527.4931994996698,,529.1437233329998,530.2107109580029,529.1141337076663,,527.0609585410057,532.2421635000064,527.0609585410057,532.2421635000064,532.2832015000022,532.9317154580058,527.0609585410057,1,1,1.4810555839940207,reldom2_s037,001,2025-03-14_14h31.35.794,What-B-Scan_AC,2022.2.5,None,
45,First_Order,8.0,audwhat,stimulus/audwhat_stim/dummy.wav,stimulus/audwhat_stim/dummy.wav,stimulus/audwhat_stim/string viola_low-pitch_Dtri_loud.wav,stimulus/audwhat_stim/string cello_high-pitch_Ftri_loud.wav,stimulus/audwhat_stim/blank_white.png,stimulus/audwhat_stim/category_box.png,stimulus/audwhat_stim/category_yes.png,stimulus/audwhat_stim/category_no.png,None,Category,None,Category,1,0.0,0,5.125,0,5.125,0,5.125,0,0.0,0.625,0,0.0,0,0.0,0,0.0,0,0.0,0,0.0,0,0.0,1,0.5,1,2.125,0,,,,,0,59,59,59,,,,,,,,,533.1855198750054,533.1855198750054,533.1855198750054,533.1855198750054,533.1855198750054,533.1855198750054,533.1855198750054,533.1855198750054,533.1057464163333,533.1855198750054,533.1855198750054,533.1855198750054,533.1057464163333,533.1855198750054,533.1855198750054,533.1855198750054,535.2776344160011,,533.1855198750054,533.1855198750054,538.3488409160054,533.1855198750054,533.1855198750054,533.1855198750054,533.1855198750054,533.6508234580033,534.7209765830048,533.6209534996708,,535.2776344160011,536.3063902499998,535.2476466246701,,533.1855198750054,538.3488409160054,533.1855198750054,538.3488409160054,538.3898644159999,539.042493083005,533.1855198750054,1,1,0.9171624590017018,reldom2_s037,001,2025-03-14_14h31.35.794,What-B-Scan_AC,2022.2.5,None,
46,First_Order,8.0,audwhat,stimulus/audwhat_stim/dummy.wav,stimulus/audwhat_stim/dummy.wav,stimulus/audwhat_stim/string viola_high-pitch_Ftri_loud.wav,stimulus/audwhat_stim/percussion xylophone_high-pitch_Ftri_loud.wav,stimulus/audwhat_stim/blank_white.png,stimulus/audwhat_stim/category_box.png,stimulus/audwhat_stim/category_yes.png,stimulus/audwhat_stim/category_no.png,None,Category,None,Pitch,2,0.0,0,5.125,0,5.125,0,5.125,0,0.0,0.625,0,0.0,0,0.0,0,0.0,0,0.0,0,0.0,0,0.0,1,0.5,1,2.125,0,,,,,0,60,60,60,,,,,,,,,539.2969030410022,539.2969030410022,539.2969030410022,539.2969030410022,539.2969030410022,539.2969030410022,539.2969030410022,539.2969030410022,539.2167484993353,539.2969030410022,539.2969030410022,539.2969030410022,539.2167484993353,539.2969030410022,539.2969030410022,539.2969030410022,541.388800916,545.4287842910053,539.2969030410022,539.2969030410022,544.4607474160002,539.2969030410022,539.2969030410022,539.2969030410022,539.2969030410022,539.7606620830047,540.8325664160002,539.7312597496677,,541.388800916,542.4620404580055,541.3594232076687,542.4135748330009,539.2969030410022,544.4607474160002,539.2969030410022,544.4607474160002,544.5021041250002,545.1554807499997,539.2969030410022,2,1,0.5653462089976529,reldom2_s037,001,2025-03-14_14h31.35.794,What-B-Scan_AC,2022.2.5,None,
0,0.0,None,fixation,stimulus/viswhat_stim/blank_white.png,stimulus/viswhat_stim/blank_white.png,stimulus/audwhat_stim/blank_white.png,stimulus/audwhat_stim/blank_white.png,stimulus/viswhat_stim/blank_white.png,stimulus/viswhat_stim/blank_white.png,stimulus/viswhat_stim/blank_white.png,stimulus/viswhat_stim/blank_white.png,0.0,0.0,0.0,0.0,0,0.0,0,0.0,0,0.0,0,0.0,0,0.0,0.0,0,0.0,0,0.0,0,0.0,0,0.0,0,0.0,0,0.0,0,0.0,0,0.0,8,,,,,0,61,61,61,,,,,,,,,545.4287842910053,545.4287842910053,545.4287842910053,545.4287842910053,545.4287842910053,545.4287842910053,545.4287842910053,545.4287842910053,545.3297149163355,545.4287842910053,545.4287842910053,545.4287842910053,545.3297149163355,545.4287842910053,545.4287842910053,545.4287842910053,545.4287842910053,545.4287842910053,545.4287842910053,545.4287842910053,545.4287842910053,545.4287842910053,545.4287842910053,545.4287842910053,545.4287842910053,545.4287842910053,545.4287842910053,545.3797149163355,545.4287842910053,545.4287842910053,545.4287842910053,545.3797149163355,545.4287842910053,545.4287842910053,545.4287842910053,545.4287842910053,545.4287842910053,550.6150183330028,550.6150183330028,553.590561791003,None,0,,reldom2_s037,001,2025-03-14_14h31.35.794,What-B-Scan_AC,2022.2.5,None,
47,Second_Order,8.0,audwhat,stimulus/audwhat_stim/string cello_low-pitch_Dtri_loud.wav,stimulus/audwhat_stim/string viola_high-pitch_D_loud.wav,stimulus/audwhat_stim/percussion xylophone_high-pitch_F_loud.wav,stimulus/audwhat_stim/percussion mallet_low-pitch_D_loud.wav,stimulus/viswhat_stim/match_blank.png,stimulus/viswhat_stim/match_box.png,stimulus/viswhat_stim/match_yes.png,stimulus/viswhat_stim/match_no.png,1.0,Match,Category,Category,1,5.125,0,5.125,0,5.125,0,5.125,0,0.75,0.75,0,0.0,0,0.0,0,0.0,0,0.0,1,0.5,1,2.125,1,0.5,1,2.125,0,,,,,0,62,62,62,,,,,,,,,553.590561791003,558.703684166001,553.590561791003,553.590561791003,553.590561791003,553.590561791003,554.0409146250022,555.0274725830022,554.0551232916662,,555.6656519579992,556.6613593330039,555.6763486246675,,558.703684166001,559.555098708006,561.6276837910045,,559.555098708006,559.555098708006,564.7264685830014,559.555098708006,559.555098708006,559.555098708006,559.555098708006,559.9702268330002,561.0289035000023,559.940633749666,560.9836743330015,561.6276837910045,562.6930377080062,561.5977922496716,,559.555098708006,564.7264685830014,559.555098708006,564.7264685830014,564.7264685830014,,559.555098708006,1,1,0.6504232510051224,reldom2_s037,001,2025-03-14_14h31.35.794,What-B-Scan_AC,2022.2.5,None,
48,Second_Order,8.0,audwhat,stimulus/audwhat_stim/percussion mallet_high-pitch_D_loud.wav,stimulus/audwhat_stim/percussion mallet_low-pitch_Dtri_loud.wav,stimulus/audwhat_stim/string viola_high-pitch_F_loud.wav,stimulus/audwhat_stim/string viola_low-pitch_Dtri_loud.wav,stimulus/viswhat_stim/match_blank.png,stimulus/viswhat_stim/match_box.png,stimulus/viswhat_stim/match_yes.png,stimulus/viswhat_stim/match_no.png,1.0,Match,Category,Category,1,5.125,0,5.125,0,5.125,0,5.125,0,0.625,0.625,0,0.0,0,0.0,0,0.0,0,0.0,1,0.5,1,2.125,1,0.5,1,2.125,0,,,,,0,63,63,63,,,,,,,,,565.5356895000004,570.648477666,565.5356895000004,565.5356895000004,565.5356895000004,565.5356895000004,565.9870138750048,566.9852934580049,565.9993511666728,,567.6198371659993,568.6090462499997,567.6235922496674,,570.648477666,571.3758463330014,573.4306304160054,,571.3758463330014,571.3758463330014,576.5547544159999,571.3758463330014,571.3758463330014,571.3758463330014,571.3758463330014,571.8332103330031,572.8817802500052,571.8030863326678,,573.4306304160054,574.4923022080038,573.4010719166729,,571.3758463330014,576.5547544159999,571.3758463330014,576.5547544159999,576.5547544159999,577.2043923330057,571.3758463330014,1,1,0.822946876003698,reldom2_s037,001,2025-03-14_14h31.35.794,What-B-Scan_AC,2022.2.5,None,
0,0.0,None,fixation,stimulus/viswhat_stim/blank_white.png,stimulus/viswhat_stim/blank_white.png,stimulus/audwhat_stim/blank_white.png,stimulus/audwhat_stim/blank_white.png,stimulus/viswhat_stim/blank_white.png,stimulus/viswhat_stim/blank_white.png,stimulus/viswhat_stim/blank_white.png,stimulus/viswhat_stim/blank_white.png,0.0,0.0,0.0,0.0,0,0.0,0,0.0,0,0.0,0,0.0,0,0.0,0.0,0,0.0,0,0.0,0,0.0,0,0.0,0,0.0,0,0.0,0,0.0,0,0.0,16,,,,,0,64,64,64,,,,,,,,,577.4764506659994,577.4764506659994,577.4764506659994,577.4764506659994,577.4764506659994,577.4764506659994,577.4764506659994,577.4764506659994,577.3779576243343,577.4764506659994,577.4764506659994,577.4764506659994,577.3779576243343,577.4764506659994,577.4764506659994,577.4764506659994,577.4764506659994,577.4764506659994,577.4764506659994,577.4764506659994,577.4764506659994,577.4764506659994,577.4764506659994,577.4764506659994,577.4764506659994,577.4764506659994,577.4764506659994,577.4279576243342,577.4764506659994,577.4764506659994,577.4764506659994,577.4279576243342,577.4764506659994,577.4764506659994,577.4764506659994,577.4764506659994,577.4764506659994,582.6679964580035,582.6679964580035,593.6501127910014,None,0,,reldom2_s037,001,2025-03-14_14h31.35.794,What-B-Scan_AC,2022.2.5,None,
