Trial,Order,Block,Type,Stimuli_File1,Stimuli_File2,Stimuli_File3,Stimuli_File4,Cue_File1,Cue_File2,Response_File_Yes,Response_File_No,Match,Cue_Dimension,Pair1_Dimension,Pair2_Dimension,Key,Cue1_Duration,Cue1_Onset,Cue2_Duration,Cue2_Onset,ResponseYes_Duration,ResponseYes_Onset,ResponseNo_Duration,ResponseNo_Onset,ITI_Within,ITI_Between,Image1_Duration,Image1_Onset,Image2_Duration,Image2_Onset,Image3_Duration,Image3_Onset,Image4_Duration,Image4_Onset,Sound1_Duration,Sound1_Onset,Sound2_Duration,Sound2_Onset,Sound3_Duration,Sound3_Onset,Sound4_Duration,Sound4_Onset,Fixation_Duration,trials_2.thisRepN,trials_2.thisTrialN,trials_2.thisN,trials_2.thisIndex,trials.thisRepN,trials.thisTrialN,trials.thisN,trials.thisIndex,text_start.started,key_resp_start.started,key_resp_start.keys,key_resp_start.rt,text2.started,key_resp_2.started,key_resp_2.keys,key_resp_2.rt,cue_file1.started,cue_file1.stopped,image_1.started,image_1.stopped,image_2.started,image_2.stopped,sound_icon1.started,sound_icon1.stopped,sound_1.started,sound_1.stopped,sound_icon2.started,sound_icon2.stopped,sound_2.started,sound_2.stopped,image_blank_1.started,image_blank_1.stopped,key_press.started,key_press.stopped,fixation_text.started,cue_file2.started,cue_file2.stopped,image_3.started,image_3.stopped,image_4.started,image_4.stopped,sound_icon3.started,sound_icon3.stopped,sound_3.started,sound_3.stopped,sound_icon4.started,sound_icon4.stopped,sound_4.started,sound_4.stopped,response_yes.started,response_yes.stopped,response_no.started,response_no.stopped,iti_blank.started,iti_blank.stopped,fixation_text.stopped,key_press.keys,key_press.corr,key_press.rt,participant,session,date,expName,psychopyVersion,frameRate,
,,,,,,,,,,,,,,,,,,,,,,,,,,,,,,,,,,,,,,,,,,,,,,,,,,,,53.2050093749931,53.2050093749931,2,3.0341237090033246,,,,,,,,,,,,,,,,,,,,,,,,,,,,,,,,,,,,,,,,,,,,,,,,reldom2_s037,001,2025-03-14_14h20.03.472,Vis-B-Scan_AC,2022.2.5,None,
,,,,,,,,,,,,,,,,,,,,,,,,,,,,,,,,,,,,,,,,,,,,0,0,0,0,,,,,,,,,56.28148533299827,56.28148533299827,5,17.61043029200664,,,,,,,,,,,,,,,,,,,,,,,,,,,,,,,,,,,,,,,,,,,,reldom2_s037,001,2025-03-14_14h20.03.472,Vis-B-Scan_AC,2022.2.5,None,
,,,,,,,,,,,,,,,,,,,,,,,,,,,,,,,,,,,,,,,,,,,,1,0,1,0,,,,,,,,,73.9093615419988,73.9093615419988,5,1.9823268340041977,,,,,,,,,,,,,,,,,,,,,,,,,,,,,,,,,,,,,,,,,,,,reldom2_s037,001,2025-03-14_14h20.03.472,Vis-B-Scan_AC,2022.2.5,None,
,,,,,,,,,,,,,,,,,,,,,,,,,,,,,,,,,,,,,,,,,,,,2,0,2,0,,,,,,,,,75.90704912499496,75.90704912499496,5,1.987694042007206,,,,,,,,,,,,,,,,,,,,,,,,,,,,,,,,,,,,,,,,,,,,reldom2_s037,001,2025-03-14_14h20.03.472,Vis-B-Scan_AC,2022.2.5,None,
,,,,,,,,,,,,,,,,,,,,,,,,,,,,,,,,,,,,,,,,,,,,3,0,3,0,,,,,,,,,77.90904995799792,77.90904995799792,5,1.9835927080057445,,,,,,,,,,,,,,,,,,,,,,,,,,,,,,,,,,,,,,,,,,,,reldom2_s037,001,2025-03-14_14h20.03.472,Vis-B-Scan_AC,2022.2.5,None,
0,0.0,None,fixation,stimulus/viswhere_stim/blank_white.png,stimulus/viswhere_stim/blank_white.png,stimulus/viswhat_stim/blank_white.png,stimulus/viswhat_stim/blank_white.png,stimulus/viswhere_stim/blank_white.png,stimulus/viswhere_stim/blank_white.png,stimulus/viswhere_stim/blank_white.png,stimulus/viswhere_stim/blank_white.png,0.0,0.0,0.0,0.0,0,0.0,0,0.0,0,0.0,0,0.0,0,0.0,0.0,0,0.0,0,0.0,0,0.0,0,0.0,0,0,0,0,0,0,0,0,16,,,,,0,0,0,0,,,,,,,,,80.11107233299845,80.11107233299845,80.11107233299845,80.11107233299845,80.11107233299845,80.11107233299845,80.11107233299845,80.11107233299845,80.0136667086607,80.11107233299845,80.11107233299845,80.11107233299845,80.0136667086607,80.11107233299845,80.11107233299845,80.11107233299845,80.11107233299845,80.11107233299845,80.11107233299845,80.11107233299845,80.11107233299845,80.11107233299845,80.11107233299845,80.11107233299845,80.11107233299845,80.11107233299845,80.11107233299845,80.0636667086607,80.11107233299845,80.11107233299845,80.11107233299845,80.0636667086607,80.11107233299845,80.11107233299845,80.11107233299845,80.11107233299845,80.11107233299845,85.32506608299445,85.32506608299445,96.2871480419999,None,0,,reldom2_s037,001,2025-03-14_14h20.03.472,Vis-B-Scan_AC,2022.2.5,None,
1,First_Order,1.0,viswhere,stimulus/viswhere_stim/blank_white.png,stimulus/viswhere_stim/blank_white.png,stimulus/viswhere_stim/150-deg_dot-left_royalblue.png,stimulus/viswhere_stim/150-deg_dot-right_peru.png,stimulus/viswhere_stim/blank_white.png,stimulus/viswhere_stim/dot_box.png,stimulus/viswhere_stim/dot_yes.png,stimulus/viswhere_stim/dot_no.png,None,Dot,None,Line,2,0.0,0,5.125,0,5.125,0,5.125,0,0.0,0.625,0,0.0,0,0.0,1,0.5,1,2.125,0,0,0,0,0,0,0,0,0,,,,,0,1,1,1,,,,,,,,,96.2871480419999,96.2871480419999,96.2871480419999,96.2871480419999,96.2871480419999,96.2871480419999,96.2871480419999,96.2871480419999,96.2706244579953,96.2871480419999,96.2871480419999,96.2871480419999,96.2706244579953,96.2871480419999,96.2871480419999,96.2871480419999,98.38732833299582,102.34356716699403,96.2871480419999,96.2871480419999,101.41264666699863,96.76951004199509,97.77536099999998,98.38732833299582,99.39882762499474,96.2871480419999,96.2871480419999,96.28729112466196,96.2871480419999,96.2871480419999,96.2871480419999,96.28729112466196,96.2871480419999,96.2871480419999,101.41264666699863,96.2871480419999,101.41264666699863,101.5060872499962,102.13724145799642,96.2871480419999,2,1,0.8819743750063935,reldom2_s037,001,2025-03-14_14h20.03.472,Vis-B-Scan_AC,2022.2.5,None,
2,First_Order,1.0,viswhere,stimulus/viswhere_stim/blank_white.png,stimulus/viswhere_stim/blank_white.png,stimulus/viswhere_stim/30-deg_dot-left_salmon.png,stimulus/viswhere_stim/30-deg_dot-right_seagreen.png,stimulus/viswhere_stim/blank_white.png,stimulus/viswhere_stim/dot_box.png,stimulus/viswhere_stim/dot_yes.png,stimulus/viswhere_stim/dot_no.png,None,Dot,None,Line,2,0.0,0,5.125,0,5.125,0,5.125,0,0.0,0.625,0,0.0,0,0.0,1,0.5,1,2.125,0,0,0,0,0,0,0,0,0,,,,,0,2,2,2,,,,,,,,,102.34356716699403,102.34356716699403,102.34356716699403,102.34356716699403,102.34356716699403,102.34356716699403,102.34356716699403,102.34356716699403,102.32772925033107,102.34356716699403,102.34356716699403,102.34356716699403,102.32772925033107,102.34356716699403,102.34356716699403,102.34356716699403,104.44678633299918,108.40434566699696,102.34356716699403,102.34356716699403,107.4697637079953,102.82178804199793,103.83633995799755,104.44678633299918,105.46528924999438,102.34356716699403,102.34356716699403,102.32772925033107,102.34356716699403,102.34356716699403,102.34356716699403,102.32772925033107,102.34356716699403,102.34356716699403,107.4697637079953,102.34356716699403,107.4697637079953,107.56265991699911,108.18396712499816,102.34356716699403,2,1,1.162716917009675,reldom2_s037,001,2025-03-14_14h20.03.472,Vis-B-Scan_AC,2022.2.5,None,
3,First_Order,1.0,viswhere,stimulus/viswhere_stim/blank_white.png,stimulus/viswhere_stim/blank_white.png,stimulus/viswhere_stim/120-deg_dot-left_goldenrod.png,stimulus/viswhere_stim/30-deg_dot-left_slateblue.png,stimulus/viswhere_stim/blank_white.png,stimulus/viswhere_stim/dot_box.png,stimulus/viswhere_stim/dot_yes.png,stimulus/viswhere_stim/dot_no.png,None,Dot,None,Dot,1,0.0,0,5.125,0,5.125,0,5.125,0,0.0,0.625,0,0.0,0,0.0,1,0.5,1,2.125,0,0,0,0,0,0,0,0,0,,,,,0,3,3,3,,,,,,,,,108.40434566699696,108.40434566699696,108.40434566699696,108.40434566699696,108.40434566699696,108.40434566699696,108.40434566699696,108.40434566699696,108.38810720832892,108.40434566699696,108.40434566699696,108.40434566699696,108.38810720832892,108.40434566699696,108.40434566699696,108.40434566699696,110.51033849999658,114.45865904199309,108.40434566699696,108.40434566699696,113.54071929199563,108.88967045799654,109.89714833299513,110.51033849999658,111.51907058299548,108.40434566699696,108.40434566699696,108.38810720832892,108.40434566699696,108.40434566699696,108.40434566699696,108.38810720832892,108.40434566699696,108.40434566699696,113.54071929199563,108.40434566699696,113.54071929199563,113.63379704199906,114.26524699999572,108.40434566699696,1,1,1.0282686249993276,reldom2_s037,001,2025-03-14_14h20.03.472,Vis-B-Scan_AC,2022.2.5,None,
4,First_Order,1.0,viswhere,stimulus/viswhere_stim/blank_white.png,stimulus/viswhere_stim/blank_white.png,stimulus/viswhere_stim/150-deg_dot-right_royalblue.png,stimulus/viswhere_stim/30-deg_dot-right_salmon.png,stimulus/viswhere_stim/blank_white.png,stimulus/viswhere_stim/line_box.png,stimulus/viswhere_stim/line_yes.png,stimulus/viswhere_stim/line_no.png,None,Line,None,Dot,2,0.0,0,5.125,0,5.125,0,5.125,0,0.0,0.625,0,0.0,0,0.0,1,0.5,1,2.125,0,0,0,0,0,0,0,0,0,,,,,0,4,4,4,,,,,,,,,114.45865904199309,114.45865904199309,114.45865904199309,114.45865904199309,114.45865904199309,114.45865904199309,114.45865904199309,114.45865904199309,114.44235325033272,114.45865904199309,114.45865904199309,114.45865904199309,114.44235325033272,114.45865904199309,114.45865904199309,114.45865904199309,116.5716453749992,120.59133362499415,114.45865904199309,114.45865904199309,119.5807709169967,114.94861583299644,115.95070666699758,116.5716453749992,117.57567341699905,114.45865904199309,114.45865904199309,114.44235325033272,114.45865904199309,114.45865904199309,114.45865904199309,114.44235325033272,114.45865904199309,114.45865904199309,119.5807709169967,114.45865904199309,119.5807709169967,119.70484466699418,120.33614587499324,114.45865904199309,2,1,1.1517165420082165,reldom2_s037,001,2025-03-14_14h20.03.472,Vis-B-Scan_AC,2022.2.5,None,
0,0.0,None,fixation,stimulus/viswhere_stim/blank_white.png,stimulus/viswhere_stim/blank_white.png,stimulus/viswhat_stim/blank_white.png,stimulus/viswhat_stim/blank_white.png,stimulus/viswhere_stim/blank_white.png,stimulus/viswhere_stim/blank_white.png,stimulus/viswhere_stim/blank_white.png,stimulus/viswhere_stim/blank_white.png,0.0,0.0,0.0,0.0,0,0.0,0,0.0,0,0.0,0,0.0,0,0.0,0.0,0,0.0,0,0.0,0,0.0,0,0.0,0,0,0,0,0,0,0,0,9,,,,,0,5,5,5,,,,,,,,,120.59133362499415,120.59133362499415,120.59133362499415,120.59133362499415,120.59133362499415,120.59133362499415,120.59133362499415,120.59133362499415,120.49940762533272,120.59133362499415,120.59133362499415,120.59133362499415,120.49940762533272,120.59133362499415,120.59133362499415,120.59133362499415,120.59133362499415,120.59133362499415,120.59133362499415,120.59133362499415,120.59133362499415,120.59133362499415,120.59133362499415,120.59133362499415,120.59133362499415,120.59133362499415,120.59133362499415,120.54940762533272,120.59133362499415,120.59133362499415,120.59133362499415,120.54940762533272,120.59133362499415,120.59133362499415,120.59133362499415,120.59133362499415,120.59133362499415,125.79604808299337,125.79604808299337,129.73242670799664,None,0,,reldom2_s037,001,2025-03-14_14h20.03.472,Vis-B-Scan_AC,2022.2.5,None,
5,Second_Order,1.0,viswhere,stimulus/viswhere_stim/90-deg_dot-left_mediumslateblue.png,stimulus/viswhere_stim/30-deg_dot-left_slateblue.png,stimulus/viswhere_stim/90-deg_dot-left_royalblue.png,stimulus/viswhere_stim/90-deg_dot-right_goldenrod.png,stimulus/viswhere_stim/match_blank.png,stimulus/viswhere_stim/match_box.png,stimulus/viswhere_stim/match_yes.png,stimulus/viswhere_stim/match_no.png,2.0,Match,Dot,Line,2,5.125,0,5.125,0,5.125,0,5.125,0,0.75,0.75,1,0.5,1,2.125,1,0.5,1,2.125,0,0,0,0,0,0,0,0,0,,,,,0,6,6,6,,,,,,,,,129.73242670799664,134.84536083299463,130.21310074999928,131.20233054199343,131.83834487499553,132.8359770829993,129.73242670799664,129.73242670799664,129.73265833365974,129.73242670799664,129.73242670799664,129.73242670799664,129.73265833365974,129.73242670799664,134.84536083299463,135.64079220799613,137.7193986669954,141.60751224999694,135.64079220799613,135.64079220799613,140.7772609579988,136.0975366249986,137.11641837499337,137.7193986669954,138.73075216699362,135.64079220799613,135.64079220799613,135.62978479199666,135.64079220799613,135.64079220799613,135.64079220799613,135.62978479199666,135.64079220799613,135.64079220799613,140.7772609579988,135.64079220799613,140.7772609579988,140.83391379199747,141.60751224999694,135.64079220799613,2,1,0.8004990000044927,reldom2_s037,001,2025-03-14_14h20.03.472,Vis-B-Scan_AC,2022.2.5,None,
6,Second_Order,1.0,viswhere,stimulus/viswhere_stim/30-deg_dot-right_turquoise.png,stimulus/viswhere_stim/30-deg_dot-left_goldenrod.png,stimulus/viswhere_stim/60-deg_dot-left_salmon.png,stimulus/viswhere_stim/60-deg_dot-right_slateblue.png,stimulus/viswhere_stim/match_blank.png,stimulus/viswhere_stim/match_box.png,stimulus/viswhere_stim/match_yes.png,stimulus/viswhere_stim/match_no.png,1.0,Match,Line,Line,1,5.125,0,5.125,0,5.125,0,5.125,0,0.625,0.625,1,0.5,1,2.125,1,0.5,1,2.125,0,0,0,0,0,0,0,0,0,,,,,0,7,7,7,,,,,,,,,141.60751224999694,146.72229437499482,142.10741883299488,143.09667508299754,143.71504808299505,144.71331508299772,141.60751224999694,141.60751224999694,141.62200366699545,141.60751224999694,141.60751224999694,141.60751224999694,141.62200366699545,141.60751224999694,146.72229437499482,147.39311074999569,149.47883954199642,153.5057677079967,147.39311074999569,147.39311074999569,152.53054958299617,147.84550374999526,148.85997970799508,149.47883954199642,150.49884808299976,147.39311074999569,147.39311074999569,147.3696214163288,147.39311074999569,147.39311074999569,147.39311074999569,147.3696214163288,147.39311074999569,147.39311074999569,152.53054958299617,147.39311074999569,152.53054958299617,152.58775404199696,153.20830616699823,147.39311074999569,1,1,1.071362583003065,reldom2_s037,001,2025-03-14_14h20.03.472,Vis-B-Scan_AC,2022.2.5,None,
0,0.0,None,fixation,stimulus/viswhere_stim/blank_white.png,stimulus/viswhere_stim/blank_white.png,stimulus/viswhat_stim/blank_white.png,stimulus/viswhat_stim/blank_white.png,stimulus/viswhere_stim/blank_white.png,stimulus/viswhere_stim/blank_white.png,stimulus/viswhere_stim/blank_white.png,stimulus/viswhere_stim/blank_white.png,0.0,0.0,0.0,0.0,0,0.0,0,0.0,0,0.0,0,0.0,0,0.0,0.0,0,0.0,0,0.0,0,0.0,0,0.0,0,0,0,0,0,0,0,0,9,,,,,0,8,8,8,,,,,,,,,153.5057677079967,153.5057677079967,153.5057677079967,153.5057677079967,153.5057677079967,153.5057677079967,153.5057677079967,153.5057677079967,153.41210637533126,153.5057677079967,153.5057677079967,153.5057677079967,153.41210637533126,153.5057677079967,153.5057677079967,153.5057677079967,153.5057677079967,153.5057677079967,153.5057677079967,153.5057677079967,153.5057677079967,153.5057677079967,153.5057677079967,153.5057677079967,153.5057677079967,153.5057677079967,153.5057677079967,153.46210637533127,153.5057677079967,153.5057677079967,153.5057677079967,153.46210637533127,153.5057677079967,153.5057677079967,153.5057677079967,153.5057677079967,153.5057677079967,158.71752416699746,158.71752416699746,162.68969637499686,None,0,,reldom2_s037,001,2025-03-14_14h20.03.472,Vis-B-Scan_AC,2022.2.5,None,
7,First_Order,2.0,viswhere,stimulus/viswhere_stim/blank_white.png,stimulus/viswhere_stim/blank_white.png,stimulus/viswhere_stim/60-deg_dot-right_peru.png,stimulus/viswhere_stim/120-deg_dot-right_goldenrod.png,stimulus/viswhere_stim/blank_white.png,stimulus/viswhere_stim/line_box.png,stimulus/viswhere_stim/line_yes.png,stimulus/viswhere_stim/line_no.png,None,Line,None,Dot,2,0.0,0,5.125,0,5.125,0,5.125,0,0.0,0.625,0,0.0,0,0.0,1,0.5,1,2.125,0,0,0,0,0,0,0,0,0,,,,,0,9,9,9,,,,,,,,,162.68969637499686,162.68969637499686,162.68969637499686,162.68969637499686,162.68969637499686,162.68969637499686,162.68969637499686,162.68969637499686,162.65855933299318,162.68969637499686,162.68969637499686,162.68969637499686,162.65855933299318,162.68969637499686,162.68969637499686,162.68969637499686,164.78502699999808,168.74670695799432,162.68969637499686,162.68969637499686,167.81104104199767,163.161560499997,164.16349824999634,164.78502699999808,165.78807483299897,162.68969637499686,162.68969637499686,162.67522599965986,162.68969637499686,162.68969637499686,162.68969637499686,162.67522599965986,162.68969637499686,162.68969637499686,167.81104104199767,162.68969637499686,167.81104104199767,167.90715366699442,168.55095812499349,162.68969637499686,2,1,1.0258883750066161,reldom2_s037,001,2025-03-14_14h20.03.472,Vis-B-Scan_AC,2022.2.5,None,
8,First_Order,2.0,viswhere,stimulus/viswhere_stim/blank_white.png,stimulus/viswhere_stim/blank_white.png,stimulus/viswhere_stim/90-deg_dot-left_turquoise.png,stimulus/viswhere_stim/90-deg_dot-right_peru.png,stimulus/viswhere_stim/blank_white.png,stimulus/viswhere_stim/line_box.png,stimulus/viswhere_stim/line_yes.png,stimulus/viswhere_stim/line_no.png,None,Line,None,Line,1,0.0,0,5.125,0,5.125,0,5.125,0,0.0,0.625,0,0.0,0,0.0,1,0.5,1,2.125,0,0,0,0,0,0,0,0,0,,,,,0,10,10,10,,,,,,,,,168.74670695799432,168.74670695799432,168.74670695799432,168.74670695799432,168.74670695799432,168.74670695799432,168.74670695799432,168.74670695799432,168.72773112533227,168.74670695799432,168.74670695799432,168.74670695799432,168.72773112533227,168.74670695799432,168.74670695799432,168.74670695799432,170.8510134169992,174.81721129199286,168.74670695799432,168.74670695799432,173.88003108299745,169.21986033299618,170.22678479199385,170.8510134169992,171.8637217919968,168.74670695799432,168.74670695799432,168.72773112533227,168.74670695799432,168.74670695799432,168.74670695799432,168.72773112533227,168.74670695799432,168.74670695799432,173.88003108299745,168.74670695799432,173.88003108299745,173.97705508299987,174.60092962499766,168.74670695799432,1,1,0.734154124998895,reldom2_s037,001,2025-03-14_14h20.03.472,Vis-B-Scan_AC,2022.2.5,None,
9,First_Order,2.0,viswhere,stimulus/viswhere_stim/blank_white.png,stimulus/viswhere_stim/blank_white.png,stimulus/viswhere_stim/60-deg_dot-right_seagreen.png,stimulus/viswhere_stim/120-deg_dot-right_salmon.png,stimulus/viswhere_stim/blank_white.png,stimulus/viswhere_stim/dot_box.png,stimulus/viswhere_stim/dot_yes.png,stimulus/viswhere_stim/dot_no.png,None,Dot,None,Dot,1,0.0,0,5.125,0,5.125,0,5.125,0,0.0,0.625,0,0.0,0,0.0,1,0.5,1,2.125,0,0,0,0,0,0,0,0,0,,,,,0,11,11,11,,,,,,,,,174.81721129199286,174.81721129199286,174.81721129199286,174.81721129199286,174.81721129199286,174.81721129199286,174.81721129199286,174.81721129199286,174.79856662532742,174.81721129199286,174.81721129199286,174.81721129199286,174.79856662532742,174.81721129199286,174.81721129199286,174.81721129199286,176.91609145799885,180.88169691699295,174.81721129199286,174.81721129199286,179.95039537499542,175.29133479199663,176.29464220799855,176.91609145799885,177.92371570799878,174.81721129199286,174.81721129199286,174.79856662532742,174.81721129199286,174.81721129199286,174.81721129199286,174.79856662532742,174.81721129199286,174.81721129199286,179.95039537499542,174.81721129199286,179.95039537499542,180.03784920799808,180.6587880829975,174.81721129199286,1,1,1.0759988340068958,reldom2_s037,001,2025-03-14_14h20.03.472,Vis-B-Scan_AC,2022.2.5,None,
10,First_Order,2.0,viswhere,stimulus/viswhere_stim/blank_white.png,stimulus/viswhere_stim/blank_white.png,stimulus/viswhere_stim/120-deg_dot-right_cyan.png,stimulus/viswhere_stim/120-deg_dot-left_turquoise.png,stimulus/viswhere_stim/blank_white.png,stimulus/viswhere_stim/line_box.png,stimulus/viswhere_stim/line_yes.png,stimulus/viswhere_stim/line_no.png,None,Line,None,Line,1,0.0,0,5.125,0,5.125,0,5.125,0,0.0,0.625,0,0.0,0,0.0,1,0.5,1,2.125,0,0,0,0,0,0,0,0,0,,,,,0,12,12,12,,,,,,,,,180.88169691699295,180.88169691699295,180.88169691699295,180.88169691699295,180.88169691699295,180.88169691699295,180.88169691699295,180.88169691699295,180.86253075032923,180.88169691699295,180.88169691699295,180.88169691699295,180.86253075032923,180.88169691699295,180.88169691699295,180.88169691699295,182.98462295799982,187.01438554199558,180.88169691699295,180.88169691699295,186.0079812499971,181.35519041699445,182.36187429199344,182.98462295799982,183.9940293749969,180.88169691699295,180.88169691699295,180.86253075032923,180.88169691699295,180.88169691699295,180.88169691699295,180.86253075032923,180.88169691699295,180.88169691699295,186.0079812499971,180.88169691699295,186.0079812499971,186.10503112499282,186.73646674999327,180.88169691699295,1,1,1.0110817510067136,reldom2_s037,001,2025-03-14_14h20.03.472,Vis-B-Scan_AC,2022.2.5,None,
0,0.0,None,fixation,stimulus/viswhere_stim/blank_white.png,stimulus/viswhere_stim/blank_white.png,stimulus/viswhat_stim/blank_white.png,stimulus/viswhat_stim/blank_white.png,stimulus/viswhere_stim/blank_white.png,stimulus/viswhere_stim/blank_white.png,stimulus/viswhere_stim/blank_white.png,stimulus/viswhere_stim/blank_white.png,0.0,0.0,0.0,0.0,0,0.0,0,0.0,0,0.0,0,0.0,0,0.0,0.0,0,0.0,0,0.0,0,0.0,0,0.0,0,0,0,0,0,0,0,0,8,,,,,0,13,13,13,,,,,,,,,187.01438554199558,187.01438554199558,187.01438554199558,187.01438554199558,187.01438554199558,187.01438554199558,187.01438554199558,187.01438554199558,186.91980154133248,187.01438554199558,187.01438554199558,187.01438554199558,186.91980154133248,187.01438554199558,187.01438554199558,187.01438554199558,187.01438554199558,187.01438554199558,187.01438554199558,187.01438554199558,187.01438554199558,187.01438554199558,187.01438554199558,187.01438554199558,187.01438554199558,187.01438554199558,187.01438554199558,186.9698015413325,187.01438554199558,187.01438554199558,187.01438554199558,186.9698015413325,187.01438554199558,187.01438554199558,187.01438554199558,187.01438554199558,187.01438554199558,192.22959858299873,192.22959858299873,195.14492162499664,None,0,,reldom2_s037,001,2025-03-14_14h20.03.472,Vis-B-Scan_AC,2022.2.5,None,
11,Second_Order,2.0,viswhere,stimulus/viswhere_stim/120-deg_dot-left_slateblue.png,stimulus/viswhere_stim/60-deg_dot-left_seagreen.png,stimulus/viswhere_stim/90-deg_dot-right_seagreen.png,stimulus/viswhere_stim/30-deg_dot-right_mediumslateblue.png,stimulus/viswhere_stim/match_blank.png,stimulus/viswhere_stim/match_box.png,stimulus/viswhere_stim/match_yes.png,stimulus/viswhere_stim/match_no.png,1.0,Match,Dot,Dot,1,5.125,0,5.125,0,5.125,0,5.125,0,0.75,0.75,1,0.5,1,2.125,1,0.5,1,2.125,0,0,0,0,0,0,0,0,0,,,,,0,14,14,14,,,,,,,,,195.14492162499664,200.26281808299973,195.61808466699586,196.61648229199636,197.2516803749968,198.24085837499297,195.14492162499664,195.14492162499664,195.14432974966428,195.14492162499664,195.14492162499664,195.14492162499664,195.14432974966428,195.14492162499664,200.26281808299973,201.05803720799304,203.13590324999677,206.99386916699586,201.05803720799304,201.05803720799304,206.1808627079954,201.51775470799475,202.52792029199918,203.13590324999677,204.15513104199636,201.05803720799304,201.05803720799304,201.04740554199526,201.05803720799304,201.05803720799304,201.05803720799304,201.04740554199526,201.05803720799304,201.05803720799304,206.1808627079954,201.05803720799304,206.1808627079954,206.25482566699793,207.02980104199378,201.05803720799304,1,1,0.944119417006732,reldom2_s037,001,2025-03-14_14h20.03.472,Vis-B-Scan_AC,2022.2.5,None,
12,Second_Order,2.0,viswhere,stimulus/viswhere_stim/90-deg_dot-right_cyan.png,stimulus/viswhere_stim/90-deg_dot-left_salmon.png,stimulus/viswhere_stim/30-deg_dot-left_goldenrod.png,stimulus/viswhere_stim/60-deg_dot-left_turquoise.png,stimulus/viswhere_stim/match_blank.png,stimulus/viswhere_stim/match_box.png,stimulus/viswhere_stim/match_yes.png,stimulus/viswhere_stim/match_no.png,2.0,Match,Line,Dot,2,5.125,0,5.125,0,5.125,0,5.125,0,0.625,0.625,1,0.5,1,2.125,1,0.5,1,2.125,0,0,0,0,0,0,0,0,0,,,,,0,15,15,15,,,,,,,,,207.02980104199378,212.15261883299536,207.51192679199448,208.51087570799427,209.13421283299976,210.13118816699716,207.02980104199378,207.02980104199378,207.04386916699588,207.02980104199378,207.02980104199378,207.02980104199378,207.04386916699588,207.02980104199378,212.15261883299536,212.82827704199735,214.91262583299977,218.94629383299616,212.82827704199735,212.82827704199735,217.95774145799805,213.28540837499895,214.29052758299804,214.91262583299977,215.9230768329944,212.82827704199735,212.82827704199735,212.80396675033313,212.82827704199735,212.82827704199735,212.82827704199735,212.80396675033313,212.82827704199735,212.82827704199735,217.95774145799805,212.82827704199735,217.95774145799805,218.0254364999928,218.65366212499794,212.82827704199735,2,1,1.110096626005543,reldom2_s037,001,2025-03-14_14h20.03.472,Vis-B-Scan_AC,2022.2.5,None,
0,0.0,None,fixation,stimulus/viswhere_stim/blank_white.png,stimulus/viswhere_stim/blank_white.png,stimulus/viswhat_stim/blank_white.png,stimulus/viswhat_stim/blank_white.png,stimulus/viswhere_stim/blank_white.png,stimulus/viswhere_stim/blank_white.png,stimulus/viswhere_stim/blank_white.png,stimulus/viswhere_stim/blank_white.png,0.0,0.0,0.0,0.0,0,0.0,0,0.0,0,0.0,0,0.0,0,0.0,0.0,0,0.0,0,0.0,0,0.0,0,0.0,0,0,0,0,0,0,0,0,10,,,,,0,16,16,16,,,,,,,,,218.94629383299616,218.94629383299616,218.94629383299616,218.94629383299616,218.94629383299616,218.94629383299616,218.94629383299616,218.94629383299616,218.85028166632887,218.94629383299616,218.94629383299616,218.94629383299616,218.85028166632887,218.94629383299616,218.94629383299616,218.94629383299616,218.94629383299616,218.94629383299616,218.94629383299616,218.94629383299616,218.94629383299616,218.94629383299616,218.94629383299616,218.94629383299616,218.94629383299616,218.94629383299616,218.94629383299616,218.90028166632888,218.94629383299616,218.94629383299616,218.94629383299616,218.90028166632888,218.94629383299616,218.94629383299616,218.94629383299616,218.94629383299616,218.94629383299616,224.17997874999855,224.17997874999855,229.2129364999928,None,0,,reldom2_s037,001,2025-03-14_14h20.03.472,Vis-B-Scan_AC,2022.2.5,None,
13,First_Order,3.0,viswhat,stimulus/viswhat_stim/blank_white.png,stimulus/viswhat_stim/blank_white.png,stimulus/viswhat_stim/land_animal-moose.png,stimulus/viswhat_stim/water_animal-whale (1).png,stimulus/viswhat_stim/blank_white.png,stimulus/viswhat_stim/type_box.png,stimulus/viswhat_stim/type_yes.png,stimulus/viswhat_stim/type_no.png,None,Type,None,Type,1,0.0,0,5.125,0,5.125,0,5.125,0,0.0,0.625,0,0.0,0,0.0,1,0.5,1,2.125,0,0,0,0,0,0,0,0,0,,,,,0,17,17,17,,,,,,,,,229.2129364999928,229.2129364999928,229.2129364999928,229.2129364999928,229.2129364999928,229.2129364999928,229.2129364999928,229.2129364999928,229.11405029166298,229.2129364999928,229.2129364999928,229.2129364999928,229.11405029166298,229.2129364999928,229.2129364999928,229.2129364999928,231.30995608299418,,229.2129364999928,229.2129364999928,234.38999779199366,229.67866933299956,230.7268824999992,231.30995608299418,232.35955204199854,229.2129364999928,229.2129364999928,229.16405029166296,229.2129364999928,229.2129364999928,229.2129364999928,229.16405029166296,229.2129364999928,229.2129364999928,234.38999779199366,229.2129364999928,234.38999779199366,234.38999779199366,235.07517987499887,229.2129364999928,1,1,1.9653805840061978,reldom2_s037,001,2025-03-14_14h20.03.472,Vis-B-Scan_AC,2022.2.5,None,
14,First_Order,3.0,viswhat,stimulus/viswhat_stim/blank_white.png,stimulus/viswhat_stim/blank_white.png,stimulus/viswhat_stim/land_vehicle-trolley.png,stimulus/viswhat_stim/water_vehicle-jetski.png,stimulus/viswhat_stim/blank_white.png,stimulus/viswhat_stim/location_box.png,stimulus/viswhat_stim/location_yes.png,stimulus/viswhat_stim/location_no.png,None,Location,None,Type,2,0.0,0,5.125,0,5.125,0,5.125,0,0.0,0.625,0,0.0,0,0.0,1,0.5,1,2.125,0,0,0,0,0,0,0,0,0,,,,,0,18,18,18,,,,,,,,,235.2710207919954,235.2710207919954,235.2710207919954,235.2710207919954,235.2710207919954,235.2710207919954,235.2710207919954,235.2710207919954,235.24184654166555,235.2710207919954,235.2710207919954,235.2710207919954,235.24184654166555,235.2710207919954,235.2710207919954,235.2710207919954,237.37363374999404,241.34348691699415,235.2710207919954,235.2710207919954,240.40633424999396,235.7471263329935,236.7739064579946,237.37363374999404,238.40341558299406,235.2710207919954,235.2710207919954,235.2585132083322,235.2710207919954,235.2710207919954,235.2710207919954,235.2585132083322,235.2710207919954,235.2710207919954,240.40633424999396,235.2710207919954,240.40633424999396,240.48359483299282,241.12179854199348,235.2710207919954,2,1,1.4828209170009359,reldom2_s037,001,2025-03-14_14h20.03.472,Vis-B-Scan_AC,2022.2.5,None,
15,First_Order,3.0,viswhat,stimulus/viswhat_stim/blank_white.png,stimulus/viswhat_stim/blank_white.png,stimulus/viswhat_stim/land_animal-ostrich.png,stimulus/viswhat_stim/land_vehicle-train.png,stimulus/viswhat_stim/blank_white.png,stimulus/viswhat_stim/location_box.png,stimulus/viswhat_stim/location_yes.png,stimulus/viswhat_stim/location_no.png,None,Location,None,Location,1,0.0,0,5.125,0,5.125,0,5.125,0,0.0,0.625,0,0.0,0,0.0,1,0.5,1,2.125,0,0,0,0,0,0,0,0,0,,,,,0,19,19,19,,,,,,,,,241.34348691699415,241.34348691699415,241.34348691699415,241.34348691699415,241.34348691699415,241.34348691699415,241.34348691699415,241.34348691699415,241.31809787499662,241.34348691699415,241.34348691699415,241.34348691699415,241.31809787499662,241.34348691699415,241.34348691699415,241.34348691699415,243.4500891669959,247.7443312079995,241.34348691699415,241.34348691699415,246.48491724999622,241.82494516699808,242.83508916699793,243.4500891669959,244.46487408299436,241.34348691699415,241.34348691699415,241.33476454166328,241.34348691699415,241.34348691699415,241.34348691699415,241.33476454166328,241.34348691699415,241.34348691699415,246.48491724999622,241.34348691699415,246.48491724999622,246.5709932499958,247.20938545799436,241.34348691699415,1,1,0.9617934590060031,reldom2_s037,001,2025-03-14_14h20.03.472,Vis-B-Scan_AC,2022.2.5,None,
16,First_Order,3.0,viswhat,stimulus/viswhat_stim/blank_white.png,stimulus/viswhat_stim/blank_white.png,stimulus/viswhat_stim/water_animal-lobster.png,stimulus/viswhat_stim/land_animal-moose.png,stimulus/viswhat_stim/blank_white.png,stimulus/viswhat_stim/location_box.png,stimulus/viswhat_stim/location_yes.png,stimulus/viswhat_stim/location_no.png,None,Location,None,Type,2,0.0,0,5.125,0,5.125,0,5.125,0,0.0,0.625,0,0.0,0,0.0,1,0.5,1,2.125,0,0,0,0,0,0,0,0,0,,,,,0,20,20,20,,,,,,,,,247.7443312079995,247.7443312079995,247.7443312079995,247.7443312079995,247.7443312079995,247.7443312079995,247.7443312079995,247.7443312079995,247.37811075032855,247.7443312079995,247.7443312079995,247.7443312079995,247.37811075032855,247.7443312079995,247.7443312079995,247.7443312079995,249.71026929199434,,247.7443312079995,247.7443312079995,253.10813383299683,248.10328524999932,249.35299441699317,249.71026929199434,250.96266433299752,247.7443312079995,247.7443312079995,247.56144408366188,247.7443312079995,247.7443312079995,247.7443312079995,247.56144408366188,247.7443312079995,247.7443312079995,253.10813383299683,247.7443312079995,253.10813383299683,252.9353553329929,,247.7443312079995,2,1,2.350332417008758,reldom2_s037,001,2025-03-14_14h20.03.472,Vis-B-Scan_AC,2022.2.5,None,
0,0.0,None,fixation,stimulus/viswhere_stim/blank_white.png,stimulus/viswhere_stim/blank_white.png,stimulus/viswhat_stim/blank_white.png,stimulus/viswhat_stim/blank_white.png,stimulus/viswhere_stim/blank_white.png,stimulus/viswhere_stim/blank_white.png,stimulus/viswhere_stim/blank_white.png,stimulus/viswhere_stim/blank_white.png,0.0,0.0,0.0,0.0,0,0.0,0,0.0,0,0.0,0,0.0,0,0.0,0.0,0,0.0,0,0.0,0,0.0,0,0.0,0,0,0,0,0,0,0,0,8,,,,,0,21,21,21,,,,,,,,,253.78272516699508,253.78272516699508,253.78272516699508,253.78272516699508,253.78272516699508,253.78272516699508,253.78272516699508,253.78272516699508,253.68123604199937,253.78272516699508,253.78272516699508,253.78272516699508,253.68123604199937,253.78272516699508,253.78272516699508,253.78272516699508,253.78272516699508,253.78272516699508,253.78272516699508,253.78272516699508,253.78272516699508,253.78272516699508,253.78272516699508,253.78272516699508,253.78272516699508,253.78272516699508,253.78272516699508,253.73123604199938,253.78272516699508,253.78272516699508,253.78272516699508,253.73123604199938,253.78272516699508,253.78272516699508,253.78272516699508,253.78272516699508,253.78272516699508,258.99416754199774,258.99416754199774,261.96057524999924,None,0,,reldom2_s037,001,2025-03-14_14h20.03.472,Vis-B-Scan_AC,2022.2.5,None,
17,Second_Order,3.0,viswhat,stimulus/viswhat_stim/land_animal-giraffe.png,stimulus/viswhat_stim/water_animal-stingray.png,stimulus/viswhat_stim/water_animal-squid.png,stimulus/viswhat_stim/water_vehicle-yacht.png,stimulus/viswhere_stim/match_blank.png,stimulus/viswhere_stim/match_box.png,stimulus/viswhere_stim/match_yes.png,stimulus/viswhere_stim/match_no.png,2.0,Match,Type,Location,2,5.125,0,5.125,0,5.125,0,5.125,0,0.75,0.75,1,0.5,1,2.125,1,0.5,1,2.125,0,0,0,0,0,0,0,0,0,,,,,0,22,22,22,,,,,,,,,261.96057524999924,267.0843036249935,262.40402083299705,263.39134770799865,264.0391533749935,265.0281691249984,261.96057524999924,261.96057524999924,261.96211366699424,261.96057524999924,261.96057524999924,261.96057524999924,261.96211366699424,261.96057524999924,267.0843036249935,267.9179384579984,269.970920957996,273.9053069999936,267.9179384579984,267.9179384579984,273.076591291996,268.3629343749999,269.41013791699515,269.970920957996,271.02288399999816,267.9179384579984,267.9179384579984,267.8845602916636,267.9179384579984,267.9179384579984,267.9179384579984,267.8845602916636,267.9179384579984,267.9179384579984,273.076591291996,267.9179384579984,273.076591291996,273.108809749996,,267.9179384579984,2,1,0.8771921670049778,reldom2_s037,001,2025-03-14_14h20.03.472,Vis-B-Scan_AC,2022.2.5,None,
18,Second_Order,3.0,viswhat,stimulus/viswhat_stim/water_animal-whale (1).png,stimulus/viswhat_stim/land_animal-tiger.png,stimulus/viswhat_stim/water_animal-orka.png,stimulus/viswhat_stim/water_vehicle-cargoboat.png,stimulus/viswhere_stim/match_blank.png,stimulus/viswhere_stim/match_box.png,stimulus/viswhere_stim/match_yes.png,stimulus/viswhere_stim/match_no.png,2.0,Match,Type,Location,2,5.125,0,5.125,0,5.125,0,5.125,0,0.625,0.625,1,0.5,1,2.125,1,0.5,1,2.125,0,0,0,0,0,0,0,0,0,,,,,0,23,23,23,,,,,,,,,273.9053069999936,279.0304821669997,274.365345416998,275.3517176669993,275.98763487499673,276.9858077079989,273.9053069999936,273.9053069999936,273.9093672079994,273.9053069999936,273.9053069999936,273.9053069999936,273.9093672079994,273.9053069999936,279.0304821669997,279.79818887500005,281.87577954199514,,279.79818887500005,279.79818887500005,285.0048034579959,280.25351170799695,281.355953708,281.87577954199514,282.98679358299705,279.79818887500005,279.79818887500005,279.74149812499815,279.79818887500005,279.79818887500005,279.79818887500005,279.74149812499815,279.79818887500005,279.79818887500005,285.0048034579959,279.79818887500005,285.0048034579959,284.94558324999525,285.87550524999824,279.79818887500005,2,1,0.8059704590050387,reldom2_s037,001,2025-03-14_14h20.03.472,Vis-B-Scan_AC,2022.2.5,None,
0,0.0,None,fixation,stimulus/viswhere_stim/blank_white.png,stimulus/viswhere_stim/blank_white.png,stimulus/viswhat_stim/blank_white.png,stimulus/viswhat_stim/blank_white.png,stimulus/viswhere_stim/blank_white.png,stimulus/viswhere_stim/blank_white.png,stimulus/viswhere_stim/blank_white.png,stimulus/viswhere_stim/blank_white.png,0.0,0.0,0.0,0.0,0,0.0,0,0.0,0,0.0,0,0.0,0,0.0,0.0,0,0.0,0,0.0,0,0.0,0,0.0,0,0,0,0,0,0,0,0,9,,,,,0,24,24,24,,,,,,,,,285.87550524999824,285.87550524999824,285.87550524999824,285.87550524999824,285.87550524999824,285.87550524999824,285.87550524999824,285.87550524999824,285.78377200032895,285.87550524999824,285.87550524999824,285.87550524999824,285.78377200032895,285.87550524999824,285.87550524999824,285.87550524999824,285.87550524999824,285.87550524999824,285.87550524999824,285.87550524999824,285.87550524999824,285.87550524999824,285.87550524999824,285.87550524999824,285.87550524999824,285.87550524999824,285.87550524999824,285.8337720003289,285.87550524999824,285.87550524999824,285.87550524999824,285.8337720003289,285.87550524999824,285.87550524999824,285.87550524999824,285.87550524999824,285.87550524999824,291.0707025419979,291.0707025419979,295.06254870799603,None,0,,reldom2_s037,001,2025-03-14_14h20.03.472,Vis-B-Scan_AC,2022.2.5,None,
19,First_Order,4.0,viswhat,stimulus/viswhat_stim/blank_white.png,stimulus/viswhat_stim/blank_white.png,stimulus/viswhat_stim/water_animal-dolphin.png,stimulus/viswhat_stim/water_vehicle-canoe.png,stimulus/viswhat_stim/blank_white.png,stimulus/viswhat_stim/type_box.png,stimulus/viswhat_stim/type_yes.png,stimulus/viswhat_stim/type_no.png,None,Type,None,Location,2,0.0,0,5.125,0,5.125,0,5.125,0,0.0,0.625,0,0.0,0,0.0,1,0.5,1,2.125,0,0,0,0,0,0,0,0,0,,,,,0,25,25,25,,,,,,,,,295.06254870799603,295.06254870799603,295.06254870799603,295.06254870799603,295.06254870799603,295.06254870799603,295.06254870799603,295.06254870799603,295.0247528336646,295.06254870799603,295.06254870799603,295.06254870799603,295.0247528336646,295.06254870799603,295.06254870799603,295.06254870799603,297.16662779199396,301.2127299999993,295.06254870799603,295.06254870799603,300.19367566699657,295.5231761249961,296.5629268749981,297.16662779199396,298.1793041669953,295.06254870799603,295.06254870799603,295.0414195003313,295.06254870799603,295.06254870799603,295.06254870799603,295.0414195003313,295.06254870799603,295.06254870799603,300.19367566699657,295.06254870799603,300.19367566699657,300.2865279579928,300.936372958,295.06254870799603,2,1,2.590471626004728,reldom2_s037,001,2025-03-14_14h20.03.472,Vis-B-Scan_AC,2022.2.5,None,
20,First_Order,4.0,viswhat,stimulus/viswhat_stim/blank_white.png,stimulus/viswhat_stim/blank_white.png,stimulus/viswhat_stim/land_animal-elephant.png,stimulus/viswhat_stim/land_vehicle-pickuptruck.png,stimulus/viswhat_stim/blank_white.png,stimulus/viswhat_stim/type_box.png,stimulus/viswhat_stim/type_yes.png,stimulus/viswhat_stim/type_no.png,None,Type,None,Location,2,0.0,0,5.125,0,5.125,0,5.125,0,0.0,0.625,0,0.0,0,0.0,1,0.5,1,2.125,0,0,0,0,0,0,0,0,0,,,,,0,26,26,26,,,,,,,,,301.2127299999993,301.2127299999993,301.2127299999993,301.2127299999993,301.2127299999993,301.2127299999993,301.2127299999993,301.2127299999993,301.1062199579988,301.2127299999993,301.2127299999993,301.2127299999993,301.1062199579988,301.2127299999993,301.2127299999993,301.2127299999993,303.2824176669965,,301.2127299999993,301.2127299999993,306.4209569999948,301.6849472499962,302.7510167079963,303.2824176669965,304.3511760419933,301.2127299999993,301.2127299999993,301.1562199579988,301.2127299999993,301.2127299999993,301.2127299999993,301.1562199579988,301.2127299999993,301.2127299999993,306.4209569999948,301.2127299999993,306.4209569999948,306.4209569999948,307.4578801249954,301.2127299999993,2,1,1.4888553340060753,reldom2_s037,001,2025-03-14_14h20.03.472,Vis-B-Scan_AC,2022.2.5,None,
21,First_Order,4.0,viswhat,stimulus/viswhat_stim/blank_white.png,stimulus/viswhat_stim/blank_white.png,stimulus/viswhat_stim/water_vehicle-cruiseship.png,stimulus/viswhat_stim/land_vehicle-oldcar.png,stimulus/viswhat_stim/blank_white.png,stimulus/viswhat_stim/type_box.png,stimulus/viswhat_stim/type_yes.png,stimulus/viswhat_stim/type_no.png,None,Type,None,Type,1,0.0,0,5.125,0,5.125,0,5.125,0,0.0,0.625,0,0.0,0,0.0,1,0.5,1,2.125,0,0,0,0,0,0,0,0,0,,,,,0,27,27,27,,,,,,,,,307.4578801249954,307.4578801249954,307.4578801249954,307.4578801249954,307.4578801249954,307.4578801249954,307.4578801249954,307.4578801249954,307.2324614166597,307.4578801249954,307.4578801249954,307.4578801249954,307.2324614166597,307.4578801249954,307.4578801249954,307.4578801249954,309.52920849999646,,307.4578801249954,307.4578801249954,312.7466202079959,307.92003479199775,309.06938816699403,309.52920849999646,310.6822414579947,307.4578801249954,307.4578801249954,307.3491280833264,307.4578801249954,307.4578801249954,307.4578801249954,307.3491280833264,307.4578801249954,307.4578801249954,312.7466202079959,307.4578801249954,312.7466202079959,312.6372555419948,,307.4578801249954,1,1,0.997195208001358,reldom2_s037,001,2025-03-14_14h20.03.472,Vis-B-Scan_AC,2022.2.5,None,
22,First_Order,4.0,viswhat,stimulus/viswhat_stim/blank_white.png,stimulus/viswhat_stim/blank_white.png,stimulus/viswhat_stim/water_vehicle-pirateship.png,stimulus/viswhat_stim/water_animal-orka.png,stimulus/viswhat_stim/blank_white.png,stimulus/viswhat_stim/location_box.png,stimulus/viswhat_stim/location_yes.png,stimulus/viswhat_stim/location_no.png,None,Location,None,Location,1,0.0,0,5.125,0,5.125,0,5.125,0,0.0,0.625,0,0.0,0,0.0,1,0.5,1,2.125,0,0,0,0,0,0,0,0,0,,,,,0,28,28,28,,,,,,,,,313.58084745799715,313.58084745799715,313.58084745799715,313.58084745799715,313.58084745799715,313.58084745799715,313.58084745799715,313.58084745799715,313.4506826666659,313.58084745799715,313.58084745799715,313.58084745799715,313.4506826666659,313.58084745799715,313.58084745799715,313.58084745799715,315.65054745799716,,313.58084745799715,313.58084745799715,318.78950587500003,314.04916483299894,315.11692962499365,315.65054745799716,316.72302029199636,313.58084745799715,313.58084745799715,313.51734933333256,313.58084745799715,313.58084745799715,313.58084745799715,313.51734933333256,313.58084745799715,313.58084745799715,318.78950587500003,313.58084745799715,318.78950587500003,318.78950587500003,319.67705866699544,313.58084745799715,1,1,1.2626398340071319,reldom2_s037,001,2025-03-14_14h20.03.472,Vis-B-Scan_AC,2022.2.5,None,
0,0.0,None,fixation,stimulus/viswhere_stim/blank_white.png,stimulus/viswhere_stim/blank_white.png,stimulus/viswhat_stim/blank_white.png,stimulus/viswhat_stim/blank_white.png,stimulus/viswhere_stim/blank_white.png,stimulus/viswhere_stim/blank_white.png,stimulus/viswhere_stim/blank_white.png,stimulus/viswhere_stim/blank_white.png,0.0,0.0,0.0,0.0,0,0.0,0,0.0,0,0.0,0,0.0,0,0.0,0.0,0,0.0,0,0.0,0,0.0,0,0.0,0,0,0,0,0,0,0,0,10,,,,,0,29,29,29,,,,,,,,,319.67705866699544,319.67705866699544,319.67705866699544,319.67705866699544,319.67705866699544,319.67705866699544,319.67705866699544,319.67705866699544,319.584099416329,319.67705866699544,319.67705866699544,319.67705866699544,319.584099416329,319.67705866699544,319.67705866699544,319.67705866699544,319.67705866699544,319.67705866699544,319.67705866699544,319.67705866699544,319.67705866699544,319.67705866699544,319.67705866699544,319.67705866699544,319.67705866699544,319.67705866699544,319.67705866699544,319.634099416329,319.67705866699544,319.67705866699544,319.67705866699544,319.634099416329,319.67705866699544,319.67705866699544,319.67705866699544,319.67705866699544,319.67705866699544,324.88815354199323,324.88815354199323,329.8162504579959,None,0,,reldom2_s037,001,2025-03-14_14h20.03.472,Vis-B-Scan_AC,2022.2.5,None,
23,Second_Order,4.0,viswhat,stimulus/viswhat_stim/land_vehicle-pickuptruck.png,stimulus/viswhat_stim/land_animal-lion.png,stimulus/viswhat_stim/water_animal-jellyfish.png,stimulus/viswhat_stim/water_vehicle-cabincruiser.png,stimulus/viswhere_stim/match_blank.png,stimulus/viswhere_stim/match_box.png,stimulus/viswhere_stim/match_yes.png,stimulus/viswhere_stim/match_no.png,1.0,Match,Location,Location,1,5.125,0,5.125,0,5.125,0,5.125,0,0.75,0.75,1,0.5,1,2.125,1,0.5,1,2.125,0,0,0,0,0,0,0,0,0,,,,,0,30,30,30,,,,,,,,,329.8162504579959,334.9402644169968,330.2790395829943,331.27775095799734,331.9049983329969,332.90163374999975,329.8162504579959,329.8162504579959,329.81563275033307,329.8162504579959,329.8162504579959,329.8162504579959,329.81563275033307,329.8162504579959,334.9402644169968,335.7821492499934,337.8431308329964,341.76892287499504,335.7821492499934,335.7821492499934,340.9494900829959,336.21783941699687,337.2485702079939,337.8431308329964,338.88306849999935,335.7821492499934,335.7821492499934,335.7408642086603,335.7821492499934,335.7821492499934,335.7821492499934,335.7408642086603,335.7821492499934,335.7821492499934,340.9494900829959,335.7821492499934,340.9494900829959,340.9494900829959,,335.7821492499934,1,1,0.8539755420060828,reldom2_s037,001,2025-03-14_14h20.03.472,Vis-B-Scan_AC,2022.2.5,None,
24,Second_Order,4.0,viswhat,stimulus/viswhat_stim/water_vehicle-pirateship.png,stimulus/viswhat_stim/land_vehicle-oldcar.png,stimulus/viswhat_stim/land_animal-zebra.png,stimulus/viswhat_stim/water_animal-seahorse.png,stimulus/viswhere_stim/match_blank.png,stimulus/viswhere_stim/match_box.png,stimulus/viswhere_stim/match_yes.png,stimulus/viswhere_stim/match_no.png,1.0,Match,Type,Type,1,5.125,0,5.125,0,5.125,0,5.125,0,0.625,0.625,1,0.5,1,2.125,1,0.5,1,2.125,0,0,0,0,0,0,0,0,0,,,,,0,31,31,31,,,,,,,,,341.76892287499504,346.88491379199695,342.22200283299753,343.2089547919968,343.85707324999385,344.8454963329932,341.76892287499504,341.76892287499504,341.7836496246654,341.76892287499504,341.76892287499504,341.76892287499504,341.7836496246654,341.76892287499504,346.88491379199695,347.5701853749997,349.65164145799645,353.67534416699345,347.5701853749997,347.5701853749997,352.7031583749995,348.02964979199896,349.050770541995,349.65164145799645,350.67218258299545,347.5701853749997,347.5701853749997,347.5486593329959,347.5701853749997,347.5701853749997,347.5701853749997,347.5486593329959,347.5701853749997,347.5701853749997,352.7031583749995,347.5701853749997,352.7031583749995,352.7585018329992,353.3903927499996,347.5701853749997,1,1,1.1464486250042683,reldom2_s037,001,2025-03-14_14h20.03.472,Vis-B-Scan_AC,2022.2.5,None,
0,0.0,None,fixation,stimulus/viswhere_stim/blank_white.png,stimulus/viswhere_stim/blank_white.png,stimulus/viswhat_stim/blank_white.png,stimulus/viswhat_stim/blank_white.png,stimulus/viswhere_stim/blank_white.png,stimulus/viswhere_stim/blank_white.png,stimulus/viswhere_stim/blank_white.png,stimulus/viswhere_stim/blank_white.png,0.0,0.0,0.0,0.0,0,0.0,0,0.0,0,0.0,0,0.0,0,0.0,0.0,0,0.0,0,0.0,0,0.0,0,0.0,0,0,0,0,0,0,0,0,9,,,,,0,32,32,32,,,,,,,,,353.67534416699345,353.67534416699345,353.67534416699345,353.67534416699345,353.67534416699345,353.67534416699345,353.67534416699345,353.67534416699345,353.5829709579935,353.67534416699345,353.67534416699345,353.67534416699345,353.5829709579935,353.67534416699345,353.67534416699345,353.67534416699345,353.67534416699345,353.67534416699345,353.67534416699345,353.67534416699345,353.67534416699345,353.67534416699345,353.67534416699345,353.67534416699345,353.67534416699345,353.67534416699345,353.67534416699345,353.6329709579935,353.67534416699345,353.67534416699345,353.67534416699345,353.6329709579935,353.67534416699345,353.67534416699345,353.67534416699345,353.67534416699345,353.67534416699345,358.8840612499989,358.8840612499989,362.86027720799757,None,0,,reldom2_s037,001,2025-03-14_14h20.03.472,Vis-B-Scan_AC,2022.2.5,None,
25,First_Order,5.0,viswhere,stimulus/viswhere_stim/blank_white.png,stimulus/viswhere_stim/blank_white.png,stimulus/viswhere_stim/90-deg_dot-right_seagreen.png,stimulus/viswhere_stim/150-deg_dot-right_turquoise.png,stimulus/viswhere_stim/blank_white.png,stimulus/viswhere_stim/line_box.png,stimulus/viswhere_stim/line_yes.png,stimulus/viswhere_stim/line_no.png,None,Line,None,Dot,2,0.0,0,5.125,0,5.125,0,5.125,0,0.0,0.625,0,0.0,0,0.0,1,0.5,1,2.125,0,0,0,0,0,0,0,0,0,,,,,0,33,33,33,,,,,,,,,362.86027720799757,362.86027720799757,362.86027720799757,362.86027720799757,362.86027720799757,362.86027720799757,362.86027720799757,362.86027720799757,362.84230970866577,362.86027720799757,362.86027720799757,362.86027720799757,362.84230970866577,362.86027720799757,362.86027720799757,362.86027720799757,364.9649347079976,368.9225702499971,362.86027720799757,362.86027720799757,367.99779333299375,363.3388465419994,364.35368829199433,364.9649347079976,365.98371208299795,362.86027720799757,362.86027720799757,362.84230970866577,362.86027720799757,362.86027720799757,362.86027720799757,362.84230970866577,362.86027720799757,362.86027720799757,367.99779333299375,362.86027720799757,367.99779333299375,368.080843249998,368.7069291669977,362.86027720799757,2,1,1.296732750008232,reldom2_s037,001,2025-03-14_14h20.03.472,Vis-B-Scan_AC,2022.2.5,None,
26,First_Order,5.0,viswhere,stimulus/viswhere_stim/blank_white.png,stimulus/viswhere_stim/blank_white.png,stimulus/viswhere_stim/150-deg_dot-left_seagreen.png,stimulus/viswhere_stim/150-deg_dot-right_seagreen.png,stimulus/viswhere_stim/blank_white.png,stimulus/viswhere_stim/dot_box.png,stimulus/viswhere_stim/dot_yes.png,stimulus/viswhere_stim/dot_no.png,None,Dot,None,Line,2,0.0,0,5.125,0,5.125,0,5.125,0,0.0,0.625,0,0.0,0,0.0,1,0.5,1,2.125,0,0,0,0,0,0,0,0,0,,,,,0,34,34,34,,,,,,,,,368.9225702499971,368.9225702499971,368.9225702499971,368.9225702499971,368.9225702499971,368.9225702499971,368.9225702499971,368.9225702499971,368.9007455833319,368.9225702499971,368.9225702499971,368.9225702499971,368.9007455833319,368.9225702499971,368.9225702499971,368.9225702499971,371.03489749999426,374.98625979200006,368.9225702499971,368.9225702499971,374.0619481669928,369.4035781249986,370.42271191699547,371.03489749999426,372.03956054199807,368.9225702499971,368.9225702499971,368.91741224999856,368.9225702499971,368.9225702499971,368.9225702499971,368.91741224999856,368.9225702499971,368.9225702499971,374.0619481669928,368.9225702499971,374.0619481669928,374.1449713749971,374.7712923749932,368.9225702499971,2,1,1.3793484170091688,reldom2_s037,001,2025-03-14_14h20.03.472,Vis-B-Scan_AC,2022.2.5,None,
27,First_Order,5.0,viswhere,stimulus/viswhere_stim/blank_white.png,stimulus/viswhere_stim/blank_white.png,stimulus/viswhere_stim/90-deg_dot-left_turquoise.png,stimulus/viswhere_stim/90-deg_dot-right_seagreen.png,stimulus/viswhere_stim/blank_white.png,stimulus/viswhere_stim/line_box.png,stimulus/viswhere_stim/line_yes.png,stimulus/viswhere_stim/line_no.png,None,Line,None,Line,1,0.0,0,5.125,0,5.125,0,5.125,0,0.0,0.625,0,0.0,0,0.0,1,0.5,1,2.125,0,0,0,0,0,0,0,0,0,,,,,0,35,35,35,,,,,,,,,374.98625979200006,374.98625979200006,374.98625979200006,374.98625979200006,374.98625979200006,374.98625979200006,374.98625979200006,374.98625979200006,374.9654122083278,374.98625979200006,374.98625979200006,374.98625979200006,374.9654122083278,374.98625979200006,374.98625979200006,374.98625979200006,377.0870503749975,381.04932245799864,374.98625979200006,374.98625979200006,380.1114869169978,375.46441491699807,376.4780752919978,377.0870503749975,378.1055352919939,374.98625979200006,374.98625979200006,374.98207887499444,374.98625979200006,374.98625979200006,374.98625979200006,374.98207887499444,374.98625979200006,374.98625979200006,380.1114869169978,374.98625979200006,380.1114869169978,380.20926241699635,380.83512287499616,374.98625979200006,1,1,0.8165414580071229,reldom2_s037,001,2025-03-14_14h20.03.472,Vis-B-Scan_AC,2022.2.5,None,
28,First_Order,5.0,viswhere,stimulus/viswhere_stim/blank_white.png,stimulus/viswhere_stim/blank_white.png,stimulus/viswhere_stim/120-deg_dot-right_mediumslateblue.png,stimulus/viswhere_stim/90-deg_dot-right_lightsseagreen.png,stimulus/viswhere_stim/blank_white.png,stimulus/viswhere_stim/dot_box.png,stimulus/viswhere_stim/dot_yes.png,stimulus/viswhere_stim/dot_no.png,None,Dot,None,Dot,1,0.0,0,5.125,0,5.125,0,5.125,0,0.0,0.625,0,0.0,0,0.0,1,0.5,1,2.125,0,0,0,0,0,0,0,0,0,,,,,0,36,36,36,,,,,,,,,381.04932245799864,381.04932245799864,381.04932245799864,381.04932245799864,381.04932245799864,381.04932245799864,381.04932245799864,381.04932245799864,381.0288177083324,381.04932245799864,381.04932245799864,381.04932245799864,381.0288177083324,381.04932245799864,381.04932245799864,381.04932245799864,383.16312524999375,387.186593749997,381.04932245799864,381.04932245799864,386.1798871669962,381.5259146249955,382.5358045419998,383.16312524999375,384.17989841699455,381.04932245799864,381.04932245799864,381.04548437499903,381.04932245799864,381.04932245799864,381.04932245799864,381.04548437499903,381.04932245799864,381.04932245799864,386.1798871669962,381.04932245799864,386.1798871669962,386.2744004579945,386.90535024999554,381.04932245799864,1,1,0.9722279589987011,reldom2_s037,001,2025-03-14_14h20.03.472,Vis-B-Scan_AC,2022.2.5,None,
0,0.0,None,fixation,stimulus/viswhere_stim/blank_white.png,stimulus/viswhere_stim/blank_white.png,stimulus/viswhat_stim/blank_white.png,stimulus/viswhat_stim/blank_white.png,stimulus/viswhere_stim/blank_white.png,stimulus/viswhere_stim/blank_white.png,stimulus/viswhere_stim/blank_white.png,stimulus/viswhere_stim/blank_white.png,0.0,0.0,0.0,0.0,0,0.0,0,0.0,0,0.0,0,0.0,0,0.0,0.0,0,0.0,0,0.0,0,0.0,0,0.0,0,0,0,0,0,0,0,0,10,,,,,0,37,37,37,,,,,,,,,387.186593749997,387.186593749997,387.186593749997,387.186593749997,387.186593749997,387.186593749997,387.186593749997,387.186593749997,387.08897462532815,387.186593749997,387.186593749997,387.186593749997,387.08897462532815,387.186593749997,387.186593749997,387.186593749997,387.186593749997,387.186593749997,387.186593749997,387.186593749997,387.186593749997,387.186593749997,387.186593749997,387.186593749997,387.186593749997,387.186593749997,387.186593749997,387.13897462532816,387.186593749997,387.186593749997,387.186593749997,387.13897462532816,387.186593749997,387.186593749997,387.186593749997,387.186593749997,387.186593749997,392.4163474169982,392.4163474169982,397.33101783299935,None,0,,reldom2_s037,001,2025-03-14_14h20.03.472,Vis-B-Scan_AC,2022.2.5,None,
29,Second_Order,5.0,viswhere,stimulus/viswhere_stim/30-deg_dot-right_peru.png,stimulus/viswhere_stim/120-deg_dot-right_royalblue.png,stimulus/viswhere_stim/120-deg_dot-left_lightsseagreen.png,stimulus/viswhere_stim/90-deg_dot-left_seagreen.png,stimulus/viswhere_stim/match_blank.png,stimulus/viswhere_stim/match_box.png,stimulus/viswhere_stim/match_yes.png,stimulus/viswhere_stim/match_no.png,1.0,Match,Dot,Dot,1,5.125,0,5.125,0,5.125,0,5.125,0,0.75,0.75,1,0.5,1,2.125,1,0.5,1,2.125,0,0,0,0,0,0,0,0,0,,,,,0,38,38,38,,,,,,,,,397.33101783299935,402.4463509579946,397.8145861669982,398.8038315829981,399.4401522919943,400.4373792079932,397.33101783299935,397.33101783299935,397.3298014166629,397.33101783299935,397.33101783299935,397.33101783299935,397.3298014166629,397.33101783299935,402.4463509579946,403.2410026669968,405.3246932499969,409.212452791995,403.2410026669968,403.2410026669968,408.37524008299806,403.68345916699764,404.6959418749975,405.3246932499969,406.3448255419935,403.2410026669968,403.2410026669968,403.2304582499972,403.2410026669968,403.2410026669968,403.2410026669968,403.2304582499972,403.2410026669968,403.2410026669968,408.37524008299806,403.2410026669968,408.37524008299806,408.4359146669958,409.212452791995,403.2410026669968,1,1,0.8904055840030196,reldom2_s037,001,2025-03-14_14h20.03.472,Vis-B-Scan_AC,2022.2.5,None,
30,Second_Order,5.0,viswhere,stimulus/viswhere_stim/60-deg_dot-right_seagreen.png,stimulus/viswhere_stim/60-deg_dot-left_slateblue.png,stimulus/viswhere_stim/120-deg_dot-left_seagreen.png,stimulus/viswhere_stim/30-deg_dot-left_cyan.png,stimulus/viswhere_stim/match_blank.png,stimulus/viswhere_stim/match_box.png,stimulus/viswhere_stim/match_yes.png,stimulus/viswhere_stim/match_no.png,2.0,Match,Line,Dot,2,5.125,0,5.125,0,5.125,0,5.125,0,0.625,0.625,1,0.5,1,2.125,1,0.5,1,2.125,0,0,0,0,0,0,0,0,0,,,,,0,39,39,39,,,,,,,,,409.212452791995,414.33637133299635,409.6961098749962,410.6944838749987,411.3171561249983,412.3148440419973,409.212452791995,409.212452791995,409.2260627499971,409.212452791995,409.212452791995,409.212452791995,409.2260627499971,409.212452791995,414.33637133299635,415.0114389999944,417.0956151249993,421.1260433749994,415.0114389999944,415.0114389999944,420.1394707079962,415.47098683299555,416.48193608299334,417.0956151249993,418.1147825829976,415.0114389999944,415.0114389999944,414.9875514583332,415.0114389999944,415.0114389999944,415.0114389999944,414.9875514583332,415.0114389999944,415.0114389999944,420.1394707079962,415.0114389999944,420.1394707079962,420.2094764999929,420.8306144169983,415.0114389999944,2,1,0.9932797500077868,reldom2_s037,001,2025-03-14_14h20.03.472,Vis-B-Scan_AC,2022.2.5,None,
0,0.0,None,fixation,stimulus/viswhere_stim/blank_white.png,stimulus/viswhere_stim/blank_white.png,stimulus/viswhat_stim/blank_white.png,stimulus/viswhat_stim/blank_white.png,stimulus/viswhere_stim/blank_white.png,stimulus/viswhere_stim/blank_white.png,stimulus/viswhere_stim/blank_white.png,stimulus/viswhere_stim/blank_white.png,0.0,0.0,0.0,0.0,0,0.0,0,0.0,0,0.0,0,0.0,0,0.0,0.0,0,0.0,0,0.0,0,0.0,0,0.0,0,0,0,0,0,0,0,0,9,,,,,0,40,40,40,,,,,,,,,421.1260433749994,421.1260433749994,421.1260433749994,421.1260433749994,421.1260433749994,421.1260433749994,421.1260433749994,421.1260433749994,421.0274810003296,421.1260433749994,421.1260433749994,421.1260433749994,421.0274810003296,421.1260433749994,421.1260433749994,421.1260433749994,421.1260433749994,421.1260433749994,421.1260433749994,421.1260433749994,421.1260433749994,421.1260433749994,421.1260433749994,421.1260433749994,421.1260433749994,421.1260433749994,421.1260433749994,421.0774810003296,421.1260433749994,421.1260433749994,421.1260433749994,421.0774810003296,421.1260433749994,421.1260433749994,421.1260433749994,421.1260433749994,421.1260433749994,426.34817716699763,426.34817716699763,430.2943393329988,None,0,,reldom2_s037,001,2025-03-14_14h20.03.472,Vis-B-Scan_AC,2022.2.5,None,
31,First_Order,6.0,viswhere,stimulus/viswhere_stim/blank_white.png,stimulus/viswhere_stim/blank_white.png,stimulus/viswhere_stim/120-deg_dot-left_royalblue.png,stimulus/viswhere_stim/30-deg_dot-left_goldenrod.png,stimulus/viswhere_stim/blank_white.png,stimulus/viswhere_stim/dot_box.png,stimulus/viswhere_stim/dot_yes.png,stimulus/viswhere_stim/dot_no.png,None,Dot,None,Dot,1,0.0,0,5.125,0,5.125,0,5.125,0,0.0,0.625,0,0.0,0,0.0,1,0.5,1,2.125,0,0,0,0,0,0,0,0,0,,,,,0,41,41,41,,,,,,,,,430.2943393329988,430.2943393329988,430.2943393329988,430.2943393329988,430.2943393329988,430.2943393329988,430.2943393329988,430.2943393329988,430.2768067086605,430.2943393329988,430.2943393329988,430.2943393329988,430.2768067086605,430.2943393329988,430.2943393329988,430.2943393329988,432.40384437499597,436.3596264999942,430.2943393329988,430.2943393329988,435.42781570799707,430.7691545829948,431.77680749999854,432.40384437499597,433.4141917079978,430.2943393329988,430.2943393329988,430.2768067086605,430.2943393329988,430.2943393329988,430.2943393329988,430.2768067086605,430.2943393329988,430.2943393329988,435.42781570799707,430.2943393329988,435.42781570799707,435.5112699169986,436.142718624993,430.2943393329988,1,1,0.9822674169990933,reldom2_s037,001,2025-03-14_14h20.03.472,Vis-B-Scan_AC,2022.2.5,None,
32,First_Order,6.0,viswhere,stimulus/viswhere_stim/blank_white.png,stimulus/viswhere_stim/blank_white.png,stimulus/viswhere_stim/150-deg_dot-left_salmon.png,stimulus/viswhere_stim/150-deg_dot-right_salmon.png,stimulus/viswhere_stim/blank_white.png,stimulus/viswhere_stim/dot_box.png,stimulus/viswhere_stim/dot_yes.png,stimulus/viswhere_stim/dot_no.png,None,Dot,None,Line,2,0.0,0,5.125,0,5.125,0,5.125,0,0.0,0.625,0,0.0,0,0.0,1,0.5,1,2.125,0,0,0,0,0,0,0,0,0,,,,,0,42,42,42,,,,,,,,,436.3596264999942,436.3596264999942,436.3596264999942,436.3596264999942,436.3596264999942,436.3596264999942,436.3596264999942,436.3596264999942,436.3393375413264,436.3596264999942,436.3596264999942,436.3596264999942,436.3393375413264,436.3596264999942,436.3596264999942,436.3596264999942,438.47374441699503,442.4289974169951,436.3596264999942,436.3596264999942,441.5149653329936,436.84004154199647,437.8583540829932,438.47374441699503,439.47963137499755,436.3596264999942,436.3596264999942,436.35600420799307,436.3596264999942,436.3596264999942,436.3596264999942,436.35600420799307,436.3596264999942,436.3596264999942,441.5149653329936,436.3596264999942,441.5149653329936,441.58662058299524,442.21343095799966,436.3596264999942,2,1,0.9746535420053988,reldom2_s037,001,2025-03-14_14h20.03.472,Vis-B-Scan_AC,2022.2.5,None,
33,First_Order,6.0,viswhere,stimulus/viswhere_stim/blank_white.png,stimulus/viswhere_stim/blank_white.png,stimulus/viswhere_stim/150-deg_dot-left_cyan.png,stimulus/viswhere_stim/150-deg_dot-right_seagreen.png,stimulus/viswhere_stim/blank_white.png,stimulus/viswhere_stim/line_box.png,stimulus/viswhere_stim/line_yes.png,stimulus/viswhere_stim/line_no.png,None,Line,None,Line,1,0.0,0,5.125,0,5.125,0,5.125,0,0.0,0.625,0,0.0,0,0.0,1,0.5,1,2.125,0,0,0,0,0,0,0,0,0,,,,,0,43,43,43,,,,,,,,,442.4289974169951,442.4289974169951,442.4289974169951,442.4289974169951,442.4289974169951,442.4289974169951,442.4289974169951,442.4289974169951,442.40766829132673,442.4289974169951,442.4289974169951,442.4289974169951,442.40766829132673,442.4289974169951,442.4289974169951,442.4289974169951,444.53132879199984,448.49587804199837,442.4289974169951,442.4289974169951,447.5647551669972,442.9112689169997,443.9144144999955,444.53132879199984,445.5389252919995,442.4289974169951,442.4289974169951,442.4243349579934,442.4289974169951,442.4289974169951,442.4289974169951,442.4243349579934,442.4289974169951,442.4289974169951,447.5647551669972,442.4289974169951,447.5647551669972,447.64816279199295,448.28044466699794,442.4289974169951,1,1,0.9675655830069445,reldom2_s037,001,2025-03-14_14h20.03.472,Vis-B-Scan_AC,2022.2.5,None,
34,First_Order,6.0,viswhere,stimulus/viswhere_stim/blank_white.png,stimulus/viswhere_stim/blank_white.png,stimulus/viswhere_stim/150-deg_dot-right_cyan.png,stimulus/viswhere_stim/120-deg_dot-right_cyan.png,stimulus/viswhere_stim/blank_white.png,stimulus/viswhere_stim/line_box.png,stimulus/viswhere_stim/line_yes.png,stimulus/viswhere_stim/line_no.png,None,Line,None,Dot,2,0.0,0,5.125,0,5.125,0,5.125,0,0.0,0.625,0,0.0,0,0.0,1,0.5,1,2.125,0,0,0,0,0,0,0,0,0,,,,,0,44,44,44,,,,,,,,,448.49587804199837,448.49587804199837,448.49587804199837,448.49587804199837,448.49587804199837,448.49587804199837,448.49587804199837,448.49587804199837,448.4746965833304,448.49587804199837,448.49587804199837,448.49587804199837,448.4746965833304,448.49587804199837,448.49587804199837,448.49587804199837,450.6019268749951,454.63606354199874,448.49587804199837,448.49587804199837,453.61746149999817,448.97349604199553,449.9904264999932,450.6019268749951,451.60494837499573,448.49587804199837,448.49587804199837,448.49136324999705,448.49587804199837,448.49587804199837,448.49587804199837,448.49136324999705,448.49587804199837,448.49587804199837,453.61746149999817,448.49587804199837,453.61746149999817,453.7146473749963,454.3443707499973,448.49587804199837,2,1,0.6366459590062732,reldom2_s037,001,2025-03-14_14h20.03.472,Vis-B-Scan_AC,2022.2.5,None,
0,0.0,None,fixation,stimulus/viswhere_stim/blank_white.png,stimulus/viswhere_stim/blank_white.png,stimulus/viswhat_stim/blank_white.png,stimulus/viswhat_stim/blank_white.png,stimulus/viswhere_stim/blank_white.png,stimulus/viswhere_stim/blank_white.png,stimulus/viswhere_stim/blank_white.png,stimulus/viswhere_stim/blank_white.png,0.0,0.0,0.0,0.0,0,0.0,0,0.0,0,0.0,0,0.0,0,0.0,0.0,0,0.0,0,0.0,0,0.0,0,0.0,0,0,0,0,0,0,0,0,8,,,,,0,45,45,45,,,,,,,,,454.63606354199874,454.63606354199874,454.63606354199874,454.63606354199874,454.63606354199874,454.63606354199874,454.63606354199874,454.63606354199874,454.53846333332814,454.63606354199874,454.63606354199874,454.63606354199874,454.53846333332814,454.63606354199874,454.63606354199874,454.63606354199874,454.63606354199874,454.63606354199874,454.63606354199874,454.63606354199874,454.63606354199874,454.63606354199874,454.63606354199874,454.63606354199874,454.63606354199874,454.63606354199874,454.63606354199874,454.58846333332815,454.63606354199874,454.63606354199874,454.63606354199874,454.58846333332815,454.63606354199874,454.63606354199874,454.63606354199874,454.63606354199874,454.63606354199874,459.8217593329973,459.8217593329973,462.7789581669931,None,0,,reldom2_s037,001,2025-03-14_14h20.03.472,Vis-B-Scan_AC,2022.2.5,None,
35,Second_Order,6.0,viswhere,stimulus/viswhere_stim/60-deg_dot-right_cyan.png,stimulus/viswhere_stim/60-deg_dot-left_goldenrod.png,stimulus/viswhere_stim/150-deg_dot-left_salmon.png,stimulus/viswhere_stim/150-deg_dot-right_goldenrod.png,stimulus/viswhere_stim/match_blank.png,stimulus/viswhere_stim/match_box.png,stimulus/viswhere_stim/match_yes.png,stimulus/viswhere_stim/match_no.png,1.0,Match,Line,Line,1,5.125,0,5.125,0,5.125,0,5.125,0,0.75,0.75,1,0.5,1,2.125,1,0.5,1,2.125,0,0,0,0,0,0,0,0,0,,,,,0,46,46,46,,,,,,,,,462.7789581669931,467.89842462499655,463.2528962919969,464.2391118749947,464.88628824999614,465.87621258299623,462.7789581669931,462.7789581669931,462.79298583333195,462.7789581669931,462.7789581669931,462.7789581669931,462.79298583333195,462.7789581669931,467.89842462499655,468.6918072499975,470.7615253329932,474.6322607079928,468.6918072499975,468.6918072499975,473.8230648749959,469.1395216249948,470.14549529199576,470.7615253329932,471.7715839999946,468.6918072499975,468.6918072499975,468.6651650833305,468.6918072499975,468.6918072499975,468.6918072499975,468.6651650833305,468.6918072499975,468.6918072499975,473.8230648749959,468.6918072499975,473.8230648749959,473.89221429199824,474.66900258299574,468.6918072499975,1,1,0.9628591670116293,reldom2_s037,001,2025-03-14_14h20.03.472,Vis-B-Scan_AC,2022.2.5,None,
36,Second_Order,6.0,viswhere,stimulus/viswhere_stim/120-deg_dot-right_slateblue.png,stimulus/viswhere_stim/120-deg_dot-left_royalblue.png,stimulus/viswhere_stim/150-deg_dot-right_royalblue.png,stimulus/viswhere_stim/150-deg_dot-left_salmon.png,stimulus/viswhere_stim/match_blank.png,stimulus/viswhere_stim/match_box.png,stimulus/viswhere_stim/match_yes.png,stimulus/viswhere_stim/match_no.png,1.0,Match,Line,Line,1,5.125,0,5.125,0,5.125,0,5.125,0,0.625,0.625,1,0.5,1,2.125,1,0.5,1,2.125,0,0,0,0,0,0,0,0,0,,,,,0,47,47,47,,,,,,,,,474.66900258299574,479.792886874995,475.1471921669945,476.14528391699423,476.78073624999524,477.76964295799553,474.66900258299574,474.66900258299574,474.68226070799284,474.66900258299574,474.66900258299574,474.66900258299574,474.68226070799284,474.66900258299574,479.792886874995,480.462444124998,482.545798166997,486.5848052079964,480.462444124998,480.462444124998,485.60014099999535,480.927952041995,481.949588083,482.545798166997,483.5506638329971,480.462444124998,480.462444124998,480.43925091633037,480.462444124998,480.462444124998,480.462444124998,480.43925091633037,480.462444124998,480.462444124998,485.60014099999535,480.462444124998,485.60014099999535,485.65518104199873,486.28966924999986,480.462444124998,1,1,1.3425705830086372,reldom2_s037,001,2025-03-14_14h20.03.472,Vis-B-Scan_AC,2022.2.5,None,
0,0.0,None,fixation,stimulus/viswhere_stim/blank_white.png,stimulus/viswhere_stim/blank_white.png,stimulus/viswhat_stim/blank_white.png,stimulus/viswhat_stim/blank_white.png,stimulus/viswhere_stim/blank_white.png,stimulus/viswhere_stim/blank_white.png,stimulus/viswhere_stim/blank_white.png,stimulus/viswhere_stim/blank_white.png,0.0,0.0,0.0,0.0,0,0.0,0,0.0,0,0.0,0,0.0,0,0.0,0.0,0,0.0,0,0.0,0,0.0,0,0.0,0,0,0,0,0,0,0,0,10,,,,,0,48,48,48,,,,,,,,,486.5848052079964,486.5848052079964,486.5848052079964,486.5848052079964,486.5848052079964,486.5848052079964,486.5848052079964,486.5848052079964,486.4850665413299,486.5848052079964,486.5848052079964,486.5848052079964,486.4850665413299,486.5848052079964,486.5848052079964,486.5848052079964,486.5848052079964,486.5848052079964,486.5848052079964,486.5848052079964,486.5848052079964,486.5848052079964,486.5848052079964,486.5848052079964,486.5848052079964,486.5848052079964,486.5848052079964,486.5350665413299,486.5848052079964,486.5848052079964,486.5848052079964,486.5350665413299,486.5848052079964,486.5848052079964,486.5848052079964,486.5848052079964,486.5848052079964,491.7808534579963,491.7808534579963,496.8742844169974,None,0,,reldom2_s037,001,2025-03-14_14h20.03.472,Vis-B-Scan_AC,2022.2.5,None,
37,First_Order,7.0,viswhat,stimulus/viswhat_stim/blank_white.png,stimulus/viswhat_stim/blank_white.png,stimulus/viswhat_stim/water_vehicle-sailboat.png,stimulus/viswhat_stim/land_vehicle-bus.png,stimulus/viswhat_stim/blank_white.png,stimulus/viswhat_stim/location_box.png,stimulus/viswhat_stim/location_yes.png,stimulus/viswhat_stim/location_no.png,None,Location,None,Type,2,0.0,0,5.125,0,5.125,0,5.125,0,0.0,0.625,0,0.0,0,0.0,1,0.5,1,2.125,0,0,0,0,0,0,0,0,0,,,,,0,49,49,49,,,,,,,,,496.8742844169974,496.8742844169974,496.8742844169974,496.8742844169974,496.8742844169974,496.8742844169974,496.8742844169974,496.8742844169974,496.7848978746648,496.8742844169974,496.8742844169974,496.8742844169974,496.7848978746648,496.8742844169974,496.8742844169974,496.8742844169974,498.94160283299425,,496.8742844169974,496.8742844169974,502.07449066699337,497.3505924169949,498.4139716669961,498.94160283299425,500.005724249997,496.8742844169974,496.8742844169974,496.8348978746648,496.8742844169974,496.8742844169974,496.8742844169974,496.8348978746648,496.8742844169974,496.8742844169974,502.07449066699337,496.8742844169974,502.07449066699337,502.07449066699337,502.7346397499932,496.8742844169974,2,1,1.1414672500104643,reldom2_s037,001,2025-03-14_14h20.03.472,Vis-B-Scan_AC,2022.2.5,None,
38,First_Order,7.0,viswhat,stimulus/viswhat_stim/blank_white.png,stimulus/viswhat_stim/blank_white.png,stimulus/viswhat_stim/land_vehicle-tank.png,stimulus/viswhat_stim/land_animal-elephant.png,stimulus/viswhat_stim/blank_white.png,stimulus/viswhat_stim/type_box.png,stimulus/viswhat_stim/type_yes.png,stimulus/viswhat_stim/type_no.png,None,Type,None,Location,2,0.0,0,5.125,0,5.125,0,5.125,0,0.0,0.625,0,0.0,0,0.0,1,0.5,1,2.125,0,0,0,0,0,0,0,0,0,,,,,0,50,50,50,,,,,,,,,502.9862468329957,502.9862468329957,502.9862468329957,502.9862468329957,502.9862468329957,502.9862468329957,502.9862468329957,502.9862468329957,502.8846397499932,502.9862468329957,502.9862468329957,502.9862468329957,502.8846397499932,502.9862468329957,502.9862468329957,502.9862468329957,505.059968249996,,502.9862468329957,502.9862468329957,508.1765234169943,503.4452410419981,504.54197779199603,505.059968249996,506.10425449999457,502.9862468329957,502.9862468329957,502.9346397499932,502.9862468329957,502.9862468329957,502.9862468329957,502.9346397499932,502.9862468329957,502.9862468329957,508.1765234169943,502.9862468329957,508.1765234169943,508.1765234169943,508.85251287499705,502.9862468329957,2,1,0.6910237510091974,reldom2_s037,001,2025-03-14_14h20.03.472,Vis-B-Scan_AC,2022.2.5,None,
39,First_Order,7.0,viswhat,stimulus/viswhat_stim/blank_white.png,stimulus/viswhat_stim/blank_white.png,stimulus/viswhat_stim/land_animal-ostrich.png,stimulus/viswhat_stim/water_animal-whale.png,stimulus/viswhat_stim/blank_white.png,stimulus/viswhat_stim/location_box.png,stimulus/viswhat_stim/location_yes.png,stimulus/viswhat_stim/location_no.png,None,Location,None,Type,2,0.0,0,5.125,0,5.125,0,5.125,0,0.0,0.625,0,0.0,0,0.0,1,0.5,1,2.125,0,0,0,0,0,0,0,0,0,,,,,0,51,51,51,,,,,,,,,509.0530138749964,509.0530138749964,509.0530138749964,509.0530138749964,509.0530138749964,509.0530138749964,509.0530138749964,509.0530138749964,509.0191795416637,509.0530138749964,509.0530138749964,509.0530138749964,509.0191795416637,509.0530138749964,509.0530138749964,509.0530138749964,511.13932633299555,515.126310666994,509.0530138749964,509.0530138749964,514.2087056669989,509.51956866699766,510.5371164579992,511.13932633299555,512.1738674999942,509.0530138749964,509.0530138749964,509.0358462083304,509.0530138749964,509.0530138749964,509.0530138749964,509.0358462083304,509.0530138749964,509.0530138749964,514.2087056669989,509.0530138749964,514.2087056669989,514.2741330829958,514.9076595419974,509.0530138749964,2,1,0.8207168330045533,reldom2_s037,001,2025-03-14_14h20.03.472,Vis-B-Scan_AC,2022.2.5,None,
40,First_Order,7.0,viswhat,stimulus/viswhat_stim/blank_white.png,stimulus/viswhat_stim/blank_white.png,stimulus/viswhat_stim/land_vehicle-truck.png,stimulus/viswhat_stim/land_animal-fox.png,stimulus/viswhat_stim/blank_white.png,stimulus/viswhat_stim/location_box.png,stimulus/viswhat_stim/location_yes.png,stimulus/viswhat_stim/location_no.png,None,Location,None,Location,1,0.0,0,5.125,0,5.125,0,5.125,0,0.0,0.625,0,0.0,0,0.0,1,0.5,1,2.125,0,0,0,0,0,0,0,0,0,,,,,0,52,52,52,,,,,,,,,515.126310666994,515.126310666994,515.126310666994,515.126310666994,515.126310666994,515.126310666994,515.126310666994,515.126310666994,515.0945509999962,515.126310666994,515.126310666994,515.126310666994,515.0945509999962,515.126310666994,515.126310666994,515.126310666994,517.2214797499983,521.2641542919955,515.126310666994,515.126310666994,520.2562801249951,515.6149349169937,516.6414619999996,517.2214797499983,518.2313744579951,515.126310666994,515.126310666994,515.1112176666628,515.126310666994,515.126310666994,515.126310666994,515.1112176666628,515.126310666994,515.126310666994,520.2562801249951,515.126310666994,520.2562801249951,520.3437322499958,520.9691361249934,515.126310666994,1,1,0.8345555000050808,reldom2_s037,001,2025-03-14_14h20.03.472,Vis-B-Scan_AC,2022.2.5,None,
0,0.0,None,fixation,stimulus/viswhere_stim/blank_white.png,stimulus/viswhere_stim/blank_white.png,stimulus/viswhat_stim/blank_white.png,stimulus/viswhat_stim/blank_white.png,stimulus/viswhere_stim/blank_white.png,stimulus/viswhere_stim/blank_white.png,stimulus/viswhere_stim/blank_white.png,stimulus/viswhere_stim/blank_white.png,0.0,0.0,0.0,0.0,0,0.0,0,0.0,0,0.0,0,0.0,0,0.0,0.0,0,0.0,0,0.0,0,0.0,0,0.0,0,0,0,0,0,0,0,0,8,,,,,0,53,53,53,,,,,,,,,521.2641542919955,521.2641542919955,521.2641542919955,521.2641542919955,521.2641542919955,521.2641542919955,521.2641542919955,521.2641542919955,521.1578128753293,521.2641542919955,521.2641542919955,521.2641542919955,521.1578128753293,521.2641542919955,521.2641542919955,521.2641542919955,521.2641542919955,521.2641542919955,521.2641542919955,521.2641542919955,521.2641542919955,521.2641542919955,521.2641542919955,521.2641542919955,521.2641542919955,521.2641542919955,521.2641542919955,521.224479541996,521.2641542919955,521.2641542919955,521.2641542919955,521.224479541996,521.2641542919955,521.2641542919955,521.2641542919955,521.2641542919955,521.2641542919955,526.4599499999968,526.4599499999968,529.373130999993,None,0,,reldom2_s037,001,2025-03-14_14h20.03.472,Vis-B-Scan_AC,2022.2.5,None,
41,Second_Order,7.0,viswhat,stimulus/viswhat_stim/water_animal-whale (1).png,stimulus/viswhat_stim/water_vehicle-canoe(1).png,stimulus/viswhat_stim/land_animal-tiger.png,stimulus/viswhat_stim/land_vehicle-train.png,stimulus/viswhere_stim/match_blank.png,stimulus/viswhere_stim/match_box.png,stimulus/viswhere_stim/match_yes.png,stimulus/viswhere_stim/match_no.png,1.0,Match,Location,Location,1,5.125,0,5.125,0,5.125,0,5.125,0,0.75,0.75,1,0.5,1,2.125,1,0.5,1,2.125,0,0,0,0,0,0,0,0,0,,,,,0,54,54,54,,,,,,,,,529.373130999993,534.4849594999978,529.8399346249935,530.838755124998,531.4734456249935,532.4633703329964,529.373130999993,529.373130999993,529.3806550413302,529.373130999993,529.373130999993,529.373130999993,529.3806550413302,529.373130999993,534.4849594999978,535.3103145829955,537.3836173749951,541.2981008329953,535.3103145829955,535.3103145829955,540.4655593329953,535.7434379999977,536.7817296669964,537.3836173749951,538.4268211249946,535.3103145829955,535.3103145829955,535.2856021666603,535.3103145829955,535.3103145829955,535.3103145829955,535.2856021666603,535.3103145829955,535.3103145829955,540.4655593329953,535.3103145829955,540.4655593329953,540.4935171249963,,535.3103145829955,1,1,0.8541503330052365,reldom2_s037,001,2025-03-14_14h20.03.472,Vis-B-Scan_AC,2022.2.5,None,
42,Second_Order,7.0,viswhat,stimulus/viswhat_stim/land_vehicle-buldozer.png,stimulus/viswhat_stim/water_vehicle-jetski.png,stimulus/viswhat_stim/water_animal-whale.png,stimulus/viswhat_stim/land_animal-fox.png,stimulus/viswhere_stim/match_blank.png,stimulus/viswhere_stim/match_box.png,stimulus/viswhere_stim/match_yes.png,stimulus/viswhere_stim/match_no.png,1.0,Match,Type,Type,1,5.125,0,5.125,0,5.125,0,5.125,0,0.625,0.625,1,0.5,1,2.125,1,0.5,1,2.125,0,0,0,0,0,0,0,0,0,,,,,0,55,55,55,,,,,,,,,541.2981008329953,546.4124697499938,541.7678007079958,542.7660369169971,543.3890063749932,544.3866931669982,541.2981008329953,541.2981008329953,541.2984577913279,541.2981008329953,541.2981008329953,541.2981008329953,541.2984577913279,541.2981008329953,546.4124697499938,547.1012382499976,549.1854863329936,553.2209132919961,547.1012382499976,547.1012382499976,552.244477207998,547.5458118329989,548.5639768329929,549.1854863329936,550.2069952079983,547.1012382499976,547.1012382499976,547.0762712079929,547.1012382499976,547.1012382499976,547.1012382499976,547.0762712079929,547.1012382499976,547.1012382499976,552.244477207998,547.1012382499976,552.244477207998,552.2857934999993,552.9218617499937,547.1012382499976,1,1,0.6918308340027579,reldom2_s037,001,2025-03-14_14h20.03.472,Vis-B-Scan_AC,2022.2.5,None,
0,0.0,None,fixation,stimulus/viswhere_stim/blank_white.png,stimulus/viswhere_stim/blank_white.png,stimulus/viswhat_stim/blank_white.png,stimulus/viswhat_stim/blank_white.png,stimulus/viswhere_stim/blank_white.png,stimulus/viswhere_stim/blank_white.png,stimulus/viswhere_stim/blank_white.png,stimulus/viswhere_stim/blank_white.png,0.0,0.0,0.0,0.0,0,0.0,0,0.0,0,0.0,0,0.0,0,0.0,0.0,0,0.0,0,0.0,0,0.0,0,0.0,0,0,0,0,0,0,0,0,9,,,,,0,56,56,56,,,,,,,,,553.2209132919961,553.2209132919961,553.2209132919961,553.2209132919961,553.2209132919961,553.2209132919961,553.2209132919961,553.2209132919961,553.1235538749985,553.2209132919961,553.2209132919961,553.2209132919961,553.1235538749985,553.2209132919961,553.2209132919961,553.2209132919961,553.2209132919961,553.2209132919961,553.2209132919961,553.2209132919961,553.2209132919961,553.2209132919961,553.2209132919961,553.2209132919961,553.2209132919961,553.2209132919961,553.2209132919961,553.1735538749984,553.2209132919961,553.2209132919961,553.2209132919961,553.1735538749984,553.2209132919961,553.2209132919961,553.2209132919961,553.2209132919961,553.2209132919961,558.4192041669958,558.4192041669958,562.4563769169981,None,0,,reldom2_s037,001,2025-03-14_14h20.03.472,Vis-B-Scan_AC,2022.2.5,None,
43,First_Order,8.0,viswhat,stimulus/viswhat_stim/blank_white.png,stimulus/viswhat_stim/blank_white.png,stimulus/viswhat_stim/land_animal-fox.png,stimulus/viswhat_stim/land_vehicle-motorcycle.png,stimulus/viswhat_stim/blank_white.png,stimulus/viswhat_stim/type_box.png,stimulus/viswhat_stim/type_yes.png,stimulus/viswhat_stim/type_no.png,None,Type,None,Location,2,0.0,0,5.125,0,5.125,0,5.125,0,0.0,0.625,0,0.0,0,0.0,1,0.5,1,2.125,0,0,0,0,0,0,0,0,0,,,,,0,57,57,57,,,,,,,,,562.4563769169981,562.4563769169981,562.4563769169981,562.4563769169981,562.4563769169981,562.4563769169981,562.4563769169981,562.4563769169981,562.4140605836607,562.4563769169981,562.4563769169981,562.4563769169981,562.4140605836607,562.4563769169981,562.4563769169981,562.4563769169981,564.5667650829928,,562.4563769169981,562.4563769169981,567.5909132919987,562.9384254999968,563.9632498749997,564.5667650829928,565.5984064999939,562.4563769169981,562.4563769169981,562.4307272503273,562.4563769169981,562.4563769169981,562.4563769169981,562.4307272503273,562.4563769169981,562.4563769169981,567.5909132919987,562.4563769169981,567.5909132919987,567.6655250419935,568.3091883749948,562.4563769169981,2,1,1.552500792007777,reldom2_s037,001,2025-03-14_14h20.03.472,Vis-B-Scan_AC,2022.2.5,None,
44,First_Order,8.0,viswhat,stimulus/viswhat_stim/blank_white.png,stimulus/viswhat_stim/blank_white.png,stimulus/viswhat_stim/land_animal-pig.png,stimulus/viswhat_stim/land_vehicle-firetruck.png,stimulus/viswhat_stim/blank_white.png,stimulus/viswhat_stim/location_box.png,stimulus/viswhat_stim/location_yes.png,stimulus/viswhat_stim/location_no.png,None,Location,None,Location,1,0.0,0,5.125,0,5.125,0,5.125,0,0.0,0.625,0,0.0,0,0.0,1,0.5,1,2.125,0,0,0,0,0,0,0,0,0,,,,,0,58,58,58,,,,,,,,,568.5188730829977,568.5188730829977,568.5188730829977,568.5188730829977,568.5188730829977,568.5188730829977,568.5188730829977,568.5188730829977,568.4826891249992,568.5188730829977,568.5188730829977,568.5188730829977,568.4826891249992,568.5188730829977,568.5188730829977,568.5188730829977,570.615188041993,574.6396604999973,568.5188730829977,568.5188730829977,573.6517074169969,569.0070012919969,570.0324391669928,570.615188041993,571.6222819579998,568.5188730829977,568.5188730829977,568.4993557916658,568.5188730829977,568.5188730829977,568.5188730829977,568.4993557916658,568.5188730829977,568.5188730829977,573.6517074169969,568.5188730829977,573.6517074169969,573.7402365829985,574.377636707999,568.5188730829977,1,1,0.9320281670006807,reldom2_s037,001,2025-03-14_14h20.03.472,Vis-B-Scan_AC,2022.2.5,None,
45,First_Order,8.0,viswhat,stimulus/viswhat_stim/blank_white.png,stimulus/viswhat_stim/blank_white.png,stimulus/viswhat_stim/land_vehicle-trolley.png,stimulus/viswhat_stim/water_vehicle-sailboat.png,stimulus/viswhat_stim/blank_white.png,stimulus/viswhat_stim/type_box.png,stimulus/viswhat_stim/type_yes.png,stimulus/viswhat_stim/type_no.png,None,Type,None,Type,1,0.0,0,5.125,0,5.125,0,5.125,0,0.0,0.625,0,0.0,0,0.0,1,0.5,1,2.125,0,0,0,0,0,0,0,0,0,,,,,0,59,59,59,,,,,,,,,574.6396604999973,574.6396604999973,574.6396604999973,574.6396604999973,574.6396604999973,574.6396604999973,574.6396604999973,574.6396604999973,574.5484801663309,574.6396604999973,574.6396604999973,574.6396604999973,574.5484801663309,574.6396604999973,574.6396604999973,574.6396604999973,576.7245952919984,,574.6396604999973,574.6396604999973,579.8298932079997,575.1250515829961,576.1928403329948,576.7245952919984,577.7958822499932,574.6396604999973,574.6396604999973,574.5984801663309,574.6396604999973,574.6396604999973,574.6396604999973,574.5984801663309,574.6396604999973,574.6396604999973,579.8298932079997,574.6396604999973,579.8298932079997,579.8298932079997,580.519329166993,574.6396604999973,1,1,1.0899828750043525,reldom2_s037,001,2025-03-14_14h20.03.472,Vis-B-Scan_AC,2022.2.5,None,
46,First_Order,8.0,viswhat,stimulus/viswhat_stim/blank_white.png,stimulus/viswhat_stim/blank_white.png,stimulus/viswhat_stim/water_vehicle-canoe(1).png,stimulus/viswhat_stim/land_vehicle-truck.png,stimulus/viswhat_stim/blank_white.png,stimulus/viswhat_stim/type_box.png,stimulus/viswhat_stim/type_yes.png,stimulus/viswhat_stim/type_no.png,None,Type,None,Type,1,0.0,0,5.125,0,5.125,0,5.125,0,0.0,0.625,0,0.0,0,0.0,1,0.5,1,2.125,0,0,0,0,0,0,0,0,0,,,,,0,60,60,60,,,,,,,,,580.6890772079933,580.6890772079933,580.6890772079933,580.6890772079933,580.6890772079933,580.6890772079933,580.6890772079933,580.6890772079933,580.669329166993,580.6890772079933,580.6890772079933,580.6890772079933,580.669329166993,580.6890772079933,580.6890772079933,580.6890772079933,582.798372624995,586.8223437499983,580.6890772079933,580.6890772079933,585.8341971669943,581.1685999169931,582.1908867499951,582.798372624995,583.8043182499969,580.6890772079933,580.6890772079933,580.669329166993,580.6890772079933,580.6890772079933,580.6890772079933,580.669329166993,580.6890772079933,580.6890772079933,585.8341971669943,580.6890772079933,585.8341971669943,585.9175342919989,586.5523754999958,580.6890772079933,1,1,1.2106426670070505,reldom2_s037,001,2025-03-14_14h20.03.472,Vis-B-Scan_AC,2022.2.5,None,
0,0.0,None,fixation,stimulus/viswhere_stim/blank_white.png,stimulus/viswhere_stim/blank_white.png,stimulus/viswhat_stim/blank_white.png,stimulus/viswhat_stim/blank_white.png,stimulus/viswhere_stim/blank_white.png,stimulus/viswhere_stim/blank_white.png,stimulus/viswhere_stim/blank_white.png,stimulus/viswhere_stim/blank_white.png,0.0,0.0,0.0,0.0,0,0.0,0,0.0,0,0.0,0,0.0,0,0.0,0.0,0,0.0,0,0.0,0,0.0,0,0.0,0,0,0,0,0,0,0,0,9,,,,,0,61,61,61,,,,,,,,,586.8223437499983,586.8223437499983,586.8223437499983,586.8223437499983,586.8223437499983,586.8223437499983,586.8223437499983,586.8223437499983,586.7192609163297,586.8223437499983,586.8223437499983,586.8223437499983,586.7192609163297,586.8223437499983,586.8223437499983,586.8223437499983,586.8223437499983,586.8223437499983,586.8223437499983,586.8223437499983,586.8223437499983,586.8223437499983,586.8223437499983,586.8223437499983,586.8223437499983,586.8223437499983,586.8223437499983,586.7692609163297,586.8223437499983,586.8223437499983,586.8223437499983,586.7692609163297,586.8223437499983,586.8223437499983,586.8223437499983,586.8223437499983,586.8223437499983,592.0110379999969,592.0110379999969,595.987898374995,None,0,,reldom2_s037,001,2025-03-14_14h20.03.472,Vis-B-Scan_AC,2022.2.5,None,
47,Second_Order,8.0,viswhat,stimulus/viswhat_stim/water_animal-seaturtle.png,stimulus/viswhat_stim/water_vehicle-kayak.png,stimulus/viswhat_stim/water_vehicle-motorboatraft.png,stimulus/viswhat_stim/land_vehicle-tank.png,stimulus/viswhere_stim/match_blank.png,stimulus/viswhere_stim/match_box.png,stimulus/viswhere_stim/match_yes.png,stimulus/viswhere_stim/match_no.png,2.0,Match,Location,Type,2,5.125,0,5.125,0,5.125,0,5.125,0,0.75,0.75,1,0.5,1,2.125,1,0.5,1,2.125,0,0,0,0,0,0,0,0,0,,,,,0,62,62,62,,,,,,,,,595.987898374995,601.1059852919934,596.456814541998,597.446188791997,598.0813791669934,599.0797697919988,595.987898374995,595.987898374995,595.9891625003312,595.987898374995,595.987898374995,595.987898374995,595.9891625003312,595.987898374995,601.1059852919934,601.9057221249968,603.9738094579952,607.8738730419936,601.9057221249968,601.9057221249968,607.0447106669963,602.3587433749999,603.361413957995,603.9738094579952,604.9791429999968,601.9057221249968,601.9057221249968,601.8906499999982,601.9057221249968,601.9057221249968,601.9057221249968,601.8906499999982,601.9057221249968,601.9057221249968,607.0447106669963,601.9057221249968,607.0447106669963,607.0897238749967,607.8738730419936,601.9057221249968,2,1,1.1968589590032934,reldom2_s037,001,2025-03-14_14h20.03.472,Vis-B-Scan_AC,2022.2.5,None,
48,Second_Order,8.0,viswhat,stimulus/viswhat_stim/land_vehicle-rv.png,stimulus/viswhat_stim/water_vehicle-cargoboat.png,stimulus/viswhat_stim/water_animal-squid.png,stimulus/viswhat_stim/land_animal-dog.png,stimulus/viswhere_stim/match_blank.png,stimulus/viswhere_stim/match_box.png,stimulus/viswhere_stim/match_yes.png,stimulus/viswhere_stim/match_no.png,1.0,Match,Type,Type,1,5.125,0,5.125,0,5.125,0,5.125,0,0.625,0.625,1,0.5,1,2.125,1,0.5,1,2.125,0,0,0,0,0,0,0,0,0,,,,,0,63,63,63,,,,,,,,,607.8738730419936,612.9951685829947,608.3540547499942,609.3401390419967,609.9760651249962,610.9738029169966,607.8738730419936,607.8738730419936,607.8790559169981,607.8738730419936,607.8738730419936,607.8738730419936,607.8790559169981,607.8738730419936,612.9951685829947,613.7011309999943,615.7716828749981,619.804178624996,613.7011309999943,613.7011309999943,618.8387913749975,614.133839874994,615.1539908749983,615.7716828749981,616.796815624999,613.7011309999943,613.7011309999943,613.6801388746617,613.7011309999943,613.7011309999943,613.7011309999943,613.6801388746617,613.7011309999943,613.7011309999943,618.8387913749975,613.7011309999943,618.8387913749975,618.8899059169999,619.5473850829949,613.7011309999943,1,1,0.7673767920059618,reldom2_s037,001,2025-03-14_14h20.03.472,Vis-B-Scan_AC,2022.2.5,None,
0,0.0,None,fixation,stimulus/viswhere_stim/blank_white.png,stimulus/viswhere_stim/blank_white.png,stimulus/viswhat_stim/blank_white.png,stimulus/viswhat_stim/blank_white.png,stimulus/viswhere_stim/blank_white.png,stimulus/viswhere_stim/blank_white.png,stimulus/viswhere_stim/blank_white.png,stimulus/viswhere_stim/blank_white.png,0.0,0.0,0.0,0.0,0,0.0,0,0.0,0,0.0,0,0.0,0,0.0,0.0,0,0.0,0,0.0,0,0.0,0,0.0,0,0,0,0,0,0,0,0,16,,,,,0,64,64,64,,,,,,,,,619.804178624996,619.804178624996,619.804178624996,619.804178624996,619.804178624996,619.804178624996,619.804178624996,619.804178624996,619.7143956246636,619.804178624996,619.804178624996,619.804178624996,619.7143956246636,619.804178624996,619.804178624996,619.804178624996,619.804178624996,619.804178624996,619.804178624996,619.804178624996,619.804178624996,619.804178624996,619.804178624996,619.804178624996,619.804178624996,619.804178624996,619.804178624996,619.7643956246635,619.804178624996,619.804178624996,619.804178624996,619.7643956246635,619.804178624996,619.804178624996,619.804178624996,619.804178624996,619.804178624996,625.0046794579976,625.0046794579976,635.9447417919946,None,0,,reldom2_s037,001,2025-03-14_14h20.03.472,Vis-B-Scan_AC,2022.2.5,None,
