Trial,Order,Block,Type,Stimuli_File1,Stimuli_File2,Stimuli_File3,Stimuli_File4,Cue_File1,Cue_File2,Response_File_Yes,Response_File_No,Match,Cue_Dimension,Pair1_Dimension,Pair2_Dimension,Key,Cue1_Duration,Cue1_Onset,Cue2_Duration,Cue2_Onset,ResponseYes_Duration,ResponseYes_Onset,ResponseNo_Duration,ResponseNo_Onset,ITI_Within,ITI_Between,Image1_Duration,Image1_Onset,Image2_Duration,Image2_Onset,Image3_Duration,Image3_Onset,Image4_Duration,Image4_Onset,Sound1_Duration,Sound1_Onset,Sound2_Duration,Sound2_Onset,Sound3_Duration,Sound3_Onset,Sound4_Duration,Sound4_Onset,Fixation_Duration,trials_2.thisRepN,trials_2.thisTrialN,trials_2.thisN,trials_2.thisIndex,trials.thisRepN,trials.thisTrialN,trials.thisN,trials.thisIndex,text_start.started,key_resp_start.started,key_resp_start.keys,key_resp_start.rt,text2.started,key_resp_2.started,key_resp_2.keys,key_resp_2.rt,cue_file1.started,cue_file1.stopped,image_1.started,image_1.stopped,image_2.started,image_2.stopped,sound_icon1.started,sound_icon1.stopped,sound_1.started,sound_1.stopped,sound_icon2.started,sound_icon2.stopped,sound_2.started,sound_2.stopped,image_blank_1.started,image_blank_1.stopped,key_press.started,key_press.stopped,fixation_text.started,cue_file2.started,cue_file2.stopped,image_3.started,image_3.stopped,image_4.started,image_4.stopped,sound_icon3.started,sound_icon3.stopped,sound_3.started,sound_3.stopped,sound_icon4.started,sound_icon4.stopped,sound_4.started,sound_4.stopped,response_yes.started,response_yes.stopped,response_no.started,response_no.stopped,iti_blank.started,iti_blank.stopped,fixation_text.stopped,key_press.keys,key_press.corr,key_press.rt,participant,session,date,expName,psychopyVersion,frameRate,
,,,,,,,,,,,,,,,,,,,,,,,,,,,,,,,,,,,,,,,,,,,,,,,,,,,,9.953970249996928,9.953970249996928,2,1.6219200839987025,,,,,,,,,,,,,,,,,,,,,,,,,,,,,,,,,,,,,,,,,,,,,,,,reldom2_s037,001,2025-03-14_13h57.19.771,Where-B-Scan_AC,2022.2.5,None,
,,,,,,,,,,,,,,,,,,,,,,,,,,,,,,,,,,,,,,,,,,,,0,0,0,0,,,,,,,,,11.614265042000625,11.614265042000625,5,17.65320066700224,,,,,,,,,,,,,,,,,,,,,,,,,,,,,,,,,,,,,,,,,,,,reldom2_s037,001,2025-03-14_13h57.19.771,Where-B-Scan_AC,2022.2.5,None,
,,,,,,,,,,,,,,,,,,,,,,,,,,,,,,,,,,,,,,,,,,,,1,0,1,0,,,,,,,,,29.28359724999609,29.28359724999609,5,1.9832078749968787,,,,,,,,,,,,,,,,,,,,,,,,,,,,,,,,,,,,,,,,,,,,reldom2_s037,001,2025-03-14_13h57.19.771,Where-B-Scan_AC,2022.2.5,None,
,,,,,,,,,,,,,,,,,,,,,,,,,,,,,,,,,,,,,,,,,,,,2,0,2,0,,,,,,,,,31.295151874997828,31.295151874997828,5,1.973975209002674,,,,,,,,,,,,,,,,,,,,,,,,,,,,,,,,,,,,,,,,,,,,reldom2_s037,001,2025-03-14_13h57.19.771,Where-B-Scan_AC,2022.2.5,None,
,,,,,,,,,,,,,,,,,,,,,,,,,,,,,,,,,,,,,,,,,,,,3,0,3,0,,,,,,,,,33.283122583001386,33.283122583001386,5,1.9840488339978037,,,,,,,,,,,,,,,,,,,,,,,,,,,,,,,,,,,,,,,,,,,,reldom2_s037,001,2025-03-14_13h57.19.771,Where-B-Scan_AC,2022.2.5,None,
0,0.0,None,fixation,stimulus/audwhere_stim/blank_white.png,stimulus/audwhere_stim/blank_white.png,stimulus/viswhere_stim/blank_white.png,stimulus/viswhere_stim/blank_white.png,stimulus/audwhere_stim/blank_white.png,stimulus/audwhere_stim/blank_white.png,stimulus/audwhere_stim/blank_white.png,stimulus/audwhere_stim/blank_white.png,0.0,0.0,0.0,0.0,0,0.0,0,0.0,0,0.0,0,0.0,0,0.0,0.0,0,0.0,0,0.0,0,0.0,0,0.0,0,0.0,0,0.0,0,0.0,0,0.0,16,,,,,0,0,0,0,,,,,,,,,35.48704445800104,35.48704445800104,35.48704445800104,35.48704445800104,35.48704445800104,35.48704445800104,35.48704445800104,35.48704445800104,35.38765258366572,35.48704445800104,35.48704445800104,35.48704445800104,35.38765258366572,35.48704445800104,35.48704445800104,35.48704445800104,35.48704445800104,35.48704445800104,35.48704445800104,35.48704445800104,35.48704445800104,35.48704445800104,35.48704445800104,35.48704445800104,35.48704445800104,35.48704445800104,35.48704445800104,35.43765258366572,35.48704445800104,35.48704445800104,35.48704445800104,35.43765258366572,35.48704445800104,35.48704445800104,35.48704445800104,35.48704445800104,35.48704445800104,40.66722608300188,40.66722608300188,51.69196570799977,None,0,,reldom2_s037,001,2025-03-14_13h57.19.771,Where-B-Scan_AC,2022.2.5,None,
1,First_Order,1.0,audwhere,stimulus/audwhere_stim/dummy.wav,stimulus/audwhere_stim/dummy.wav,stimulus/audwhere_stim/right_away_290h.wav,stimulus/audwhere_stim/right_toward_300h.wav,stimulus/audwhere_stim/blank_white.png,stimulus/audwhere_stim/direction_box.png,stimulus/audwhere_stim/direction_yes.png,stimulus/audwhere_stim/direction_no.png,None,Direction,None,Side,2,0.0,0,5.125,0,5.125,0,5.125,0,0.0,0.625,0,0.0,0,0.0,0,0.0,0,0.0,0,0.0,0,0.0,1,0.5,1,2.125,0,,,,,0,1,1,1,,,,,,,,,51.69196570799977,51.69196570799977,51.69196570799977,51.69196570799977,51.69196570799977,51.69196570799977,51.69196570799977,51.69196570799977,51.621725957999296,51.69196570799977,51.69196570799977,51.69196570799977,51.621725957999296,51.69196570799977,51.69196570799977,51.69196570799977,53.767181999995955,,51.69196570799977,51.69196570799977,56.8456994579974,51.69196570799977,51.69196570799977,51.69196570799977,51.69196570799977,52.1777807920007,53.23612729200249,52.15030241666342,,53.767181999995955,54.828048541996395,53.739571458663946,,51.69196570799977,56.8456994579974,51.69196570799977,56.8456994579974,56.88497225000174,57.54542079199746,51.69196570799977,1,0,1.6422662080003647,reldom2_s037,001,2025-03-14_13h57.19.771,Where-B-Scan_AC,2022.2.5,None,
2,First_Order,1.0,audwhere,stimulus/audwhere_stim/dummy.wav,stimulus/audwhere_stim/dummy.wav,stimulus/audwhere_stim/left_toward_290h.wav,stimulus/audwhere_stim/right_toward_280h.wav,stimulus/audwhere_stim/blank_white.png,stimulus/audwhere_stim/side_box.png,stimulus/audwhere_stim/side_yes.png,stimulus/audwhere_stim/side_no.png,None,Side,None,Direction,2,0.0,0,5.125,0,5.125,0,5.125,0,0.0,0.625,0,0.0,0,0.0,0,0.0,0,0.0,0,0.0,0,0.0,1,0.5,1,2.125,0,,,,,0,2,2,2,,,,,,,,,57.787603750002745,57.787603750002745,57.787603750002745,57.787603750002745,57.787603750002745,57.787603750002745,57.787603750002745,57.787603750002745,57.71708662533104,57.787603750002745,57.787603750002745,57.787603750002745,57.71708662533104,57.787603750002745,57.787603750002745,57.787603750002745,59.89315554199857,63.908236707997276,57.787603750002745,57.787603750002745,62.967660458001774,57.787603750002745,57.787603750002745,57.787603750002745,57.787603750002745,58.270481499996094,59.32426808300079,58.24333808366306,,59.89315554199857,60.94898112500232,59.86592758366557,,57.787603750002745,62.967660458001774,57.787603750002745,62.967660458001774,63.007505458001106,63.66777629200078,57.787603750002745,2,1,1.1982605419980246,reldom2_s037,001,2025-03-14_13h57.19.771,Where-B-Scan_AC,2022.2.5,None,
3,First_Order,1.0,audwhere,stimulus/audwhere_stim/dummy.wav,stimulus/audwhere_stim/dummy.wav,stimulus/audwhere_stim/right_toward_280h.wav,stimulus/audwhere_stim/right_away_300h.wav,stimulus/audwhere_stim/blank_white.png,stimulus/audwhere_stim/direction_box.png,stimulus/audwhere_stim/direction_yes.png,stimulus/audwhere_stim/direction_no.png,None,Direction,None,Side,2,0.0,0,5.125,0,5.125,0,5.125,0,0.0,0.625,0,0.0,0,0.0,0,0.0,0,0.0,0,0.0,0,0.0,1,0.5,1,2.125,0,,,,,0,3,3,3,,,,,,,,,63.908236707997276,63.908236707997276,63.908236707997276,63.908236707997276,63.908236707997276,63.908236707997276,63.908236707997276,63.908236707997276,63.839659916333524,63.908236707997276,63.908236707997276,63.908236707997276,63.839659916333524,63.908236707997276,63.908236707997276,63.908236707997276,65.98909808300232,,63.908236707997276,63.908236707997276,69.09029008299694,63.908236707997276,63.908236707997276,63.908236707997276,63.908236707997276,64.39582362499641,65.45894320800289,64.36763587466363,,65.98909808300232,67.05349495799601,65.96127195866963,,63.908236707997276,69.09029008299694,63.908236707997276,69.09029008299694,69.12949729200045,69.79334112499782,63.908236707997276,2,1,1.1666827079970972,reldom2_s037,001,2025-03-14_13h57.19.771,Where-B-Scan_AC,2022.2.5,None,
4,First_Order,1.0,audwhere,stimulus/audwhere_stim/dummy.wav,stimulus/audwhere_stim/dummy.wav,stimulus/audwhere_stim/left_toward_270h.wav,stimulus/audwhere_stim/right_toward_300h.wav,stimulus/audwhere_stim/blank_white.png,stimulus/audwhere_stim/direction_box.png,stimulus/audwhere_stim/direction_yes.png,stimulus/audwhere_stim/direction_no.png,None,Direction,None,Direction,1,0.0,0,5.125,0,5.125,0,5.125,0,0.0,0.625,0,0.0,0,0.0,0,0.0,0,0.0,0,0.0,0,0.0,1,0.5,1,2.125,0,,,,,0,4,4,4,,,,,,,,,69.99467941700277,69.99467941700277,69.99467941700277,69.99467941700277,69.99467941700277,69.99467941700277,69.99467941700277,69.99467941700277,69.92667445833115,69.99467941700277,69.99467941700277,69.99467941700277,69.92667445833115,69.99467941700277,69.99467941700277,69.99467941700277,72.08283120799751,,69.99467941700277,69.99467941700277,75.15341512500163,69.99467941700277,69.99467941700277,69.99467941700277,69.99467941700277,70.48224233299698,71.55024337500072,70.4544844996674,,72.08283120799751,73.15095412499795,72.05480020866914,,69.99467941700277,75.15341512500163,69.99467941700277,75.15341512500163,75.19263195800158,75.85872620799637,69.99467941700277,1,1,1.4650354999976116,reldom2_s037,001,2025-03-14_13h57.19.771,Where-B-Scan_AC,2022.2.5,None,
0,0.0,None,fixation,stimulus/audwhere_stim/blank_white.png,stimulus/audwhere_stim/blank_white.png,stimulus/viswhere_stim/blank_white.png,stimulus/viswhere_stim/blank_white.png,stimulus/audwhere_stim/blank_white.png,stimulus/audwhere_stim/blank_white.png,stimulus/audwhere_stim/blank_white.png,stimulus/audwhere_stim/blank_white.png,0.0,0.0,0.0,0.0,0,0.0,0,0.0,0,0.0,0,0.0,0,0.0,0.0,0,0.0,0,0.0,0,0.0,0,0.0,0,0.0,0,0.0,0,0.0,0,0.0,10,,,,,0,5,5,5,,,,,,,,,76.11810004199651,76.11810004199651,76.11810004199651,76.11810004199651,76.11810004199651,76.11810004199651,76.11810004199651,76.11810004199651,76.03106154133468,76.11810004199651,76.11810004199651,76.11810004199651,76.03106154133468,76.11810004199651,76.11810004199651,76.11810004199651,76.11810004199651,76.11810004199651,76.11810004199651,76.11810004199651,76.11810004199651,76.11810004199651,76.11810004199651,76.11810004199651,76.11810004199651,76.11810004199651,76.11810004199651,76.08106154133469,76.11810004199651,76.11810004199651,76.11810004199651,76.08106154133469,76.11810004199651,76.11810004199651,76.11810004199651,76.11810004199651,76.11810004199651,81.30814320799982,81.30814320799982,86.27329570800066,None,0,,reldom2_s037,001,2025-03-14_13h57.19.771,Where-B-Scan_AC,2022.2.5,None,
5,Second_Order,1.0,audwhere,stimulus/audwhere_stim/right_toward_300h.wav,stimulus/audwhere_stim/left_toward_280h.wav,stimulus/audwhere_stim/right_toward_280h.wav,stimulus/audwhere_stim/right_away_280h.wav,stimulus/audwhere_stim/match_blank.png,stimulus/audwhere_stim/match_box.png,stimulus/audwhere_stim/match_yes.png,stimulus/audwhere_stim/match_no.png,2.0,Match,Direction,Side,2,5.125,0,5.125,0,5.125,0,5.125,0,0.75,0.75,0,0.0,0,0.0,0,0.0,0,0.0,1,0.5,1,2.125,1,0.5,1,2.125,0,,,,,0,6,6,6,,,,,,,,,86.27329570800066,91.39032433299872,86.27329570800066,86.27329570800066,86.27329570800066,86.27329570800066,86.72777725000196,87.72583683300036,86.740216624665,,88.34898816700297,89.34600983299606,88.36077370866794,,91.39032433299872,92.23935291700036,94.31648266699631,98.23656904199743,92.23935291700036,92.23935291700036,97.4237016670013,92.23935291700036,92.23935291700036,92.23935291700036,92.23935291700036,92.68131141699996,93.7426969579974,92.65324233366506,,94.31648266699631,95.38188183299644,94.28875874966276,,92.23935291700036,97.4237016670013,92.23935291700036,97.4237016670013,97.4237016670013,,92.23935291700036,2,1,1.2085960830008844,reldom2_s037,001,2025-03-14_13h57.19.771,Where-B-Scan_AC,2022.2.5,None,
6,Second_Order,1.0,audwhere,stimulus/audwhere_stim/right_toward_270h.wav,stimulus/audwhere_stim/right_away_290h.wav,stimulus/audwhere_stim/left_toward_300h.wav,stimulus/audwhere_stim/left_away_290h.wav,stimulus/audwhere_stim/match_blank.png,stimulus/audwhere_stim/match_box.png,stimulus/audwhere_stim/match_yes.png,stimulus/audwhere_stim/match_no.png,1.0,Match,Side,Side,1,5.125,0,5.125,0,5.125,0,5.125,0,0.625,0.625,0,0.0,0,0.0,0,0.0,0,0.0,1,0.5,1,2.125,1,0.5,1,2.125,0,,,,,0,7,7,7,,,,,,,,,98.23656904199743,103.34928145800222,98.23656904199743,98.23656904199743,98.23656904199743,98.23656904199743,98.68813329200202,99.68690954199701,98.7010943336684,,100.32145104200026,101.3119607080007,100.32519166666704,,103.34928145800222,104.07887450000271,106.15283379200264,110.17354049999994,104.07887450000271,104.07887450000271,109.24955987500289,104.07887450000271,104.07887450000271,104.07887450000271,104.07887450000271,104.519522124996,105.58014299999923,104.49185299966872,,106.15283379200264,107.21529783299775,106.12528645866793,,104.07887450000271,109.24955987500289,104.07887450000271,109.24955987500289,109.24955987500289,109.91313887500291,104.07887450000271,1,1,1.7513405839999905,reldom2_s037,001,2025-03-14_13h57.19.771,Where-B-Scan_AC,2022.2.5,None,
0,0.0,None,fixation,stimulus/audwhere_stim/blank_white.png,stimulus/audwhere_stim/blank_white.png,stimulus/viswhere_stim/blank_white.png,stimulus/viswhere_stim/blank_white.png,stimulus/audwhere_stim/blank_white.png,stimulus/audwhere_stim/blank_white.png,stimulus/audwhere_stim/blank_white.png,stimulus/audwhere_stim/blank_white.png,0.0,0.0,0.0,0.0,0,0.0,0,0.0,0,0.0,0,0.0,0,0.0,0.0,0,0.0,0,0.0,0,0.0,0,0.0,0,0.0,0,0.0,0,0.0,0,0.0,9,,,,,0,8,8,8,,,,,,,,,110.17354049999994,110.17354049999994,110.17354049999994,110.17354049999994,110.17354049999994,110.17354049999994,110.17354049999994,110.17354049999994,110.0855671253322,110.17354049999994,110.17354049999994,110.17354049999994,110.0855671253322,110.17354049999994,110.17354049999994,110.17354049999994,110.17354049999994,110.17354049999994,110.17354049999994,110.17354049999994,110.17354049999994,110.17354049999994,110.17354049999994,110.17354049999994,110.17354049999994,110.17354049999994,110.17354049999994,110.13556712533222,110.17354049999994,110.17354049999994,110.17354049999994,110.13556712533222,110.17354049999994,110.17354049999994,110.17354049999994,110.17354049999994,110.17354049999994,115.397488583003,115.397488583003,119.38829870799964,None,0,,reldom2_s037,001,2025-03-14_13h57.19.771,Where-B-Scan_AC,2022.2.5,None,
7,First_Order,2.0,audwhere,stimulus/audwhere_stim/dummy.wav,stimulus/audwhere_stim/dummy.wav,stimulus/audwhere_stim/left_toward_270h.wav,stimulus/audwhere_stim/right_toward_270h.wav,stimulus/audwhere_stim/blank_white.png,stimulus/audwhere_stim/direction_box.png,stimulus/audwhere_stim/direction_yes.png,stimulus/audwhere_stim/direction_no.png,None,Direction,None,Direction,1,0.0,0,5.125,0,5.125,0,5.125,0,0.0,0.625,0,0.0,0,0.0,0,0.0,0,0.0,0,0.0,0,0.0,1,0.5,1,2.125,0,,,,,0,9,9,9,,,,,,,,,119.38829870799964,119.38829870799964,119.38829870799964,119.38829870799964,119.38829870799964,119.38829870799964,119.38829870799964,119.38829870799964,119.31005983299693,119.38829870799964,119.38829870799964,119.38829870799964,119.31005983299693,119.38829870799964,119.38829870799964,119.38829870799964,121.49289424999733,,119.38829870799964,119.38829870799964,124.57925245800288,119.38829870799964,119.38829870799964,119.38829870799964,119.38829870799964,119.83635066699935,120.86539804199856,119.80814099966325,,121.49289424999733,122.52328433300136,121.46466012466796,,119.38829870799964,124.57925245800288,119.38829870799964,124.57925245800288,124.57925245800288,125.2461344580006,119.38829870799964,1,1,1.457377209000697,reldom2_s037,001,2025-03-14_13h57.19.771,Where-B-Scan_AC,2022.2.5,None,
8,First_Order,2.0,audwhere,stimulus/audwhere_stim/dummy.wav,stimulus/audwhere_stim/dummy.wav,stimulus/audwhere_stim/left_toward_280h.wav,stimulus/audwhere_stim/right_toward_290h.wav,stimulus/audwhere_stim/blank_white.png,stimulus/audwhere_stim/side_box.png,stimulus/audwhere_stim/side_yes.png,stimulus/audwhere_stim/side_no.png,None,Side,None,Direction,2,0.0,0,5.125,0,5.125,0,5.125,0,0.0,0.625,0,0.0,0,0.0,0,0.0,0,0.0,0,0.0,0,0.0,1,0.5,1,2.125,0,,,,,0,10,10,10,,,,,,,,,125.49023708300228,125.49023708300228,125.49023708300228,125.49023708300228,125.49023708300228,125.49023708300228,125.49023708300228,125.49023708300228,125.41990241633368,125.49023708300228,125.49023708300228,125.49023708300228,125.41990241633368,125.49023708300228,125.49023708300228,125.49023708300228,127.59127908299706,,125.49023708300228,125.49023708300228,130.6754675830016,125.49023708300228,125.49023708300228,125.49023708300228,125.49023708300228,125.981702416997,127.01014858300186,125.95352320866756,,127.59127908299706,128.62094504199922,127.56309691666344,,125.49023708300228,130.6754675830016,125.49023708300228,130.6754675830016,130.71522079200076,131.38298045800184,125.49023708300228,2,1,1.2752512919978471,reldom2_s037,001,2025-03-14_13h57.19.771,Where-B-Scan_AC,2022.2.5,None,
9,First_Order,2.0,audwhere,stimulus/audwhere_stim/dummy.wav,stimulus/audwhere_stim/dummy.wav,stimulus/audwhere_stim/left_away_270h.wav,stimulus/audwhere_stim/left_toward_290h.wav,stimulus/audwhere_stim/blank_white.png,stimulus/audwhere_stim/side_box.png,stimulus/audwhere_stim/side_yes.png,stimulus/audwhere_stim/side_no.png,None,Side,None,Side,1,0.0,0,5.125,0,5.125,0,5.125,0,0.0,0.625,0,0.0,0,0.0,0,0.0,0,0.0,0,0.0,0,0.0,1,0.5,1,2.125,0,,,,,0,11,11,11,,,,,,,,,131.58825716700085,131.58825716700085,131.58825716700085,131.58825716700085,131.58825716700085,131.58825716700085,131.58825716700085,131.58825716700085,131.5163137913352,131.58825716700085,131.58825716700085,131.58825716700085,131.5163137913352,131.58825716700085,131.58825716700085,131.58825716700085,133.692794417002,137.70008754199807,131.58825716700085,131.58825716700085,136.7387657500003,131.58825716700085,131.58825716700085,131.58825716700085,131.58825716700085,132.0365910420005,133.0654008749989,132.00826654166693,,133.692794417002,134.72411791700142,133.66447320866817,,131.58825716700085,136.7387657500003,131.58825716700085,136.7387657500003,136.81791404199612,137.4953642920009,131.58825716700085,1,1,1.310920376003196,reldom2_s037,001,2025-03-14_13h57.19.771,Where-B-Scan_AC,2022.2.5,None,
10,First_Order,2.0,audwhere,stimulus/audwhere_stim/dummy.wav,stimulus/audwhere_stim/dummy.wav,stimulus/audwhere_stim/right_away_290h.wav,stimulus/audwhere_stim/right_toward_290h.wav,stimulus/audwhere_stim/blank_white.png,stimulus/audwhere_stim/side_box.png,stimulus/audwhere_stim/side_yes.png,stimulus/audwhere_stim/side_no.png,None,Side,None,Side,1,0.0,0,5.125,0,5.125,0,5.125,0,0.0,0.625,0,0.0,0,0.0,0,0.0,0,0.0,0,0.0,0,0.0,1,0.5,1,2.125,0,,,,,0,12,12,12,,,,,,,,,137.70008754199807,137.70008754199807,137.70008754199807,137.70008754199807,137.70008754199807,137.70008754199807,137.70008754199807,137.70008754199807,137.62869762533424,137.70008754199807,137.70008754199807,137.70008754199807,137.62869762533424,137.70008754199807,137.70008754199807,137.70008754199807,139.81162137499632,,137.70008754199807,137.70008754199807,142.8731560419983,137.70008754199807,137.70008754199807,137.70008754199807,137.70008754199807,138.14888641700236,139.1812783330024,138.12037754166911,,139.81162137499632,140.8480752079995,139.78289949966373,,137.70008754199807,142.8731560419983,137.70008754199807,142.8731560419983,142.91284195800108,143.58678466700076,137.70008754199807,1,1,1.2810155000042869,reldom2_s037,001,2025-03-14_13h57.19.771,Where-B-Scan_AC,2022.2.5,None,
0,0.0,None,fixation,stimulus/audwhere_stim/blank_white.png,stimulus/audwhere_stim/blank_white.png,stimulus/viswhere_stim/blank_white.png,stimulus/viswhere_stim/blank_white.png,stimulus/audwhere_stim/blank_white.png,stimulus/audwhere_stim/blank_white.png,stimulus/audwhere_stim/blank_white.png,stimulus/audwhere_stim/blank_white.png,0.0,0.0,0.0,0.0,0,0.0,0,0.0,0,0.0,0,0.0,0,0.0,0.0,0,0.0,0,0.0,0,0.0,0,0.0,0,0.0,0,0.0,0,0.0,0,0.0,9,,,,,0,13,13,13,,,,,,,,,143.8121836249993,143.8121836249993,143.8121836249993,143.8121836249993,143.8121836249993,143.8121836249993,143.8121836249993,143.8121836249993,143.7201180003341,143.8121836249993,143.8121836249993,143.8121836249993,143.7201180003341,143.8121836249993,143.8121836249993,143.8121836249993,143.8121836249993,143.8121836249993,143.8121836249993,143.8121836249993,143.8121836249993,143.8121836249993,143.8121836249993,143.8121836249993,143.8121836249993,143.8121836249993,143.8121836249993,143.7701180003341,143.8121836249993,143.8121836249993,143.8121836249993,143.7701180003341,143.8121836249993,143.8121836249993,143.8121836249993,143.8121836249993,143.8121836249993,149.02354066699627,149.02354066699627,152.93802579199837,None,0,,reldom2_s037,001,2025-03-14_13h57.19.771,Where-B-Scan_AC,2022.2.5,None,
11,Second_Order,2.0,audwhere,stimulus/audwhere_stim/left_toward_280h.wav,stimulus/audwhere_stim/left_away_290h.wav,stimulus/audwhere_stim/left_away_290h.wav,stimulus/audwhere_stim/right_away_280h.wav,stimulus/audwhere_stim/match_blank.png,stimulus/audwhere_stim/match_box.png,stimulus/audwhere_stim/match_yes.png,stimulus/audwhere_stim/match_no.png,2.0,Match,Side,Direction,2,5.125,0,5.125,0,5.125,0,5.125,0,0.75,0.75,0,0.0,0,0.0,0,0.0,0,0.0,1,0.5,1,2.125,1,0.5,1,2.125,0,,,,,0,14,14,14,,,,,,,,,152.93802579199837,158.05913224999676,152.93802579199837,152.93802579199837,152.93802579199837,152.93802579199837,153.3965035000001,154.38332375000027,153.41048179166344,,155.01944574999652,156.01670687500155,155.03160337466787,,158.05913224999676,158.90694795799936,160.96426183299627,,158.90694795799936,158.90694795799936,164.05893495799683,158.90694795799936,158.90694795799936,158.90694795799936,158.90694795799936,159.35849620799854,160.42869804200018,159.33028220866643,,160.96426183299627,161.99663208299899,160.93604254166374,,158.90694795799936,164.05893495799683,158.90694795799936,164.05893495799683,164.09857312499662,,158.90694795799936,1,0,1.8953042499997537,reldom2_s037,001,2025-03-14_13h57.19.771,Where-B-Scan_AC,2022.2.5,None,
12,Second_Order,2.0,audwhere,stimulus/audwhere_stim/left_away_270h.wav,stimulus/audwhere_stim/left_toward_280h.wav,stimulus/audwhere_stim/right_away_280h.wav,stimulus/audwhere_stim/right_toward_300h.wav,stimulus/audwhere_stim/match_blank.png,stimulus/audwhere_stim/match_box.png,stimulus/audwhere_stim/match_yes.png,stimulus/audwhere_stim/match_no.png,1.0,Match,Side,Side,1,5.125,0,5.125,0,5.125,0,5.125,0,0.625,0.625,0,0.0,0,0.0,0,0.0,0,0.0,1,0.5,1,2.125,1,0.5,1,2.125,0,,,,,0,15,15,15,,,,,,,,,164.88167129200156,170.0050118329964,164.88167129200156,164.88167129200156,164.88167129200156,164.88167129200156,165.340338916998,166.32715929199912,165.35449537466437,,166.9629533749976,167.96095766699727,166.97520541666407,,170.0050118329964,170.73437562499748,172.78104837499995,176.84023095799785,170.73437562499748,170.73437562499748,175.9097932500008,170.73437562499748,170.73437562499748,170.73437562499748,170.73437562499748,171.17808420799702,172.2466653329975,171.15016329166636,,172.78104837499995,173.8108602919965,172.75299954166647,,170.73437562499748,175.9097932500008,170.73437562499748,175.9097932500008,175.9097932500008,176.57757004199811,170.73437562499748,1,1,1.6590878749993863,reldom2_s037,001,2025-03-14_13h57.19.771,Where-B-Scan_AC,2022.2.5,None,
0,0.0,None,fixation,stimulus/audwhere_stim/blank_white.png,stimulus/audwhere_stim/blank_white.png,stimulus/viswhere_stim/blank_white.png,stimulus/viswhere_stim/blank_white.png,stimulus/audwhere_stim/blank_white.png,stimulus/audwhere_stim/blank_white.png,stimulus/audwhere_stim/blank_white.png,stimulus/audwhere_stim/blank_white.png,0.0,0.0,0.0,0.0,0,0.0,0,0.0,0,0.0,0,0.0,0,0.0,0.0,0,0.0,0,0.0,0,0.0,0,0.0,0,0.0,0,0.0,0,0.0,0,0.0,8,,,,,0,16,16,16,,,,,,,,,176.84023095799785,176.84023095799785,176.84023095799785,176.84023095799785,176.84023095799785,176.84023095799785,176.84023095799785,176.84023095799785,176.74970108333414,176.84023095799785,176.84023095799785,176.84023095799785,176.74970108333414,176.84023095799785,176.84023095799785,176.84023095799785,176.84023095799785,176.84023095799785,176.84023095799785,176.84023095799785,176.84023095799785,176.84023095799785,176.84023095799785,176.84023095799785,176.84023095799785,176.84023095799785,176.84023095799785,176.79970108333413,176.84023095799785,176.84023095799785,176.84023095799785,176.79970108333413,176.84023095799785,176.84023095799785,176.84023095799785,176.84023095799785,176.84023095799785,182.06385225000122,182.06385225000122,185.01440362499852,None,0,,reldom2_s037,001,2025-03-14_13h57.19.771,Where-B-Scan_AC,2022.2.5,None,
13,First_Order,3.0,viswhere,stimulus/viswhere_stim/blank_white.png,stimulus/viswhere_stim/blank_white.png,stimulus/viswhere_stim/150-deg_dot-left_seagreen.png,stimulus/viswhere_stim/150-deg_dot-right_royalblue.png,stimulus/viswhere_stim/blank_white.png,stimulus/viswhere_stim/line_box.png,stimulus/viswhere_stim/line_yes.png,stimulus/viswhere_stim/line_no.png,None,Line,None,Line,1,0.0,0,5.125,0,5.125,0,5.125,0,0.0,0.625,0,0.0,0,0.0,1,0.5,1,2.125,0,0.0,0,0.0,0,0.0,0,0.0,0,,,,,0,17,17,17,,,,,,,,,185.01440362499852,185.01440362499852,185.01440362499852,185.01440362499852,185.01440362499852,185.01440362499852,185.01440362499852,185.01440362499852,184.98418258299935,185.01440362499852,185.01440362499852,185.01440362499852,184.98418258299935,185.01440362499852,185.01440362499852,185.01440362499852,187.11108904200228,191.08251329199993,185.01440362499852,185.01440362499852,190.15137633300037,185.49261750000005,186.50230824999744,187.11108904200228,188.12793312499707,185.01440362499852,185.01440362499852,185.00084924966603,185.01440362499852,185.01440362499852,185.01440362499852,185.00084924966603,185.01440362499852,185.01440362499852,190.15137633300037,185.01440362499852,190.15137633300037,190.23891337499663,190.86535162499786,185.01440362499852,1,1,1.3486491669973475,reldom2_s037,001,2025-03-14_13h57.19.771,Where-B-Scan_AC,2022.2.5,None,
14,First_Order,3.0,viswhere,stimulus/viswhere_stim/blank_white.png,stimulus/viswhere_stim/blank_white.png,stimulus/viswhere_stim/90-deg_dot-right_cyan.png,stimulus/viswhere_stim/90-deg_dot-left_turquoise.png,stimulus/viswhere_stim/blank_white.png,stimulus/viswhere_stim/line_box.png,stimulus/viswhere_stim/line_yes.png,stimulus/viswhere_stim/line_no.png,None,Line,None,Line,1,0.0,0,5.125,0,5.125,0,5.125,0,0.0,0.625,0,0.0,0,0.0,1,0.5,1,2.125,0,0.0,0,0.0,0,0.0,0,0.0,0,,,,,0,18,18,18,,,,,,,,,191.08251329199993,191.08251329199993,191.08251329199993,191.08251329199993,191.08251329199993,191.08251329199993,191.08251329199993,191.08251329199993,191.0634339583315,191.08251329199993,191.08251329199993,191.08251329199993,191.0634339583315,191.08251329199993,191.08251329199993,191.08251329199993,193.1879651670024,197.14958970800217,191.08251329199993,191.08251329199993,196.21334066699637,191.55783629199868,192.56280404199788,193.1879651670024,194.2011359579992,191.08251329199993,191.08251329199993,191.0634339583315,191.08251329199993,191.08251329199993,191.08251329199993,191.0634339583315,191.08251329199993,191.08251329199993,196.21334066699637,191.08251329199993,196.21334066699637,196.31179720799992,196.9404857920017,191.08251329199993,1,1,0.9111478329941747,reldom2_s037,001,2025-03-14_13h57.19.771,Where-B-Scan_AC,2022.2.5,None,
15,First_Order,3.0,viswhere,stimulus/viswhere_stim/blank_white.png,stimulus/viswhere_stim/blank_white.png,stimulus/viswhere_stim/60-deg_dot-right_salmon.png,stimulus/viswhere_stim/150-deg_dot-right_turquoise.png,stimulus/viswhere_stim/blank_white.png,stimulus/viswhere_stim/dot_box.png,stimulus/viswhere_stim/dot_yes.png,stimulus/viswhere_stim/dot_no.png,None,Dot,None,Dot,1,0.0,0,5.125,0,5.125,0,5.125,0,0.0,0.625,0,0.0,0,0.0,1,0.5,1,2.125,0,0.0,0,0.0,0,0.0,0,0.0,0,,,,,0,19,19,19,,,,,,,,,197.14958970800217,197.14958970800217,197.14958970800217,197.14958970800217,197.14958970800217,197.14958970800217,197.14958970800217,197.14958970800217,197.1303115003296,197.14958970800217,197.14958970800217,197.14958970800217,197.1303115003296,197.14958970800217,197.14958970800217,197.14958970800217,199.2554569999993,203.2172927080028,197.14958970800217,197.14958970800217,202.28484466699592,197.62627345800138,198.63208887499786,199.2554569999993,200.26894470799743,197.14958970800217,197.14958970800217,197.1303115003296,197.14958970800217,197.14958970800217,197.14958970800217,197.1303115003296,197.14958970800217,197.14958970800217,202.28484466699592,197.14958970800217,202.28484466699592,202.3671547920021,203.00123337499826,197.14958970800217,1,1,0.987085125001613,reldom2_s037,001,2025-03-14_13h57.19.771,Where-B-Scan_AC,2022.2.5,None,
16,First_Order,3.0,viswhere,stimulus/viswhere_stim/blank_white.png,stimulus/viswhere_stim/blank_white.png,stimulus/viswhere_stim/120-deg_dot-left_peru.png,stimulus/viswhere_stim/120-deg_dot-right_royalblue.png,stimulus/viswhere_stim/blank_white.png,stimulus/viswhere_stim/dot_box.png,stimulus/viswhere_stim/dot_yes.png,stimulus/viswhere_stim/dot_no.png,None,Dot,None,Line,2,0.0,0,5.125,0,5.125,0,5.125,0,0.0,0.625,0,0.0,0,0.0,1,0.5,1,2.125,0,0.0,0,0.0,0,0.0,0,0.0,0,,,,,0,20,20,20,,,,,,,,,203.2172927080028,203.2172927080028,203.2172927080028,203.2172927080028,203.2172927080028,203.2172927080028,203.2172927080028,203.2172927080028,203.19818495832928,203.2172927080028,203.2172927080028,203.2172927080028,203.19818495832928,203.2172927080028,203.2172927080028,203.2172927080028,205.33309812499647,209.35840699999972,203.2172927080028,203.2172927080028,208.3448469579962,203.70912462499837,204.71098674999666,205.33309812499647,206.33941016699828,203.2172927080028,203.2172927080028,203.19818495832928,203.2172927080028,203.2172927080028,203.2172927080028,203.19818495832928,203.2172927080028,203.2172927080028,208.3448469579962,203.2172927080028,208.3448469579962,208.44088733299577,209.0716505829987,203.2172927080028,2,1,1.1296764170037932,reldom2_s037,001,2025-03-14_13h57.19.771,Where-B-Scan_AC,2022.2.5,None,
0,0.0,None,fixation,stimulus/audwhere_stim/blank_white.png,stimulus/audwhere_stim/blank_white.png,stimulus/viswhere_stim/blank_white.png,stimulus/viswhere_stim/blank_white.png,stimulus/audwhere_stim/blank_white.png,stimulus/audwhere_stim/blank_white.png,stimulus/audwhere_stim/blank_white.png,stimulus/audwhere_stim/blank_white.png,0.0,0.0,0.0,0.0,0,0.0,0,0.0,0,0.0,0,0.0,0,0.0,0.0,0,0.0,0,0.0,0,0.0,0,0.0,0,0.0,0,0.0,0,0.0,0,0.0,10,,,,,0,21,21,21,,,,,,,,,209.35840699999972,209.35840699999972,209.35840699999972,209.35840699999972,209.35840699999972,209.35840699999972,209.35840699999972,209.35840699999972,209.26193154132974,209.35840699999972,209.35840699999972,209.35840699999972,209.26193154132974,209.35840699999972,209.35840699999972,209.35840699999972,209.35840699999972,209.35840699999972,209.35840699999972,209.35840699999972,209.35840699999972,209.35840699999972,209.35840699999972,209.35840699999972,209.35840699999972,209.35840699999972,209.35840699999972,209.31193154132976,209.35840699999972,209.35840699999972,209.35840699999972,209.31193154132976,209.35840699999972,209.35840699999972,209.35840699999972,209.35840699999972,209.35840699999972,214.5777053749989,214.5777053749989,219.49982608299615,None,0,,reldom2_s037,001,2025-03-14_13h57.19.771,Where-B-Scan_AC,2022.2.5,None,
17,Second_Order,3.0,viswhere,stimulus/viswhere_stim/90-deg_dot-left_lightsseagreen.png,stimulus/viswhere_stim/90-deg_dot-right_lightsseagreen.png,stimulus/viswhere_stim/120-deg_dot-right_cyan.png,stimulus/viswhere_stim/60-deg_dot-right_royalblue.png,stimulus/audwhere_stim/match_blank.png,stimulus/audwhere_stim/match_box.png,stimulus/audwhere_stim/match_yes.png,stimulus/audwhere_stim/match_no.png,2.0,Match,Line,Dot,2,5.125,0,5.125,0,5.125,0,5.125,0,0.75,0.75,1,0.5,1,2.125,1,0.5,1,2.125,0,0.0,0,0.0,0,0.0,0,0.0,0,,,,,0,22,22,22,,,,,,,,,219.49982608299615,224.6135084580019,219.9811037920008,220.96973058299773,221.6060371249987,222.60417625000264,219.49982608299615,219.49982608299615,219.49892116666695,219.49982608299615,219.49982608299615,219.49982608299615,219.49892116666695,219.49982608299615,224.6135084580019,225.40624537500116,227.48705066699767,231.369403333003,225.40624537500116,225.40624537500116,230.54205858299974,225.86121470799844,226.8808916670023,227.48705066699767,228.4933558749981,225.40624537500116,225.40624537500116,225.3803632503337,225.40624537500116,225.40624537500116,225.40624537500116,225.3803632503337,225.40624537500116,225.40624537500116,230.54205858299974,225.40624537500116,230.54205858299974,230.59875808299694,231.369403333003,225.40624537500116,2,1,2.281757500000822,reldom2_s037,001,2025-03-14_13h57.19.771,Where-B-Scan_AC,2022.2.5,None,
18,Second_Order,3.0,viswhere,stimulus/viswhere_stim/90-deg_dot-left_lightsseagreen.png,stimulus/viswhere_stim/60-deg_dot-left_mediumslateblue.png,stimulus/viswhere_stim/60-deg_dot-right_lightsseagreen.png,stimulus/viswhere_stim/30-deg_dot-right_goldenrod.png,stimulus/audwhere_stim/match_blank.png,stimulus/audwhere_stim/match_box.png,stimulus/audwhere_stim/match_yes.png,stimulus/audwhere_stim/match_no.png,1.0,Match,Dot,Dot,1,5.125,0,5.125,0,5.125,0,5.125,0,0.625,0.625,1,0.5,1,2.125,1,0.5,1,2.125,0,0.0,0,0.0,0,0.0,0,0.0,0,,,,,0,23,23,23,,,,,,,,,231.369403333003,236.49085624999861,231.84602395800175,232.84429850000015,233.47907883299922,234.46928433299763,231.369403333003,231.369403333003,231.3833411670028,231.369403333003,231.369403333003,231.369403333003,231.3833411670028,231.369403333003,236.49085624999861,237.16077791700081,239.23226562499622,243.2714613749995,237.16077791700081,237.16077791700081,242.29877312499593,237.61637229200278,238.63095520799834,239.23226562499622,240.2385783330028,237.16077791700081,237.16077791700081,237.13718312533507,237.16077791700081,237.16077791700081,237.16077791700081,237.13718312533507,237.16077791700081,237.16077791700081,242.29877312499593,237.16077791700081,242.29877312499593,242.35539491700183,243.00030549999792,237.16077791700081,1,1,1.127984375001688,reldom2_s037,001,2025-03-14_13h57.19.771,Where-B-Scan_AC,2022.2.5,None,
0,0.0,None,fixation,stimulus/audwhere_stim/blank_white.png,stimulus/audwhere_stim/blank_white.png,stimulus/viswhere_stim/blank_white.png,stimulus/viswhere_stim/blank_white.png,stimulus/audwhere_stim/blank_white.png,stimulus/audwhere_stim/blank_white.png,stimulus/audwhere_stim/blank_white.png,stimulus/audwhere_stim/blank_white.png,0.0,0.0,0.0,0.0,0,0.0,0,0.0,0,0.0,0,0.0,0,0.0,0.0,0,0.0,0,0.0,0,0.0,0,0.0,0,0.0,0,0.0,0,0.0,0,0.0,9,,,,,0,24,24,24,,,,,,,,,243.2714613749995,243.2714613749995,243.2714613749995,243.2714613749995,243.2714613749995,243.2714613749995,243.2714613749995,243.2714613749995,243.17671079133046,243.2714613749995,243.2714613749995,243.2714613749995,243.17671079133046,243.2714613749995,243.2714613749995,243.2714613749995,243.2714613749995,243.2714613749995,243.2714613749995,243.2714613749995,243.2714613749995,243.2714613749995,243.2714613749995,243.2714613749995,243.2714613749995,243.2714613749995,243.2714613749995,243.22671079133048,243.2714613749995,243.2714613749995,243.2714613749995,243.22671079133048,243.2714613749995,243.2714613749995,243.2714613749995,243.2714613749995,243.2714613749995,248.48218858300243,248.48218858300243,252.4428894169978,None,0,,reldom2_s037,001,2025-03-14_13h57.19.771,Where-B-Scan_AC,2022.2.5,None,
19,First_Order,4.0,viswhere,stimulus/viswhere_stim/blank_white.png,stimulus/viswhere_stim/blank_white.png,stimulus/viswhere_stim/90-deg_dot-left_seagreen.png,stimulus/viswhere_stim/150-deg_dot-left_lightsseagreen.png,stimulus/viswhere_stim/blank_white.png,stimulus/viswhere_stim/dot_box.png,stimulus/viswhere_stim/dot_yes.png,stimulus/viswhere_stim/dot_no.png,None,Dot,None,Dot,1,0.0,0,5.125,0,5.125,0,5.125,0,0.0,0.625,0,0.0,0,0.0,1,0.5,1,2.125,0,0.0,0,0.0,0,0.0,0,0.0,0,,,,,0,25,25,25,,,,,,,,,252.4428894169978,252.4428894169978,252.4428894169978,252.4428894169978,252.4428894169978,252.4428894169978,252.4428894169978,252.4428894169978,252.41110837500165,252.4428894169978,252.4428894169978,252.4428894169978,252.41110837500165,252.4428894169978,252.4428894169978,252.4428894169978,254.53865883300023,258.5053148329971,252.4428894169978,252.4428894169978,257.5732349579994,252.9195820419991,253.93039683299867,254.53865883300023,255.55456841699925,252.4428894169978,252.4428894169978,252.42777504166833,252.4428894169978,252.4428894169978,252.4428894169978,252.42777504166833,252.4428894169978,252.4428894169978,257.5732349579994,252.4428894169978,257.5732349579994,257.6705190829962,258.31916170800105,252.4428894169978,1,1,0.980816417002643,reldom2_s037,001,2025-03-14_13h57.19.771,Where-B-Scan_AC,2022.2.5,None,
20,First_Order,4.0,viswhere,stimulus/viswhere_stim/blank_white.png,stimulus/viswhere_stim/blank_white.png,stimulus/viswhere_stim/30-deg_dot-left_peru.png,stimulus/viswhere_stim/30-deg_dot-right_salmon.png,stimulus/viswhere_stim/blank_white.png,stimulus/viswhere_stim/dot_box.png,stimulus/viswhere_stim/dot_yes.png,stimulus/viswhere_stim/dot_no.png,None,Dot,None,Line,2,0.0,0,5.125,0,5.125,0,5.125,0,0.0,0.625,0,0.0,0,0.0,1,0.5,1,2.125,0,0.0,0,0.0,0,0.0,0,0.0,0,,,,,0,26,26,26,,,,,,,,,258.5053148329971,258.5053148329971,258.5053148329971,258.5053148329971,258.5053148329971,258.5053148329971,258.5053148329971,258.5053148329971,258.4858339163305,258.5053148329971,258.5053148329971,258.5053148329971,258.4858339163305,258.5053148329971,258.5053148329971,258.5053148329971,260.606203000003,264.5682547920005,258.5053148329971,258.5053148329971,263.63909779200185,258.97862466699735,259.98260650000157,260.606203000003,261.614952750002,258.5053148329971,258.5053148329971,258.4858339163305,258.5053148329971,258.5053148329971,258.5053148329971,258.4858339163305,258.5053148329971,258.5053148329971,263.63909779200185,258.5053148329971,263.63909779200185,263.73488620799617,264.38301458299975,258.5053148329971,2,1,0.9880788750015199,reldom2_s037,001,2025-03-14_13h57.19.771,Where-B-Scan_AC,2022.2.5,None,
21,First_Order,4.0,viswhere,stimulus/viswhere_stim/blank_white.png,stimulus/viswhere_stim/blank_white.png,stimulus/viswhere_stim/60-deg_dot-left_lightsseagreen.png,stimulus/viswhere_stim/30-deg_dot-left_slateblue.png,stimulus/viswhere_stim/blank_white.png,stimulus/viswhere_stim/line_box.png,stimulus/viswhere_stim/line_yes.png,stimulus/viswhere_stim/line_no.png,None,Line,None,Dot,2,0.0,0,5.125,0,5.125,0,5.125,0,0.0,0.625,0,0.0,0,0.0,1,0.5,1,2.125,0,0.0,0,0.0,0,0.0,0,0.0,0,,,,,0,27,27,27,,,,,,,,,264.5682547920005,264.5682547920005,264.5682547920005,264.5682547920005,264.5682547920005,264.5682547920005,264.5682547920005,264.5682547920005,264.5497336663296,264.5682547920005,264.5682547920005,264.5682547920005,264.5497336663296,264.5682547920005,264.5682547920005,264.5682547920005,266.67493566699704,270.62624012499873,264.5682547920005,264.5682547920005,269.70206066699757,265.0422788329961,266.049946207997,266.67493566699704,267.6870523329999,264.5682547920005,264.5682547920005,264.5497336663296,264.5682547920005,264.5682547920005,264.5682547920005,264.5497336663296,264.5682547920005,264.5682547920005,269.70206066699757,264.5682547920005,269.70206066699757,269.78929845799576,270.4139869169958,264.5682547920005,1,0,1.2109960419984418,reldom2_s037,001,2025-03-14_13h57.19.771,Where-B-Scan_AC,2022.2.5,None,
22,First_Order,4.0,viswhere,stimulus/viswhere_stim/blank_white.png,stimulus/viswhere_stim/blank_white.png,stimulus/viswhere_stim/120-deg_dot-right_peru.png,stimulus/viswhere_stim/150-deg_dot-right_peru.png,stimulus/viswhere_stim/blank_white.png,stimulus/viswhere_stim/line_box.png,stimulus/viswhere_stim/line_yes.png,stimulus/viswhere_stim/line_no.png,None,Line,None,Dot,2,0.0,0,5.125,0,5.125,0,5.125,0,0.0,0.625,0,0.0,0,0.0,1,0.5,1,2.125,0,0.0,0,0.0,0,0.0,0,0.0,0,,,,,0,28,28,28,,,,,,,,,270.62624012499873,270.62624012499873,270.62624012499873,270.62624012499873,270.62624012499873,270.62624012499873,270.62624012499873,270.62624012499873,270.6069870833356,270.62624012499873,270.62624012499873,270.62624012499873,270.6069870833356,270.62624012499873,270.62624012499873,270.62624012499873,272.7258141249986,276.7638372079964,270.62624012499873,270.62624012499873,275.7502511670027,271.1026354170026,272.11524566700245,272.7258141249986,273.7437789579999,270.62624012499873,270.62624012499873,270.6069870833356,270.62624012499873,270.62624012499873,270.62624012499873,270.6069870833356,270.62624012499873,270.62624012499873,275.7502511670027,270.62624012499873,275.7502511670027,275.8471156250016,276.4743369580028,270.62624012499873,1,0,1.3862873749967548,reldom2_s037,001,2025-03-14_13h57.19.771,Where-B-Scan_AC,2022.2.5,None,
0,0.0,None,fixation,stimulus/audwhere_stim/blank_white.png,stimulus/audwhere_stim/blank_white.png,stimulus/viswhere_stim/blank_white.png,stimulus/viswhere_stim/blank_white.png,stimulus/audwhere_stim/blank_white.png,stimulus/audwhere_stim/blank_white.png,stimulus/audwhere_stim/blank_white.png,stimulus/audwhere_stim/blank_white.png,0.0,0.0,0.0,0.0,0,0.0,0,0.0,0,0.0,0,0.0,0,0.0,0.0,0,0.0,0,0.0,0,0.0,0,0.0,0,0.0,0,0.0,0,0.0,0,0.0,10,,,,,0,29,29,29,,,,,,,,,276.7638372079964,276.7638372079964,276.7638372079964,276.7638372079964,276.7638372079964,276.7638372079964,276.7638372079964,276.7638372079964,276.668405333335,276.7638372079964,276.7638372079964,276.7638372079964,276.668405333335,276.7638372079964,276.7638372079964,276.7638372079964,276.7638372079964,276.7638372079964,276.7638372079964,276.7638372079964,276.7638372079964,276.7638372079964,276.7638372079964,276.7638372079964,276.7638372079964,276.7638372079964,276.7638372079964,276.718405333335,276.7638372079964,276.7638372079964,276.7638372079964,276.718405333335,276.7638372079964,276.7638372079964,276.7638372079964,276.7638372079964,276.7638372079964,281.9690145830027,281.9690145830027,286.87355141699663,None,0,,reldom2_s037,001,2025-03-14_13h57.19.771,Where-B-Scan_AC,2022.2.5,None,
23,Second_Order,4.0,viswhere,stimulus/viswhere_stim/60-deg_dot-right_peru.png,stimulus/viswhere_stim/60-deg_dot-left_royalblue.png,stimulus/viswhere_stim/90-deg_dot-left_slateblue.png,stimulus/viswhere_stim/90-deg_dot-right_royalblue.png,stimulus/audwhere_stim/match_blank.png,stimulus/audwhere_stim/match_box.png,stimulus/audwhere_stim/match_yes.png,stimulus/audwhere_stim/match_no.png,1.0,Match,Line,Line,1,5.125,0,5.125,0,5.125,0,5.125,0,0.75,0.75,1,0.5,1,2.125,1,0.5,1,2.125,0,0.0,0,0.0,0,0.0,0,0.0,0,,,,,0,30,30,30,,,,,,,,,286.87355141699663,291.98634579200007,287.35577362500044,288.34301699999924,288.97788887500064,289.9763600419974,286.87355141699663,286.87355141699663,286.8721906246627,286.87355141699663,286.87355141699663,286.87355141699663,286.8721906246627,286.87355141699663,291.98634579200007,292.77597304200026,294.85619420799776,298.747591542,292.77597304200026,292.77597304200026,297.9017695829971,293.2352638750017,294.24689704200136,294.85619420799776,295.8739787500017,292.77597304200026,292.77597304200026,292.75238770832993,292.77597304200026,292.77597304200026,292.77597304200026,292.75238770832993,292.77597304200026,292.77597304200026,297.9017695829971,292.77597304200026,297.9017695829971,297.9712405829996,298.747591542,292.77597304200026,1,1,1.3534806249954272,reldom2_s037,001,2025-03-14_13h57.19.771,Where-B-Scan_AC,2022.2.5,None,
24,Second_Order,4.0,viswhere,stimulus/viswhere_stim/120-deg_dot-left_peru.png,stimulus/viswhere_stim/120-deg_dot-right_peru.png,stimulus/viswhere_stim/30-deg_dot-right_peru.png,stimulus/viswhere_stim/30-deg_dot-left_lightsseagreen.png,stimulus/audwhere_stim/match_blank.png,stimulus/audwhere_stim/match_box.png,stimulus/audwhere_stim/match_yes.png,stimulus/audwhere_stim/match_no.png,1.0,Match,Line,Line,1,5.125,0,5.125,0,5.125,0,5.125,0,0.625,0.625,1,0.5,1,2.125,1,0.5,1,2.125,0,0.0,0,0.0,0,0.0,0,0.0,0,,,,,0,31,31,31,,,,,,,,,298.747591542,303.862615207996,299.2339731249958,300.2198661250004,300.85566424999706,301.8537851250003,298.747591542,298.747591542,298.7623747500009,298.747591542,298.747591542,298.747591542,298.7623747500009,298.747591542,303.862615207996,304.5350457500026,306.6194206250002,310.64077837499644,304.5350457500026,304.5350457500026,309.65946904200246,304.9918199579988,305.9956086250022,306.6194206250002,307.6290183750025,304.5350457500026,304.5350457500026,304.5097839583327,304.5350457500026,304.5350457500026,304.5350457500026,304.5097839583327,304.5350457500026,304.5350457500026,309.65946904200246,304.5350457500026,309.65946904200246,309.7278932920017,310.3558282919985,304.5350457500026,1,1,1.0051685420039576,reldom2_s037,001,2025-03-14_13h57.19.771,Where-B-Scan_AC,2022.2.5,None,
0,0.0,None,fixation,stimulus/audwhere_stim/blank_white.png,stimulus/audwhere_stim/blank_white.png,stimulus/viswhere_stim/blank_white.png,stimulus/viswhere_stim/blank_white.png,stimulus/audwhere_stim/blank_white.png,stimulus/audwhere_stim/blank_white.png,stimulus/audwhere_stim/blank_white.png,stimulus/audwhere_stim/blank_white.png,0.0,0.0,0.0,0.0,0,0.0,0,0.0,0,0.0,0,0.0,0,0.0,0.0,0,0.0,0,0.0,0,0.0,0,0.0,0,0.0,0,0.0,0,0.0,0,0.0,9,,,,,0,32,32,32,,,,,,,,,310.64077837499644,310.64077837499644,310.64077837499644,310.64077837499644,310.64077837499644,310.64077837499644,310.64077837499644,310.64077837499644,310.54563587533386,310.64077837499644,310.64077837499644,310.64077837499644,310.54563587533386,310.64077837499644,310.64077837499644,310.64077837499644,310.64077837499644,310.64077837499644,310.64077837499644,310.64077837499644,310.64077837499644,310.64077837499644,310.64077837499644,310.64077837499644,310.64077837499644,310.64077837499644,310.64077837499644,310.59563587533387,310.64077837499644,310.64077837499644,310.64077837499644,310.59563587533387,310.64077837499644,310.64077837499644,310.64077837499644,310.64077837499644,310.64077837499644,315.8239997080018,315.8239997080018,319.9060014170027,None,0,,reldom2_s037,001,2025-03-14_13h57.19.771,Where-B-Scan_AC,2022.2.5,None,
25,First_Order,5.0,audwhere,stimulus/audwhere_stim/dummy.wav,stimulus/audwhere_stim/dummy.wav,stimulus/audwhere_stim/right_toward_280h.wav,stimulus/audwhere_stim/right_away_290h.wav,stimulus/audwhere_stim/blank_white.png,stimulus/audwhere_stim/side_box.png,stimulus/audwhere_stim/side_yes.png,stimulus/audwhere_stim/side_no.png,None,Side,None,Side,1,0.0,0,5.125,0,5.125,0,5.125,0,0.0,0.625,0,0.0,0,0.0,0,0.0,0,0.0,0,0.0,0,0.0,1,0.5,1,2.125,0,,,,,0,33,33,33,,,,,,,,,319.9060014170027,319.9060014170027,319.9060014170027,319.9060014170027,319.9060014170027,319.9060014170027,319.9060014170027,319.9060014170027,319.823262874996,319.9060014170027,319.9060014170027,319.9060014170027,319.823262874996,319.9060014170027,319.9060014170027,319.9060014170027,321.9920022919978,,319.9060014170027,319.9060014170027,325.08298187499895,319.9060014170027,319.9060014170027,319.9060014170027,319.9060014170027,320.36109766700247,321.4034971669971,320.3319841666637,,321.9920022919978,323.0385814170004,321.9628005416637,,319.9060014170027,325.08298187499895,319.9060014170027,325.08298187499895,325.12343775000045,325.80474470800254,319.9060014170027,1,1,1.3657397920032963,reldom2_s037,001,2025-03-14_13h57.19.771,Where-B-Scan_AC,2022.2.5,None,
26,First_Order,5.0,audwhere,stimulus/audwhere_stim/dummy.wav,stimulus/audwhere_stim/dummy.wav,stimulus/audwhere_stim/right_toward_300h.wav,stimulus/audwhere_stim/left_toward_270h.wav,stimulus/audwhere_stim/blank_white.png,stimulus/audwhere_stim/direction_box.png,stimulus/audwhere_stim/direction_yes.png,stimulus/audwhere_stim/direction_no.png,None,Direction,None,Direction,1,0.0,0,5.125,0,5.125,0,5.125,0,0.0,0.625,0,0.0,0,0.0,0,0.0,0,0.0,0,0.0,0,0.0,1,0.5,1,2.125,0,,,,,0,34,34,34,,,,,,,,,326.0130852079965,326.0130852079965,326.0130852079965,326.0130852079965,326.0130852079965,326.0130852079965,326.0130852079965,326.0130852079965,325.93807804133587,326.0130852079965,326.0130852079965,326.0130852079965,325.93807804133587,326.0130852079965,326.0130852079965,326.0130852079965,328.12221016699914,332.1332824170022,326.0130852079965,326.0130852079965,331.1953559169997,326.0130852079965,326.0130852079965,326.0130852079965,326.0130852079965,326.47299233300146,327.5279505419967,326.44350874966426,,328.12221016699914,329.1769577919986,328.0929102916673,,326.0130852079965,331.1953559169997,326.0130852079965,331.1953559169997,331.23543912499736,331.8837152080014,326.0130852079965,1,1,1.4203271669975948,reldom2_s037,001,2025-03-14_13h57.19.771,Where-B-Scan_AC,2022.2.5,None,
27,First_Order,5.0,audwhere,stimulus/audwhere_stim/dummy.wav,stimulus/audwhere_stim/dummy.wav,stimulus/audwhere_stim/left_toward_290h.wav,stimulus/audwhere_stim/left_away_300h.wav,stimulus/audwhere_stim/blank_white.png,stimulus/audwhere_stim/direction_box.png,stimulus/audwhere_stim/direction_yes.png,stimulus/audwhere_stim/direction_no.png,None,Direction,None,Side,2,0.0,0,5.125,0,5.125,0,5.125,0,0.0,0.625,0,0.0,0,0.0,0,0.0,0,0.0,0,0.0,0,0.0,1,0.5,1,2.125,0,,,,,0,35,35,35,,,,,,,,,332.1332824170022,332.1332824170022,332.1332824170022,332.1332824170022,332.1332824170022,332.1332824170022,332.1332824170022,332.1332824170022,332.05738279133413,332.1332824170022,332.1332824170022,332.1332824170022,332.05738279133413,332.1332824170022,332.1332824170022,332.1332824170022,334.24395495800127,338.2610559579989,332.1332824170022,332.1332824170022,337.3291942919968,332.1332824170022,332.1332824170022,332.1332824170022,332.1332824170022,332.59240112500265,333.64918958299677,332.56327441666895,,334.24395495800127,335.3008533329994,334.21509683366844,,332.1332824170022,337.3291942919968,332.1332824170022,337.3291942919968,337.3291942919968,338.01199404199724,332.1332824170022,2,1,1.5991894590042648,reldom2_s037,001,2025-03-14_13h57.19.771,Where-B-Scan_AC,2022.2.5,None,
28,First_Order,5.0,audwhere,stimulus/audwhere_stim/dummy.wav,stimulus/audwhere_stim/dummy.wav,stimulus/audwhere_stim/right_away_300h.wav,stimulus/audwhere_stim/right_toward_290h.wav,stimulus/audwhere_stim/blank_white.png,stimulus/audwhere_stim/direction_box.png,stimulus/audwhere_stim/direction_yes.png,stimulus/audwhere_stim/direction_no.png,None,Direction,None,Side,2,0.0,0,5.125,0,5.125,0,5.125,0,0.0,0.625,0,0.0,0,0.0,0,0.0,0,0.0,0,0.0,0,0.0,1,0.5,1,2.125,0,,,,,0,36,36,36,,,,,,,,,338.2610559579989,338.2610559579989,338.2610559579989,338.2610559579989,338.2610559579989,338.2610559579989,338.2610559579989,338.2610559579989,338.1850402913352,338.2610559579989,338.2610559579989,338.2610559579989,338.1850402913352,338.2610559579989,338.2610559579989,338.2610559579989,340.3338285829959,,338.2610559579989,338.2610559579989,343.4210900420003,338.2610559579989,338.2610559579989,338.2610559579989,338.2610559579989,338.72157066699583,339.7840535419964,338.69176212466505,,340.3338285829959,341.39715004200116,340.3041332916657,,338.2610559579989,343.4210900420003,338.2610559579989,343.4210900420003,343.46186629199656,344.14731579199724,338.2610559579989,2,1,2.2791923339973437,reldom2_s037,001,2025-03-14_13h57.19.771,Where-B-Scan_AC,2022.2.5,None,
0,0.0,None,fixation,stimulus/audwhere_stim/blank_white.png,stimulus/audwhere_stim/blank_white.png,stimulus/viswhere_stim/blank_white.png,stimulus/viswhere_stim/blank_white.png,stimulus/audwhere_stim/blank_white.png,stimulus/audwhere_stim/blank_white.png,stimulus/audwhere_stim/blank_white.png,stimulus/audwhere_stim/blank_white.png,0.0,0.0,0.0,0.0,0,0.0,0,0.0,0,0.0,0,0.0,0,0.0,0.0,0,0.0,0,0.0,0,0.0,0,0.0,0,0.0,0,0.0,0,0.0,0,0.0,10,,,,,0,37,37,37,,,,,,,,,344.3774441249989,344.3774441249989,344.3774441249989,344.3774441249989,344.3774441249989,344.3774441249989,344.3774441249989,344.3774441249989,344.28064912533057,344.3774441249989,344.3774441249989,344.3774441249989,344.28064912533057,344.3774441249989,344.3774441249989,344.3774441249989,344.3774441249989,344.3774441249989,344.3774441249989,344.3774441249989,344.3774441249989,344.3774441249989,344.3774441249989,344.3774441249989,344.3774441249989,344.3774441249989,344.3774441249989,344.3306491253306,344.3774441249989,344.3774441249989,344.3774441249989,344.3306491253306,344.3774441249989,344.3774441249989,344.3774441249989,344.3774441249989,344.3774441249989,349.59850658300275,349.59850658300275,354.5435296249998,None,0,,reldom2_s037,001,2025-03-14_13h57.19.771,Where-B-Scan_AC,2022.2.5,None,
29,Second_Order,5.0,audwhere,stimulus/audwhere_stim/right_toward_270h.wav,stimulus/audwhere_stim/right_away_280h.wav,stimulus/audwhere_stim/left_away_270h.wav,stimulus/audwhere_stim/right_away_300h.wav,stimulus/audwhere_stim/match_blank.png,stimulus/audwhere_stim/match_box.png,stimulus/audwhere_stim/match_yes.png,stimulus/audwhere_stim/match_no.png,2.0,Match,Side,Direction,2,5.125,0,5.125,0,5.125,0,5.125,0,0.75,0.75,0,0.0,0,0.0,0,0.0,0,0.0,1,0.5,1,2.125,1,0.5,1,2.125,0,,,,,0,38,38,38,,,,,,,,,354.5435296249998,359.6582409170005,354.5435296249998,354.5435296249998,354.5435296249998,354.5435296249998,354.99752291700133,355.99534391699854,355.00992270866504,,356.61900287499884,357.6158182079962,356.6307145416688,,359.6582409170005,360.5084519169977,362.5892205420023,,360.5084519169977,360.5084519169977,365.6813881670023,360.5084519169977,360.5084519169977,360.5084519169977,360.5084519169977,360.9574339999963,362.0023877499989,360.9288166246663,361.9571667499986,362.5892205420023,363.63735774999805,362.5606212916648,,360.5084519169977,365.6813881670023,360.5084519169977,365.6813881670023,365.6813881670023,,360.5084519169977,2,1,1.9602073339992785,reldom2_s037,001,2025-03-14_13h57.19.771,Where-B-Scan_AC,2022.2.5,None,
30,Second_Order,5.0,audwhere,stimulus/audwhere_stim/right_away_300h.wav,stimulus/audwhere_stim/right_toward_300h.wav,stimulus/audwhere_stim/left_toward_290h.wav,stimulus/audwhere_stim/left_away_270h.wav,stimulus/audwhere_stim/match_blank.png,stimulus/audwhere_stim/match_box.png,stimulus/audwhere_stim/match_yes.png,stimulus/audwhere_stim/match_no.png,1.0,Match,Side,Side,1,5.125,0,5.125,0,5.125,0,5.125,0,0.625,0.625,0,0.0,0,0.0,0,0.0,0,0.0,1,0.5,1,2.125,1,0.5,1,2.125,0,,,,,0,39,39,39,,,,,,,,,366.4757984579992,371.59791058299743,366.4757984579992,366.4757984579992,366.4757984579992,366.4757984579992,366.9368033749997,367.9273652499978,366.93932795866954,367.9273652499978,368.5630023749982,369.5599854579996,368.5747182496673,,371.59791058299743,372.33310516700294,374.3999827919979,,372.33310516700294,372.33310516700294,377.51713133299927,372.33310516700294,372.33310516700294,372.33310516700294,372.33310516700294,372.7796530830019,373.81575537499884,372.75126254166776,,374.3999827919979,375.4420492080026,374.3713121246658,,372.33310516700294,377.51713133299927,372.33310516700294,377.51713133299927,377.51713133299927,378.19273370799783,372.33310516700294,1,1,1.0357210419970215,reldom2_s037,001,2025-03-14_13h57.19.771,Where-B-Scan_AC,2022.2.5,None,
0,0.0,None,fixation,stimulus/audwhere_stim/blank_white.png,stimulus/audwhere_stim/blank_white.png,stimulus/viswhere_stim/blank_white.png,stimulus/viswhere_stim/blank_white.png,stimulus/audwhere_stim/blank_white.png,stimulus/audwhere_stim/blank_white.png,stimulus/audwhere_stim/blank_white.png,stimulus/audwhere_stim/blank_white.png,0.0,0.0,0.0,0.0,0,0.0,0,0.0,0,0.0,0,0.0,0,0.0,0.0,0,0.0,0,0.0,0,0.0,0,0.0,0,0.0,0,0.0,0,0.0,0,0.0,8,,,,,0,40,40,40,,,,,,,,,378.4197226670003,378.4197226670003,378.4197226670003,378.4197226670003,378.4197226670003,378.4197226670003,378.4197226670003,378.4197226670003,378.32606704133116,378.4197226670003,378.4197226670003,378.4197226670003,378.32606704133116,378.4197226670003,378.4197226670003,378.4197226670003,378.4197226670003,378.4197226670003,378.4197226670003,378.4197226670003,378.4197226670003,378.4197226670003,378.4197226670003,378.4197226670003,378.4197226670003,378.4197226670003,378.4197226670003,378.37606704133117,378.4197226670003,378.4197226670003,378.4197226670003,378.37606704133117,378.4197226670003,378.4197226670003,378.4197226670003,378.4197226670003,378.4197226670003,383.6133663329965,383.6133663329965,386.65992595799617,None,0,,reldom2_s037,001,2025-03-14_13h57.19.771,Where-B-Scan_AC,2022.2.5,None,
31,First_Order,6.0,audwhere,stimulus/audwhere_stim/dummy.wav,stimulus/audwhere_stim/dummy.wav,stimulus/audwhere_stim/left_toward_270h.wav,stimulus/audwhere_stim/right_toward_280h.wav,stimulus/audwhere_stim/blank_white.png,stimulus/audwhere_stim/side_box.png,stimulus/audwhere_stim/side_yes.png,stimulus/audwhere_stim/side_no.png,None,Side,None,Direction,2,0.0,0,5.125,0,5.125,0,5.125,0,0.0,0.625,0,0.0,0,0.0,0,0.0,0,0.0,0,0.0,0,0.0,1,0.5,1,2.125,0,,,,,0,41,41,41,,,,,,,,,386.65992595799617,386.65992595799617,386.65992595799617,386.65992595799617,386.65992595799617,386.65992595799617,386.65992595799617,386.65992595799617,386.5929225416645,386.65992595799617,386.65992595799617,386.65992595799617,386.5929225416645,386.65992595799617,386.65992595799617,386.65992595799617,388.7543511249969,392.7799768749974,386.65992595799617,386.65992595799617,391.8101647500007,386.65992595799617,386.65992595799617,386.65992595799617,386.65992595799617,387.1142352500028,388.16227420799987,387.0855119166629,,388.7543511249969,389.80775800000265,388.72508670866614,,386.65992595799617,391.8101647500007,386.65992595799617,391.8101647500007,391.85054291699635,392.53146729199943,386.65992595799617,2,1,1.2664501670005848,reldom2_s037,001,2025-03-14_13h57.19.771,Where-B-Scan_AC,2022.2.5,None,
32,First_Order,6.0,audwhere,stimulus/audwhere_stim/dummy.wav,stimulus/audwhere_stim/dummy.wav,stimulus/audwhere_stim/right_toward_280h.wav,stimulus/audwhere_stim/left_toward_290h.wav,stimulus/audwhere_stim/blank_white.png,stimulus/audwhere_stim/direction_box.png,stimulus/audwhere_stim/direction_yes.png,stimulus/audwhere_stim/direction_no.png,None,Direction,None,Direction,1,0.0,0,5.125,0,5.125,0,5.125,0,0.0,0.625,0,0.0,0,0.0,0,0.0,0,0.0,0,0.0,0,0.0,1,0.5,1,2.125,0,,,,,0,42,42,42,,,,,,,,,392.7799768749974,392.7799768749974,392.7799768749974,392.7799768749974,392.7799768749974,392.7799768749974,392.7799768749974,392.7799768749974,392.7045615003318,392.7799768749974,392.7799768749974,392.7799768749974,392.7045615003318,392.7799768749974,392.7799768749974,392.7799768749974,394.8905657919968,398.90621304199885,392.7799768749974,392.7799768749974,397.96968695800024,392.7799768749974,392.7799768749974,392.7799768749974,392.7799768749974,393.2392658749959,394.2955950830001,393.2098110416666,,394.8905657919968,395.95071870800166,394.86110195866445,,392.7799768749974,397.96968695800024,392.7799768749974,397.96968695800024,398.0105017079986,398.69651516700105,392.7799768749974,1,1,1.260415541997645,reldom2_s037,001,2025-03-14_13h57.19.771,Where-B-Scan_AC,2022.2.5,None,
33,First_Order,6.0,audwhere,stimulus/audwhere_stim/dummy.wav,stimulus/audwhere_stim/dummy.wav,stimulus/audwhere_stim/left_toward_270h.wav,stimulus/audwhere_stim/left_away_300h.wav,stimulus/audwhere_stim/blank_white.png,stimulus/audwhere_stim/side_box.png,stimulus/audwhere_stim/side_yes.png,stimulus/audwhere_stim/side_no.png,None,Side,None,Side,1,0.0,0,5.125,0,5.125,0,5.125,0,0.0,0.625,0,0.0,0,0.0,0,0.0,0,0.0,0,0.0,0,0.0,1,0.5,1,2.125,0,,,,,0,43,43,43,,,,,,,,,398.90621304199885,398.90621304199885,398.90621304199885,398.90621304199885,398.90621304199885,398.90621304199885,398.90621304199885,398.90621304199885,398.8298485003344,398.90621304199885,398.90621304199885,398.90621304199885,398.8298485003344,398.90621304199885,398.90621304199885,398.90621304199885,401.0110900419968,,398.90621304199885,398.90621304199885,404.0795019169964,398.90621304199885,398.90621304199885,398.90621304199885,398.90621304199885,399.3663263330018,400.416732083002,399.33562945866674,,401.0110900419968,402.06514099999913,400.9816799586663,,398.90621304199885,404.0795019169964,398.90621304199885,404.0795019169964,404.12011625000014,404.8047322920029,398.90621304199885,1,1,1.1422080000047572,reldom2_s037,001,2025-03-14_13h57.19.771,Where-B-Scan_AC,2022.2.5,None,
34,First_Order,6.0,audwhere,stimulus/audwhere_stim/dummy.wav,stimulus/audwhere_stim/dummy.wav,stimulus/audwhere_stim/right_toward_300h.wav,stimulus/audwhere_stim/left_toward_290h.wav,stimulus/audwhere_stim/blank_white.png,stimulus/audwhere_stim/side_box.png,stimulus/audwhere_stim/side_yes.png,stimulus/audwhere_stim/side_no.png,None,Side,None,Direction,2,0.0,0,5.125,0,5.125,0,5.125,0,0.0,0.625,0,0.0,0,0.0,0,0.0,0,0.0,0,0.0,0,0.0,1,0.5,1,2.125,0,,,,,0,44,44,44,,,,,,,,,405.01275691699993,405.01275691699993,405.01275691699993,405.01275691699993,405.01275691699993,405.01275691699993,405.01275691699993,405.01275691699993,404.9380656253362,405.01275691699993,405.01275691699993,405.01275691699993,404.9380656253362,405.01275691699993,405.01275691699993,405.01275691699993,407.1204477919964,411.1487955420016,405.01275691699993,405.01275691699993,410.1941024999978,405.01275691699993,405.01275691699993,405.01275691699993,405.01275691699993,405.4732196670011,406.5254687080014,405.44401504166694,,407.1204477919964,408.17798149999726,407.0913517496631,,405.01275691699993,410.1941024999978,405.01275691699993,410.1941024999978,410.23461120799766,410.9190121249994,405.01275691699993,2,1,1.2353471669994178,reldom2_s037,001,2025-03-14_13h57.19.771,Where-B-Scan_AC,2022.2.5,None,
0,0.0,None,fixation,stimulus/audwhere_stim/blank_white.png,stimulus/audwhere_stim/blank_white.png,stimulus/viswhere_stim/blank_white.png,stimulus/viswhere_stim/blank_white.png,stimulus/audwhere_stim/blank_white.png,stimulus/audwhere_stim/blank_white.png,stimulus/audwhere_stim/blank_white.png,stimulus/audwhere_stim/blank_white.png,0.0,0.0,0.0,0.0,0,0.0,0,0.0,0,0.0,0,0.0,0,0.0,0.0,0,0.0,0,0.0,0,0.0,0,0.0,0,0.0,0,0.0,0,0.0,0,0.0,8,,,,,0,45,45,45,,,,,,,,,411.1487955420016,411.1487955420016,411.1487955420016,411.1487955420016,411.1487955420016,411.1487955420016,411.1487955420016,411.1487955420016,411.05234545833275,411.1487955420016,411.1487955420016,411.1487955420016,411.05234545833275,411.1487955420016,411.1487955420016,411.1487955420016,411.1487955420016,411.1487955420016,411.1487955420016,411.1487955420016,411.1487955420016,411.1487955420016,411.1487955420016,411.1487955420016,411.1487955420016,411.1487955420016,411.1487955420016,411.10234545833276,411.1487955420016,411.1487955420016,411.1487955420016,411.10234545833276,411.1487955420016,411.1487955420016,411.1487955420016,411.1487955420016,411.1487955420016,416.3670912919988,416.3670912919988,419.30122833300265,None,0,,reldom2_s037,001,2025-03-14_13h57.19.771,Where-B-Scan_AC,2022.2.5,None,
35,Second_Order,6.0,audwhere,stimulus/audwhere_stim/left_toward_280h.wav,stimulus/audwhere_stim/right_toward_270h.wav,stimulus/audwhere_stim/left_away_300h.wav,stimulus/audwhere_stim/right_away_280h.wav,stimulus/audwhere_stim/match_blank.png,stimulus/audwhere_stim/match_box.png,stimulus/audwhere_stim/match_yes.png,stimulus/audwhere_stim/match_no.png,1.0,Match,Direction,Direction,1,5.125,0,5.125,0,5.125,0,5.125,0,0.75,0.75,0,0.0,0,0.0,0,0.0,0,0.0,1,0.5,1,2.125,1,0.5,1,2.125,0,,,,,0,46,46,46,,,,,,,,,419.30122833300265,424.425158207996,419.30122833300265,419.30122833300265,419.30122833300265,419.30122833300265,419.75917783300247,420.74856516699947,419.7615161666656,,421.3839674999981,422.38180320800166,421.3966627496668,,424.425158207996,425.2765817499967,427.31743145800283,,425.2765817499967,425.2765817499967,430.4585196670014,425.2765817499967,425.2765817499967,425.2765817499967,425.2765817499967,425.7295926250008,426.76984916700167,425.70090704166455,,427.31743145800283,428.3638787079981,427.28714804166907,,425.2765817499967,430.4585196670014,425.2765817499967,430.4585196670014,430.4585196670014,,425.2765817499967,1,1,1.437945708996267,reldom2_s037,001,2025-03-14_13h57.19.771,Where-B-Scan_AC,2022.2.5,None,
36,Second_Order,6.0,audwhere,stimulus/audwhere_stim/left_toward_300h.wav,stimulus/audwhere_stim/right_toward_280h.wav,stimulus/audwhere_stim/left_away_300h.wav,stimulus/audwhere_stim/right_away_300h.wav,stimulus/audwhere_stim/match_blank.png,stimulus/audwhere_stim/match_box.png,stimulus/audwhere_stim/match_yes.png,stimulus/audwhere_stim/match_no.png,1.0,Match,Direction,Direction,1,5.125,0,5.125,0,5.125,0,5.125,0,0.625,0.625,0,0.0,0,0.0,0,0.0,0,0.0,1,0.5,1,2.125,1,0.5,1,2.125,0,,,,,0,47,47,47,,,,,,,,,431.2534554579979,436.36861733299884,431.2534554579979,431.2534554579979,431.2534554579979,431.2534554579979,431.7055311669974,432.6925442499996,431.7197867916659,,433.32828387500194,434.3264445419991,433.3405546246688,,436.36861733299884,437.09884679199604,439.1701268329998,,437.09884679199604,437.09884679199604,442.2480548329986,437.09884679199604,437.09884679199604,437.09884679199604,437.09884679199604,437.547668166997,438.5848596249998,437.51927645866476,,439.1701268329998,440.2132602499987,439.141701874669,,437.09884679199604,442.2480548329986,437.09884679199604,442.2480548329986,442.2878886670005,442.9652795000002,437.09884679199604,1,1,1.386690291998093,reldom2_s037,001,2025-03-14_13h57.19.771,Where-B-Scan_AC,2022.2.5,None,
0,0.0,None,fixation,stimulus/audwhere_stim/blank_white.png,stimulus/audwhere_stim/blank_white.png,stimulus/viswhere_stim/blank_white.png,stimulus/viswhere_stim/blank_white.png,stimulus/audwhere_stim/blank_white.png,stimulus/audwhere_stim/blank_white.png,stimulus/audwhere_stim/blank_white.png,stimulus/audwhere_stim/blank_white.png,0.0,0.0,0.0,0.0,0,0.0,0,0.0,0,0.0,0,0.0,0,0.0,0.0,0,0.0,0,0.0,0,0.0,0,0.0,0,0.0,0,0.0,0,0.0,0,0.0,10,,,,,0,48,48,48,,,,,,,,,443.19325512499927,443.19325512499927,443.19325512499927,443.19325512499927,443.19325512499927,443.19325512499927,443.19325512499927,443.19325512499927,443.0986128333335,443.19325512499927,443.19325512499927,443.19325512499927,443.0986128333335,443.19325512499927,443.19325512499927,443.19325512499927,443.19325512499927,443.19325512499927,443.19325512499927,443.19325512499927,443.19325512499927,443.19325512499927,443.19325512499927,443.19325512499927,443.19325512499927,443.19325512499927,443.19325512499927,443.1486128333335,443.19325512499927,443.19325512499927,443.19325512499927,443.1486128333335,443.19325512499927,443.19325512499927,443.19325512499927,443.19325512499927,443.19325512499927,448.3999364580013,448.3999364580013,453.38842541699705,None,0,,reldom2_s037,001,2025-03-14_13h57.19.771,Where-B-Scan_AC,2022.2.5,None,
37,First_Order,7.0,viswhere,stimulus/viswhere_stim/blank_white.png,stimulus/viswhere_stim/blank_white.png,stimulus/viswhere_stim/150-deg_dot-left_turquoise.png,stimulus/viswhere_stim/120-deg_dot-left_mediumslateblue.png,stimulus/viswhere_stim/blank_white.png,stimulus/viswhere_stim/line_box.png,stimulus/viswhere_stim/line_yes.png,stimulus/viswhere_stim/line_no.png,None,Line,None,Dot,2,0.0,0,5.125,0,5.125,0,5.125,0,0.0,0.625,0,0.0,0,0.0,1,0.5,1,2.125,0,0.0,0,0.0,0,0.0,0,0.0,0,,,,,0,49,49,49,,,,,,,,,453.38842541699705,453.38842541699705,453.38842541699705,453.38842541699705,453.38842541699705,453.38842541699705,453.38842541699705,453.38842541699705,453.37081529166846,453.38842541699705,453.38842541699705,453.38842541699705,453.37081529166846,453.38842541699705,453.38842541699705,453.38842541699705,455.4869367919964,459.445291582997,453.38842541699705,453.38842541699705,458.53155833300116,453.8642992919995,454.8761430000013,455.4869367919964,456.50220754199836,453.38842541699705,453.38842541699705,453.37081529166846,453.38842541699705,453.38842541699705,453.38842541699705,453.37081529166846,453.38842541699705,453.38842541699705,458.53155833300116,453.38842541699705,458.53155833300116,458.6025182919984,459.229897833,453.38842541699705,2,1,1.2429904169985093,reldom2_s037,001,2025-03-14_13h57.19.771,Where-B-Scan_AC,2022.2.5,None,
38,First_Order,7.0,viswhere,stimulus/viswhere_stim/blank_white.png,stimulus/viswhere_stim/blank_white.png,stimulus/viswhere_stim/120-deg_dot-left_mediumslateblue.png,stimulus/viswhere_stim/120-deg_dot-right_seagreen.png,stimulus/viswhere_stim/blank_white.png,stimulus/viswhere_stim/dot_box.png,stimulus/viswhere_stim/dot_yes.png,stimulus/viswhere_stim/dot_no.png,None,Dot,None,Line,2,0.0,0,5.125,0,5.125,0,5.125,0,0.0,0.625,0,0.0,0,0.0,1,0.5,1,2.125,0,0.0,0,0.0,0,0.0,0,0.0,0,,,,,0,50,50,50,,,,,,,,,459.445291582997,459.445291582997,459.445291582997,459.445291582997,459.445291582997,459.445291582997,459.445291582997,459.445291582997,459.42405716632976,459.445291582997,459.445291582997,459.445291582997,459.42405716632976,459.445291582997,459.445291582997,459.445291582997,461.55304654200154,465.5132219579973,459.445291582997,459.445291582997,464.5750609999959,459.92115341700264,460.9277537079979,461.55304654200154,462.56181641700095,459.445291582997,459.445291582997,459.4407238329964,459.445291582997,459.445291582997,459.445291582997,459.4407238329964,459.445291582997,459.445291582997,464.5750609999959,459.445291582997,464.5750609999959,464.66939908300265,465.297198166998,459.445291582997,2,1,1.2085584169981303,reldom2_s037,001,2025-03-14_13h57.19.771,Where-B-Scan_AC,2022.2.5,None,
39,First_Order,7.0,viswhere,stimulus/viswhere_stim/blank_white.png,stimulus/viswhere_stim/blank_white.png,stimulus/viswhere_stim/60-deg_dot-right_salmon.png,stimulus/viswhere_stim/60-deg_dot-left_peru.png,stimulus/viswhere_stim/blank_white.png,stimulus/viswhere_stim/line_box.png,stimulus/viswhere_stim/line_yes.png,stimulus/viswhere_stim/line_no.png,None,Line,None,Line,1,0.0,0,5.125,0,5.125,0,5.125,0,0.0,0.625,0,0.0,0,0.0,1,0.5,1,2.125,0,0.0,0,0.0,0,0.0,0,0.0,0,,,,,0,51,51,51,,,,,,,,,465.5132219579973,465.5132219579973,465.5132219579973,465.5132219579973,465.5132219579973,465.5132219579973,465.5132219579973,465.5132219579973,465.4940597913349,465.5132219579973,465.5132219579973,465.5132219579973,465.4940597913349,465.5132219579973,465.5132219579973,465.5132219579973,467.62440787500236,471.5749575000009,465.5132219579973,465.5132219579973,470.6346418749963,465.98921437499666,466.99722654200013,467.62440787500236,468.63633033299993,465.5132219579973,465.5132219579973,465.4940597913349,465.5132219579973,465.5132219579973,465.5132219579973,465.4940597913349,465.5132219579973,465.5132219579973,470.6346418749963,465.5132219579973,470.6346418749963,470.75978274999943,471.3848035830015,465.5132219579973,1,1,1.0523884169961093,reldom2_s037,001,2025-03-14_13h57.19.771,Where-B-Scan_AC,2022.2.5,None,
40,First_Order,7.0,viswhere,stimulus/viswhere_stim/blank_white.png,stimulus/viswhere_stim/blank_white.png,stimulus/viswhere_stim/60-deg_dot-right_slateblue.png,stimulus/viswhere_stim/90-deg_dot-right_royalblue.png,stimulus/viswhere_stim/blank_white.png,stimulus/viswhere_stim/dot_box.png,stimulus/viswhere_stim/dot_yes.png,stimulus/viswhere_stim/dot_no.png,None,Dot,None,Dot,1,0.0,0,5.125,0,5.125,0,5.125,0,0.0,0.625,0,0.0,0,0.0,1,0.5,1,2.125,0,0.0,0,0.0,0,0.0,0,0.0,0,,,,,0,52,52,52,,,,,,,,,471.5749575000009,471.5749575000009,471.5749575000009,471.5749575000009,471.5749575000009,471.5749575000009,471.5749575000009,471.5749575000009,471.5546807913318,471.5749575000009,471.5749575000009,471.5749575000009,471.5546807913318,471.5749575000009,471.5749575000009,471.5749575000009,473.6850281250008,477.7213737080019,471.5749575000009,471.5749575000009,476.6966320829961,472.0507758329986,473.0576266249991,473.6850281250008,474.6967677080029,471.5749575000009,471.5749575000009,471.57134745799846,471.5749575000009,471.5749575000009,471.5749575000009,471.57134745799846,471.5749575000009,471.5749575000009,476.6966320829961,471.5749575000009,476.6966320829961,476.79751741699874,477.42924291700183,471.5749575000009,1,1,1.1968995010029175,reldom2_s037,001,2025-03-14_13h57.19.771,Where-B-Scan_AC,2022.2.5,None,
0,0.0,None,fixation,stimulus/audwhere_stim/blank_white.png,stimulus/audwhere_stim/blank_white.png,stimulus/viswhere_stim/blank_white.png,stimulus/viswhere_stim/blank_white.png,stimulus/audwhere_stim/blank_white.png,stimulus/audwhere_stim/blank_white.png,stimulus/audwhere_stim/blank_white.png,stimulus/audwhere_stim/blank_white.png,0.0,0.0,0.0,0.0,0,0.0,0,0.0,0,0.0,0,0.0,0,0.0,0.0,0,0.0,0,0.0,0,0.0,0,0.0,0,0.0,0,0.0,0,0.0,0,0.0,8,,,,,0,53,53,53,,,,,,,,,477.7213737080019,477.7213737080019,477.7213737080019,477.7213737080019,477.7213737080019,477.7213737080019,477.7213737080019,477.7213737080019,477.6253055833343,477.7213737080019,477.7213737080019,477.7213737080019,477.6253055833343,477.7213737080019,477.7213737080019,477.7213737080019,477.7213737080019,477.7213737080019,477.7213737080019,477.7213737080019,477.7213737080019,477.7213737080019,477.7213737080019,477.7213737080019,477.7213737080019,477.7213737080019,477.7213737080019,477.6753055833343,477.7213737080019,477.7213737080019,477.7213737080019,477.6753055833343,477.7213737080019,477.7213737080019,477.7213737080019,477.7213737080019,477.7213737080019,482.916433917002,482.916433917002,485.845651333002,None,0,,reldom2_s037,001,2025-03-14_13h57.19.771,Where-B-Scan_AC,2022.2.5,None,
41,Second_Order,7.0,viswhere,stimulus/viswhere_stim/60-deg_dot-right_seagreen.png,stimulus/viswhere_stim/30-deg_dot-right_mediumslateblue.png,stimulus/viswhere_stim/60-deg_dot-left_mediumslateblue.png,stimulus/viswhere_stim/150-deg_dot-left_salmon.png,stimulus/audwhere_stim/match_blank.png,stimulus/audwhere_stim/match_box.png,stimulus/audwhere_stim/match_yes.png,stimulus/audwhere_stim/match_no.png,1.0,Match,Dot,Dot,1,5.125,0,5.125,0,5.125,0,5.125,0,0.75,0.75,1,0.5,1,2.125,1,0.5,1,2.125,0,0.0,0,0.0,0,0.0,0,0.0,0,,,,,0,54,54,54,,,,,,,,,485.845651333002,490.96096079199924,486.33060641700285,487.3190190000023,487.95466583300004,488.9528579170001,485.845651333002,485.845651333002,485.8441093746641,485.845651333002,485.845651333002,485.845651333002,485.8441093746641,485.845651333002,490.96096079199924,491.7531472499977,493.82626433300175,497.6928132079993,491.7531472499977,491.7531472499977,496.88684466700215,492.2159700830016,493.23004279199813,493.82626433300175,494.8284308329967,491.7531472499977,491.7531472499977,491.72916816633415,491.7531472499977,491.7531472499977,491.7531472499977,491.72916816633415,491.7531472499977,491.7531472499977,496.88684466700215,491.7531472499977,496.88684466700215,496.9560334580019,497.72891033299675,491.7531472499977,1,1,1.2808408760029124,reldom2_s037,001,2025-03-14_13h57.19.771,Where-B-Scan_AC,2022.2.5,None,
42,Second_Order,7.0,viswhere,stimulus/viswhere_stim/90-deg_dot-right_goldenrod.png,stimulus/viswhere_stim/120-deg_dot-right_mediumslateblue.png,stimulus/viswhere_stim/60-deg_dot-right_peru.png,stimulus/viswhere_stim/60-deg_dot-left_mediumslateblue.png,stimulus/audwhere_stim/match_blank.png,stimulus/audwhere_stim/match_box.png,stimulus/audwhere_stim/match_yes.png,stimulus/audwhere_stim/match_no.png,2.0,Match,Dot,Line,2,5.125,0,5.125,0,5.125,0,5.125,0,0.625,0.625,1,0.5,1,2.125,1,0.5,1,2.125,0,0.0,0,0.0,0,0.0,0,0.0,0,,,,,0,55,55,55,,,,,,,,,497.72891033299675,502.8513217919972,498.21106658299686,499.20955970799696,499.83180795799854,500.8301185829987,497.72891033299675,497.72891033299675,497.7428132079993,497.72891033299675,497.72891033299675,497.72891033299675,497.7428132079993,497.72891033299675,502.8513217919972,503.5254973330011,505.6155984579964,509.6449206670004,503.5254973330011,503.5254973330011,508.6640713750021,503.98443929199857,504.98813374999736,505.6155984579964,506.625790625003,503.5254973330011,503.5254973330011,503.50263087532994,503.5254973330011,503.5254973330011,503.5254973330011,503.50263087532994,503.5254973330011,503.5254973330011,508.6640713750021,503.5254973330011,508.6640713750021,508.71786216700275,509.3394364170017,503.5254973330011,2,1,1.0219285420025699,reldom2_s037,001,2025-03-14_13h57.19.771,Where-B-Scan_AC,2022.2.5,None,
0,0.0,None,fixation,stimulus/audwhere_stim/blank_white.png,stimulus/audwhere_stim/blank_white.png,stimulus/viswhere_stim/blank_white.png,stimulus/viswhere_stim/blank_white.png,stimulus/audwhere_stim/blank_white.png,stimulus/audwhere_stim/blank_white.png,stimulus/audwhere_stim/blank_white.png,stimulus/audwhere_stim/blank_white.png,0.0,0.0,0.0,0.0,0,0.0,0,0.0,0,0.0,0,0.0,0,0.0,0.0,0,0.0,0,0.0,0,0.0,0,0.0,0,0.0,0,0.0,0,0.0,0,0.0,8,,,,,0,56,56,56,,,,,,,,,509.6449206670004,509.6449206670004,509.6449206670004,509.6449206670004,509.6449206670004,509.6449206670004,509.6449206670004,509.6449206670004,509.5491770833299,509.6449206670004,509.6449206670004,509.6449206670004,509.5491770833299,509.6449206670004,509.6449206670004,509.6449206670004,509.6449206670004,509.6449206670004,509.6449206670004,509.6449206670004,509.6449206670004,509.6449206670004,509.6449206670004,509.6449206670004,509.6449206670004,509.6449206670004,509.6449206670004,509.5991770833299,509.6449206670004,509.6449206670004,509.6449206670004,509.5991770833299,509.6449206670004,509.6449206670004,509.6449206670004,509.6449206670004,509.6449206670004,514.8704791249984,514.8704791249984,517.8361097500019,None,0,,reldom2_s037,001,2025-03-14_13h57.19.771,Where-B-Scan_AC,2022.2.5,None,
43,First_Order,8.0,viswhere,stimulus/viswhere_stim/blank_white.png,stimulus/viswhere_stim/blank_white.png,stimulus/viswhere_stim/120-deg_dot-left_lightsseagreen.png,stimulus/viswhere_stim/120-deg_dot-right_royalblue.png,stimulus/viswhere_stim/blank_white.png,stimulus/viswhere_stim/line_box.png,stimulus/viswhere_stim/line_yes.png,stimulus/viswhere_stim/line_no.png,None,Line,None,Line,1,0.0,0,5.125,0,5.125,0,5.125,0,0.0,0.625,0,0.0,0,0.0,1,0.5,1,2.125,0,0.0,0,0.0,0,0.0,0,0.0,0,,,,,0,57,57,57,,,,,,,,,517.8361097500019,517.8361097500019,517.8361097500019,517.8361097500019,517.8361097500019,517.8361097500019,517.8361097500019,517.8361097500019,517.8190176666636,517.8361097500019,517.8361097500019,517.8361097500019,517.8190176666636,517.8361097500019,517.8361097500019,517.8361097500019,519.9322813749968,523.8950641249976,517.8361097500019,517.8361097500019,522.9637500829995,518.3107591669977,519.3194127500028,519.9322813749968,520.9436258330024,517.8361097500019,517.8361097500019,517.8190176666636,517.8361097500019,517.8361097500019,517.8361097500019,517.8190176666636,517.8361097500019,517.8361097500019,522.9637500829995,517.8361097500019,522.9637500829995,523.0640679580029,523.6921629580029,517.8361097500019,1,1,1.2612380419959663,reldom2_s037,001,2025-03-14_13h57.19.771,Where-B-Scan_AC,2022.2.5,None,
44,First_Order,8.0,viswhere,stimulus/viswhere_stim/blank_white.png,stimulus/viswhere_stim/blank_white.png,stimulus/viswhere_stim/60-deg_dot-right_peru.png,stimulus/viswhere_stim/90-deg_dot-right_turquoise.png,stimulus/viswhere_stim/blank_white.png,stimulus/viswhere_stim/dot_box.png,stimulus/viswhere_stim/dot_yes.png,stimulus/viswhere_stim/dot_no.png,None,Dot,None,Dot,1,0.0,0,5.125,0,5.125,0,5.125,0,0.0,0.625,0,0.0,0,0.0,1,0.5,1,2.125,0,0.0,0,0.0,0,0.0,0,0.0,0,,,,,0,58,58,58,,,,,,,,,523.8950641249976,523.8950641249976,523.8950641249976,523.8950641249976,523.8950641249976,523.8950641249976,523.8950641249976,523.8950641249976,523.8755892913299,523.8950641249976,523.8950641249976,523.8950641249976,523.8755892913299,523.8950641249976,523.8950641249976,523.8950641249976,526.0057370829963,529.9599596249973,523.8950641249976,523.8950641249976,529.034828625001,524.3700668329984,525.3794492079978,526.0057370829963,527.0161958329991,523.8950641249976,523.8950641249976,523.8755892913299,523.8950641249976,523.8950641249976,523.8950641249976,523.8755892913299,523.8950641249976,523.8950641249976,529.034828625001,523.8950641249976,529.034828625001,529.1181385829987,529.7425899169975,523.8950641249976,1,1,1.1629120420038817,reldom2_s037,001,2025-03-14_13h57.19.771,Where-B-Scan_AC,2022.2.5,None,
45,First_Order,8.0,viswhere,stimulus/viswhere_stim/blank_white.png,stimulus/viswhere_stim/blank_white.png,stimulus/viswhere_stim/150-deg_dot-right_lightsseagreen.png,stimulus/viswhere_stim/150-deg_dot-left_royalblue.png,stimulus/viswhere_stim/blank_white.png,stimulus/viswhere_stim/dot_box.png,stimulus/viswhere_stim/dot_yes.png,stimulus/viswhere_stim/dot_no.png,None,Dot,None,Line,2,0.0,0,5.125,0,5.125,0,5.125,0,0.0,0.625,0,0.0,0,0.0,1,0.5,1,2.125,0,0.0,0,0.0,0,0.0,0,0.0,0,,,,,0,59,59,59,,,,,,,,,529.9599596249973,529.9599596249973,529.9599596249973,529.9599596249973,529.9599596249973,529.9599596249973,529.9599596249973,529.9599596249973,529.9398709163337,529.9599596249973,529.9599596249973,529.9599596249973,529.9398709163337,529.9599596249973,529.9599596249973,529.9599596249973,532.0720247080026,536.025454542003,529.9599596249973,529.9599596249973,535.0948449580028,530.4391653330022,531.4589671669964,532.0720247080026,533.073871624998,529.9599596249973,529.9599596249973,529.9565375830003,529.9599596249973,529.9599596249973,529.9599596249973,529.9565375830003,529.9599596249973,529.9599596249973,535.0948449580028,529.9599596249973,535.0948449580028,535.1833557080026,535.809922667002,529.9599596249973,2,1,1.3287883759985561,reldom2_s037,001,2025-03-14_13h57.19.771,Where-B-Scan_AC,2022.2.5,None,
46,First_Order,8.0,viswhere,stimulus/viswhere_stim/blank_white.png,stimulus/viswhere_stim/blank_white.png,stimulus/viswhere_stim/30-deg_dot-left_salmon.png,stimulus/viswhere_stim/150-deg_dot-left_turquoise.png,stimulus/viswhere_stim/blank_white.png,stimulus/viswhere_stim/line_box.png,stimulus/viswhere_stim/line_yes.png,stimulus/viswhere_stim/line_no.png,None,Line,None,Dot,2,0.0,0,5.125,0,5.125,0,5.125,0,0.0,0.625,0,0.0,0,0.0,1,0.5,1,2.125,0,0.0,0,0.0,0,0.0,0,0.0,0,,,,,0,60,60,60,,,,,,,,,536.025454542003,536.025454542003,536.025454542003,536.025454542003,536.025454542003,536.025454542003,536.025454542003,536.025454542003,536.0042790833298,536.025454542003,536.025454542003,536.025454542003,536.0042790833298,536.025454542003,536.025454542003,536.025454542003,538.1341907500027,542.1707762919978,536.025454542003,536.025454542003,541.1500297919993,536.5052858330018,537.5220049580021,538.1341907500027,539.1533144170025,536.025454542003,536.025454542003,536.0209457499965,536.025454542003,536.025454542003,536.025454542003,536.0209457499965,536.025454542003,536.025454542003,541.1500297919993,536.025454542003,541.1500297919993,541.246537125,541.8783313750027,536.025454542003,2,1,1.3800238330004504,reldom2_s037,001,2025-03-14_13h57.19.771,Where-B-Scan_AC,2022.2.5,None,
0,0.0,None,fixation,stimulus/audwhere_stim/blank_white.png,stimulus/audwhere_stim/blank_white.png,stimulus/viswhere_stim/blank_white.png,stimulus/viswhere_stim/blank_white.png,stimulus/audwhere_stim/blank_white.png,stimulus/audwhere_stim/blank_white.png,stimulus/audwhere_stim/blank_white.png,stimulus/audwhere_stim/blank_white.png,0.0,0.0,0.0,0.0,0,0.0,0,0.0,0,0.0,0,0.0,0,0.0,0.0,0,0.0,0,0.0,0,0.0,0,0.0,0,0.0,0,0.0,0,0.0,0,0.0,9,,,,,0,61,61,61,,,,,,,,,542.1707762919978,542.1707762919978,542.1707762919978,542.1707762919978,542.1707762919978,542.1707762919978,542.1707762919978,542.1707762919978,542.0741593333345,542.1707762919978,542.1707762919978,542.1707762919978,542.0741593333345,542.1707762919978,542.1707762919978,542.1707762919978,542.1707762919978,542.1707762919978,542.1707762919978,542.1707762919978,542.1707762919978,542.1707762919978,542.1707762919978,542.1707762919978,542.1707762919978,542.1707762919978,542.1707762919978,542.1241593333344,542.1707762919978,542.1707762919978,542.1707762919978,542.1241593333344,542.1707762919978,542.1707762919978,542.1707762919978,542.1707762919978,542.1707762919978,547.3889503329992,547.3889503329992,551.2772672919964,None,0,,reldom2_s037,001,2025-03-14_13h57.19.771,Where-B-Scan_AC,2022.2.5,None,
47,Second_Order,8.0,viswhere,stimulus/viswhere_stim/90-deg_dot-left_lightsseagreen.png,stimulus/viswhere_stim/120-deg_dot-left_royalblue.png,stimulus/viswhere_stim/30-deg_dot-right_mediumslateblue.png,stimulus/viswhere_stim/60-deg_dot-right_lightsseagreen.png,stimulus/audwhere_stim/match_blank.png,stimulus/audwhere_stim/match_box.png,stimulus/audwhere_stim/match_yes.png,stimulus/audwhere_stim/match_no.png,1.0,Match,Dot,Dot,1,5.125,0,5.125,0,5.125,0,5.125,0,0.75,0.75,1,0.5,1,2.125,1,0.5,1,2.125,0,0.0,0,0.0,0,0.0,0,0.0,0,,,,,0,62,62,62,,,,,,,,,551.2772672919964,556.3965673330022,551.7514476669967,552.7504919580024,553.3849542079988,554.3744012500028,551.2772672919964,551.2772672919964,551.2745347916697,551.2772672919964,551.2772672919964,551.2772672919964,551.2745347916697,551.2772672919964,556.3965673330022,557.1887933749967,559.2728443329979,563.1627138330005,557.1887933749967,557.1887933749967,562.3155585420027,557.6331367079983,558.6437260829989,559.2728443329979,560.2897799999992,557.1887933749967,557.1887933749967,557.163485958336,557.1887933749967,557.1887933749967,557.1887933749967,557.163485958336,557.1887933749967,557.1887933749967,562.3155585420027,557.1887933749967,562.3155585420027,562.3851833750014,563.1627138330005,557.1887933749967,1,1,1.3396835419989657,reldom2_s037,001,2025-03-14_13h57.19.771,Where-B-Scan_AC,2022.2.5,None,
48,Second_Order,8.0,viswhere,stimulus/viswhere_stim/60-deg_dot-left_seagreen.png,stimulus/viswhere_stim/90-deg_dot-left_peru.png,stimulus/viswhere_stim/30-deg_dot-right_turquoise.png,stimulus/viswhere_stim/30-deg_dot-left_lightsseagreen.png,stimulus/audwhere_stim/match_blank.png,stimulus/audwhere_stim/match_box.png,stimulus/audwhere_stim/match_yes.png,stimulus/audwhere_stim/match_no.png,2.0,Match,Dot,Line,2,5.125,0,5.125,0,5.125,0,5.125,0,0.625,0.625,1,0.5,1,2.125,1,0.5,1,2.125,0,0.0,0,0.0,0,0.0,0,0.0,0,,,,,0,63,63,63,,,,,,,,,563.1627138330005,568.285716917002,563.6458373749992,564.6441118329967,565.2665019999986,566.264615125001,563.1627138330005,563.1627138330005,563.1767105419974,563.1627138330005,563.1627138330005,563.1627138330005,563.1767105419974,563.1627138330005,568.285716917002,568.9610344169996,571.0386288750015,575.0727816250001,568.9610344169996,568.9610344169996,574.1152501249962,569.4227475000007,570.4303907919966,571.0386288750015,572.0533005420002,568.9610344169996,568.9610344169996,568.9376001663336,568.9610344169996,568.9610344169996,568.9610344169996,568.9376001663336,568.9610344169996,568.9610344169996,574.1152501249962,568.9610344169996,574.1152501249962,574.1592506250017,574.7801432080014,568.9610344169996,2,1,1.733168917002331,reldom2_s037,001,2025-03-14_13h57.19.771,Where-B-Scan_AC,2022.2.5,None,
0,0.0,None,fixation,stimulus/audwhere_stim/blank_white.png,stimulus/audwhere_stim/blank_white.png,stimulus/viswhere_stim/blank_white.png,stimulus/viswhere_stim/blank_white.png,stimulus/audwhere_stim/blank_white.png,stimulus/audwhere_stim/blank_white.png,stimulus/audwhere_stim/blank_white.png,stimulus/audwhere_stim/blank_white.png,0.0,0.0,0.0,0.0,0,0.0,0,0.0,0,0.0,0,0.0,0,0.0,0.0,0,0.0,0,0.0,0,0.0,0,0.0,0,0.0,0,0.0,0,0.0,0,0.0,16,,,,,0,64,64,64,,,,,,,,,575.0727816250001,575.0727816250001,575.0727816250001,575.0727816250001,575.0727816250001,575.0727816250001,575.0727816250001,575.0727816250001,574.977219916332,575.0727816250001,575.0727816250001,575.0727816250001,574.977219916332,575.0727816250001,575.0727816250001,575.0727816250001,575.0727816250001,575.0727816250001,575.0727816250001,575.0727816250001,575.0727816250001,575.0727816250001,575.0727816250001,575.0727816250001,575.0727816250001,575.0727816250001,575.0727816250001,575.027219916332,575.0727816250001,575.0727816250001,575.0727816250001,575.027219916332,575.0727816250001,575.0727816250001,575.0727816250001,575.0727816250001,575.0727816250001,580.2615536669982,580.2615536669982,591.2059832500017,None,0,,reldom2_s037,001,2025-03-14_13h57.19.771,Where-B-Scan_AC,2022.2.5,None,
