Trial,Order,Block,Type,Stimuli_File1,Stimuli_File2,Stimuli_File3,Stimuli_File4,Cue_File1,Cue_File2,Response_File_Yes,Response_File_No,Match,Cue_Dimension,Pair1_Dimension,Pair2_Dimension,Key,Cue1_Duration,Cue1_Onset,Cue2_Duration,Cue2_Onset,ResponseYes_Duration,ResponseYes_Onset,ResponseNo_Duration,ResponseNo_Onset,ITI_Within,ITI_Between,Image1_Duration,Image1_Onset,Image2_Duration,Image2_Onset,Image3_Duration,Image3_Onset,Image4_Duration,Image4_Onset,Sound1_Duration,Sound1_Onset,Sound2_Duration,Sound2_Onset,Sound3_Duration,Sound3_Onset,Sound4_Duration,Sound4_Onset,Fixation_Duration,trials_2.thisRepN,trials_2.thisTrialN,trials_2.thisN,trials_2.thisIndex,trials.thisRepN,trials.thisTrialN,trials.thisN,trials.thisIndex,text_start.started,key_resp_start.started,key_resp_start.keys,key_resp_start.rt,text2.started,key_resp_2.started,key_resp_2.keys,key_resp_2.rt,cue_file1.started,cue_file1.stopped,image_1.started,image_1.stopped,image_2.started,image_2.stopped,sound_icon1.started,sound_icon1.stopped,sound_1.started,sound_1.stopped,sound_icon2.started,sound_icon2.stopped,sound_2.started,sound_2.stopped,image_blank_1.started,image_blank_1.stopped,key_press.started,key_press.stopped,fixation_text.started,cue_file2.started,cue_file2.stopped,image_3.started,image_3.stopped,image_4.started,image_4.stopped,sound_icon3.started,sound_icon3.stopped,sound_3.started,sound_3.stopped,sound_icon4.started,sound_icon4.stopped,sound_4.started,sound_4.stopped,response_yes.started,response_yes.stopped,response_no.started,response_no.stopped,iti_blank.started,iti_blank.stopped,fixation_text.stopped,key_press.keys,key_press.corr,key_press.rt,participant,session,date,expName,psychopyVersion,frameRate,
,,,,,,,,,,,,,,,,,,,,,,,,,,,,,,,,,,,,,,,,,,,,,,,,,,,,7.335889540961944,7.335889540961944,2,2.1815845411038026,,,,,,,,,,,,,,,,,,,,,,,,,,,,,,,,,,,,,,,,,,,,,,,,reldom2_s032,001,2025-03-12_15h32.42.548,Where-A-Scan_AC,2022.2.5,None,
,,,,,,,,,,,,,,,,,,,,,,,,,,,,,,,,,,,,,,,,,,,,0,0,0,0,,,,,,,,,9.558282583020627,9.558282583020627,5,17.126901417039335,,,,,,,,,,,,,,,,,,,,,,,,,,,,,,,,,,,,,,,,,,,,reldom2_s032,001,2025-03-12_15h32.42.548,Where-A-Scan_AC,2022.2.5,None,
,,,,,,,,,,,,,,,,,,,,,,,,,,,,,,,,,,,,,,,,,,,,1,0,1,0,,,,,,,,,26.697901790961623,26.697901790961623,5,1.9882098330417648,,,,,,,,,,,,,,,,,,,,,,,,,,,,,,,,,,,,,,,,,,,,reldom2_s032,001,2025-03-12_15h32.42.548,Where-A-Scan_AC,2022.2.5,None,
,,,,,,,,,,,,,,,,,,,,,,,,,,,,,,,,,,,,,,,,,,,,2,0,2,0,,,,,,,,,28.68967749993317,28.68967749993317,5,1.9969993750564754,,,,,,,,,,,,,,,,,,,,,,,,,,,,,,,,,,,,,,,,,,,,reldom2_s032,001,2025-03-12_15h32.42.548,Where-A-Scan_AC,2022.2.5,None,
,,,,,,,,,,,,,,,,,,,,,,,,,,,,,,,,,,,,,,,,,,,,3,0,3,0,,,,,,,,,30.699985957937315,30.699985957937315,5,1.9862305420683697,,,,,,,,,,,,,,,,,,,,,,,,,,,,,,,,,,,,,,,,,,,,reldom2_s032,001,2025-03-12_15h32.42.548,Where-A-Scan_AC,2022.2.5,None,
0,0.0,None,fixation,stimulus/viswhere_stim/blank_white.png,stimulus/viswhere_stim/blank_white.png,stimulus/audwhere_stim/blank_white.png,stimulus/audwhere_stim/blank_white.png,stimulus/viswhere_stim/blank_white.png,stimulus/viswhere_stim/blank_white.png,stimulus/viswhere_stim/blank_white.png,stimulus/viswhere_stim/blank_white.png,0.0,0.0,0.0,0.0,0,0.0,0,0.0,0,0.0,0,0.0,0,0.0,0.0,0,0.0,0,0.0,0,0.0,0,0.0,0,0.0,0,0.0,0,0.0,0,0.0,16,,,,,0,0,0,0,,,,,,,,,32.91533549991436,32.91533549991436,32.91533549991436,32.91533549991436,32.91533549991436,32.91533549991436,32.91533549991436,32.91533549991436,32.81278395766082,32.91533549991436,32.91533549991436,32.91533549991436,32.81278395766082,32.91533549991436,32.91533549991436,32.91533549991436,32.91533549991436,32.91533549991436,32.91533549991436,32.91533549991436,32.91533549991436,32.91533549991436,32.91533549991436,32.91533549991436,32.91533549991436,32.91533549991436,32.91533549991436,32.86278395766082,32.91533549991436,32.91533549991436,32.91533549991436,32.86278395766082,32.91533549991436,32.91533549991436,32.91533549991436,32.91533549991436,32.91533549991436,38.094115374959074,38.094115374959074,49.11103941593319,None,0,,reldom2_s032,001,2025-03-12_15h32.42.548,Where-A-Scan_AC,2022.2.5,None,
1,First_Order,1.0,viswhere,stimulus/viswhere_stim/blank_white.png,stimulus/viswhere_stim/blank_white.png,stimulus/viswhere_stim/60-deg_dot-left_peru.png,stimulus/viswhere_stim/60-deg_dot-right_turquoise.png,stimulus/viswhere_stim/blank_white.png,stimulus/viswhere_stim/dot_box.png,stimulus/viswhere_stim/dot_yes.png,stimulus/viswhere_stim/dot_no.png,None,Dot,None,Line,2,0.0,0,5.125,0,5.125,0,5.125,0,0.0,0.625,0,0.0,0,0.0,1,0.5,1,2.125,0,0.0,0,0.0,0,0.0,0,0.0,0,,,,,0,1,1,1,,,,,,,,,49.11103941593319,49.11103941593319,49.11103941593319,49.11103941593319,49.11103941593319,49.11103941593319,49.11103941593319,49.11103941593319,49.084926874935626,49.11103941593319,49.11103941593319,49.11103941593319,49.084926874935626,49.11103941593319,49.11103941593319,49.11103941593319,51.21212924993597,55.17964658292476,49.11103941593319,49.11103941593319,54.23392866598442,49.58952254091855,50.60022345802281,51.21212924993597,52.22747804096434,49.11103941593319,49.11103941593319,49.10159354160229,49.11103941593319,49.11103941593319,49.11103941593319,49.10159354160229,49.11103941593319,49.11103941593319,54.23392866598442,49.11103941593319,54.23392866598442,54.33076229097787,54.95960291591473,49.11103941593319,2,1,1.2014635830419138,reldom2_s032,001,2025-03-12_15h32.42.548,Where-A-Scan_AC,2022.2.5,None,
2,First_Order,1.0,viswhere,stimulus/viswhere_stim/blank_white.png,stimulus/viswhere_stim/blank_white.png,stimulus/viswhere_stim/60-deg_dot-right_turquoise.png,stimulus/viswhere_stim/60-deg_dot-left_turquoise.png,stimulus/viswhere_stim/blank_white.png,stimulus/viswhere_stim/line_box.png,stimulus/viswhere_stim/line_yes.png,stimulus/viswhere_stim/line_no.png,None,Line,None,Line,1,0.0,0,5.125,0,5.125,0,5.125,0,0.0,0.625,0,0.0,0,0.0,1,0.5,1,2.125,0,0.0,0,0.0,0,0.0,0,0.0,0,,,,,0,2,2,2,,,,,,,,,55.17964658292476,55.17964658292476,55.17964658292476,55.17964658292476,55.17964658292476,55.17964658292476,55.17964658292476,55.17964658292476,55.15688204132797,55.17964658292476,55.17964658292476,55.17964658292476,55.15688204132797,55.17964658292476,55.17964658292476,55.17964658292476,57.28955870796926,61.24478991597425,55.17964658292476,55.17964658292476,60.31899416598026,55.65862208302133,56.677328791003674,57.28955870796926,58.291617332957685,55.17964658292476,55.17964658292476,55.173548707994634,55.17964658292476,55.17964658292476,55.17964658292476,55.173548707994634,55.17964658292476,55.17964658292476,60.31899416598026,55.17964658292476,60.31899416598026,60.40272020793054,61.02943925000727,55.17964658292476,1,1,0.6031431250739843,reldom2_s032,001,2025-03-12_15h32.42.548,Where-A-Scan_AC,2022.2.5,None,
3,First_Order,1.0,viswhere,stimulus/viswhere_stim/blank_white.png,stimulus/viswhere_stim/blank_white.png,stimulus/viswhere_stim/30-deg_dot-left_salmon.png,stimulus/viswhere_stim/120-deg_dot-left_royalblue.png,stimulus/viswhere_stim/blank_white.png,stimulus/viswhere_stim/line_box.png,stimulus/viswhere_stim/line_yes.png,stimulus/viswhere_stim/line_no.png,None,Line,None,Dot,2,0.0,0,5.125,0,5.125,0,5.125,0,0.0,0.625,0,0.0,0,0.0,1,0.5,1,2.125,0,0.0,0,0.0,0,0.0,0,0.0,0,,,,,0,3,3,3,,,,,,,,,61.24478991597425,61.24478991597425,61.24478991597425,61.24478991597425,61.24478991597425,61.24478991597425,61.24478991597425,61.24478991597425,61.22378979130493,61.24478991597425,61.24478991597425,61.24478991597425,61.22378979130493,61.24478991597425,61.24478991597425,61.24478991597425,63.357103124959394,67.30651454092003,61.24478991597425,61.24478991597425,66.3785152080236,61.723906541010365,62.74422666593455,63.357103124959394,64.36264524993021,61.24478991597425,61.24478991597425,61.2404564579716,61.24478991597425,61.24478991597425,61.24478991597425,61.2404564579716,61.24478991597425,61.24478991597425,66.3785152080236,61.24478991597425,66.3785152080236,66.47546937491279,67.10105812491383,61.24478991597425,2,1,0.7891877091024071,reldom2_s032,001,2025-03-12_15h32.42.548,Where-A-Scan_AC,2022.2.5,None,
4,First_Order,1.0,viswhere,stimulus/viswhere_stim/blank_white.png,stimulus/viswhere_stim/blank_white.png,stimulus/viswhere_stim/150-deg_dot-right_salmon.png,stimulus/viswhere_stim/90-deg_dot-right_goldenrod.png,stimulus/viswhere_stim/blank_white.png,stimulus/viswhere_stim/line_box.png,stimulus/viswhere_stim/line_yes.png,stimulus/viswhere_stim/line_no.png,None,Line,None,Dot,2,0.0,0,5.125,0,5.125,0,5.125,0,0.0,0.625,0,0.0,0,0.0,1,0.5,1,2.125,0,0.0,0,0.0,0,0.0,0,0.0,0,,,,,0,4,4,4,,,,,,,,,67.30651454092003,67.30651454092003,67.30651454092003,67.30651454092003,67.30651454092003,67.30651454092003,67.30651454092003,67.30651454092003,67.2849554583275,67.30651454092003,67.30651454092003,67.30651454092003,67.2849554583275,67.30651454092003,67.30651454092003,67.30651454092003,69.41154162492603,73.44278404093347,67.30651454092003,67.30651454092003,72.43333045800682,67.78932687500492,68.79515424999408,69.41154162492603,70.42257612501271,67.30651454092003,67.30651454092003,67.30162212499417,67.30651454092003,67.30651454092003,67.30651454092003,67.30162212499417,67.30651454092003,67.30651454092003,72.43333045800682,67.30651454092003,72.43333045800682,72.53077670792118,73.16273749992251,67.30651454092003,2,1,1.2396715000504628,reldom2_s032,001,2025-03-12_15h32.42.548,Where-A-Scan_AC,2022.2.5,None,
0,0.0,None,fixation,stimulus/viswhere_stim/blank_white.png,stimulus/viswhere_stim/blank_white.png,stimulus/audwhere_stim/blank_white.png,stimulus/audwhere_stim/blank_white.png,stimulus/viswhere_stim/blank_white.png,stimulus/viswhere_stim/blank_white.png,stimulus/viswhere_stim/blank_white.png,stimulus/viswhere_stim/blank_white.png,0.0,0.0,0.0,0.0,0,0.0,0,0.0,0,0.0,0,0.0,0,0.0,0.0,0,0.0,0,0.0,0,0.0,0,0.0,0,0.0,0,0.0,0,0.0,0,0.0,9,,,,,0,5,5,5,,,,,,,,,73.44278404093347,73.44278404093347,73.44278404093347,73.44278404093347,73.44278404093347,73.44278404093347,73.44278404093347,73.44278404093347,73.34347062425998,73.44278404093347,73.44278404093347,73.44278404093347,73.34347062425998,73.44278404093347,73.44278404093347,73.44278404093347,73.44278404093347,73.44278404093347,73.44278404093347,73.44278404093347,73.44278404093347,73.44278404093347,73.44278404093347,73.44278404093347,73.44278404093347,73.44278404093347,73.44278404093347,73.39347062425998,73.44278404093347,73.44278404093347,73.44278404093347,73.39347062425998,73.44278404093347,73.44278404093347,73.44278404093347,73.44278404093347,73.44278404093347,78.65785495797172,78.65785495797172,82.58933970797807,None,0,,reldom2_s032,001,2025-03-12_15h32.42.548,Where-A-Scan_AC,2022.2.5,None,
5,Second_Order,1.0,viswhere,stimulus/viswhere_stim/90-deg_dot-right_mediumslateblue.png,stimulus/viswhere_stim/90-deg_dot-left_peru.png,stimulus/viswhere_stim/150-deg_dot-left_seagreen.png,stimulus/viswhere_stim/120-deg_dot-left_mediumslateblue.png,stimulus/viswhere_stim/match_blank.png,stimulus/viswhere_stim/match_box.png,stimulus/viswhere_stim/match_yes.png,stimulus/viswhere_stim/match_no.png,2.0,Match,Line,Dot,2,5.125,0,5.125,0,5.125,0,5.125,0,0.75,0.75,1,0.5,1,2.125,1,0.5,1,2.125,0,0.0,0,0.0,0,0.0,0,0.0,0,,,,,0,6,6,6,,,,,,,,,82.58933970797807,87.71230408293195,83.06680174998473,84.06430579093285,84.68763541593216,85.68471212498844,82.58933970797807,82.58933970797807,82.60212641631563,82.58933970797807,82.58933970797807,82.58933970797807,82.60212641631563,82.58933970797807,87.71230408293195,88.50496824993752,90.57969370798673,94.47688983299304,88.50496824993752,88.50496824993752,93.63947024999652,88.95506324991584,89.9615680410061,90.57969370798673,91.5974308749428,88.50496824993752,88.50496824993752,88.47820741625813,88.50496824993752,88.50496824993752,88.50496824993752,88.47820741625813,88.50496824993752,88.50496824993752,93.63947024999652,88.50496824993752,93.63947024999652,93.69679833296686,94.47688983299304,88.50496824993752,2,1,0.7655407499987632,reldom2_s032,001,2025-03-12_15h32.42.548,Where-A-Scan_AC,2022.2.5,None,
6,Second_Order,1.0,viswhere,stimulus/viswhere_stim/60-deg_dot-right_salmon.png,stimulus/viswhere_stim/150-deg_dot-right_cyan.png,stimulus/viswhere_stim/120-deg_dot-left_lightsseagreen.png,stimulus/viswhere_stim/90-deg_dot-left_goldenrod.png,stimulus/viswhere_stim/match_blank.png,stimulus/viswhere_stim/match_box.png,stimulus/viswhere_stim/match_yes.png,stimulus/viswhere_stim/match_no.png,1.0,Match,Dot,Dot,1,5.125,0,5.125,0,5.125,0,5.125,0,0.625,0.625,1,0.5,1,2.125,1,0.5,1,2.125,0,0.0,0,0.0,0,0.0,0,0.0,0,,,,,0,7,7,7,,,,,,,,,94.47688983299304,99.60040520795155,94.96003154094797,95.95863433298655,96.58198399993125,97.579015041003,94.47688983299304,94.47688983299304,94.49041395792737,94.47688983299304,94.47688983299304,94.47688983299304,94.49041395792737,94.47688983299304,99.60040520795155,100.27265187492594,102.35639029101003,106.39244458300527,100.27265187492594,100.27265187492594,105.39631450001616,100.73951691598631,101.74164449993987,102.35639029101003,103.36885016597807,100.27265187492594,100.27265187492594,100.25178829127302,100.27265187492594,100.27265187492594,100.27265187492594,100.25178829127302,100.27265187492594,100.27265187492594,105.39631450001616,100.27265187492594,105.39631450001616,105.47949349996634,106.10538904101122,100.27265187492594,1,1,0.6601607910124585,reldom2_s032,001,2025-03-12_15h32.42.548,Where-A-Scan_AC,2022.2.5,None,
0,0.0,None,fixation,stimulus/viswhere_stim/blank_white.png,stimulus/viswhere_stim/blank_white.png,stimulus/audwhere_stim/blank_white.png,stimulus/audwhere_stim/blank_white.png,stimulus/viswhere_stim/blank_white.png,stimulus/viswhere_stim/blank_white.png,stimulus/viswhere_stim/blank_white.png,stimulus/viswhere_stim/blank_white.png,0.0,0.0,0.0,0.0,0,0.0,0,0.0,0,0.0,0,0.0,0,0.0,0.0,0,0.0,0,0.0,0,0.0,0,0.0,0,0.0,0,0.0,0,0.0,0,0.0,8,,,,,0,8,8,8,,,,,,,,,106.39244458300527,106.39244458300527,106.39244458300527,106.39244458300527,106.39244458300527,106.39244458300527,106.39244458300527,106.39244458300527,106.29171933334631,106.39244458300527,106.39244458300527,106.39244458300527,106.29171933334631,106.39244458300527,106.39244458300527,106.39244458300527,106.39244458300527,106.39244458300527,106.39244458300527,106.39244458300527,106.39244458300527,106.39244458300527,106.39244458300527,106.39244458300527,106.39244458300527,106.39244458300527,106.39244458300527,106.3417193333463,106.39244458300527,106.39244458300527,106.39244458300527,106.3417193333463,106.39244458300527,106.39244458300527,106.39244458300527,106.39244458300527,106.39244458300527,111.5948397499742,111.5948397499742,114.57194166595582,None,0,,reldom2_s032,001,2025-03-12_15h32.42.548,Where-A-Scan_AC,2022.2.5,None,
7,First_Order,2.0,viswhere,stimulus/viswhere_stim/blank_white.png,stimulus/viswhere_stim/blank_white.png,stimulus/viswhere_stim/30-deg_dot-right_cyan.png,stimulus/viswhere_stim/30-deg_dot-left_cyan.png,stimulus/viswhere_stim/blank_white.png,stimulus/viswhere_stim/line_box.png,stimulus/viswhere_stim/line_yes.png,stimulus/viswhere_stim/line_no.png,None,Line,None,Line,1,0.0,0,5.125,0,5.125,0,5.125,0,0.0,0.625,0,0.0,0,0.0,1,0.5,1,2.125,0,0.0,0,0.0,0,0.0,0,0.0,0,,,,,0,9,9,9,,,,,,,,,114.57194166595582,114.57194166595582,114.57194166595582,114.57194166595582,114.57194166595582,114.57194166595582,114.57194166595582,114.57194166595582,114.5507716666131,114.57194166595582,114.57194166595582,114.57194166595582,114.5507716666131,114.57194166595582,114.57194166595582,114.57194166595582,116.66710229101591,120.63586816599127,114.57194166595582,114.57194166595582,119.71266279101837,115.05333620798774,116.07321537495591,116.66710229101591,117.67313716595527,114.57194166595582,114.57194166595582,114.56743833327977,114.57194166595582,114.57194166595582,114.57194166595582,114.56743833327977,114.57194166595582,114.57194166595582,119.71266279101837,114.57194166595582,119.71266279101837,119.81279424997047,120.44760766602121,114.57194166595582,1,1,0.9941205420764163,reldom2_s032,001,2025-03-12_15h32.42.548,Where-A-Scan_AC,2022.2.5,None,
8,First_Order,2.0,viswhere,stimulus/viswhere_stim/blank_white.png,stimulus/viswhere_stim/blank_white.png,stimulus/viswhere_stim/60-deg_dot-right_slateblue.png,stimulus/viswhere_stim/60-deg_dot-left_goldenrod.png,stimulus/viswhere_stim/blank_white.png,stimulus/viswhere_stim/dot_box.png,stimulus/viswhere_stim/dot_yes.png,stimulus/viswhere_stim/dot_no.png,None,Dot,None,Line,2,0.0,0,5.125,0,5.125,0,5.125,0,0.0,0.625,0,0.0,0,0.0,1,0.5,1,2.125,0,0.0,0,0.0,0,0.0,0,0.0,0,,,,,0,10,10,10,,,,,,,,,120.63586816599127,120.63586816599127,120.63586816599127,120.63586816599127,120.63586816599127,120.63586816599127,120.63586816599127,120.63586816599127,120.614303499305,120.63586816599127,120.63586816599127,120.63586816599127,120.614303499305,120.63586816599127,120.63586816599127,120.63586816599127,122.74540579097811,126.70273454091512,120.63586816599127,120.63586816599127,125.76186750002671,121.11673358292319,122.13615041598678,122.74540579097811,123.7506752499612,120.63586816599127,120.63586816599127,120.63097016597166,120.63586816599127,120.63586816599127,120.63586816599127,120.63097016597166,120.63586816599127,120.63586816599127,125.76186750002671,120.63586816599127,125.76186750002671,125.85985470796004,126.51203558291309,120.63586816599127,2,1,0.7987169581465423,reldom2_s032,001,2025-03-12_15h32.42.548,Where-A-Scan_AC,2022.2.5,None,
9,First_Order,2.0,viswhere,stimulus/viswhere_stim/blank_white.png,stimulus/viswhere_stim/blank_white.png,stimulus/viswhere_stim/90-deg_dot-right_cyan.png,stimulus/viswhere_stim/60-deg_dot-right_slateblue.png,stimulus/viswhere_stim/blank_white.png,stimulus/viswhere_stim/dot_box.png,stimulus/viswhere_stim/dot_yes.png,stimulus/viswhere_stim/dot_no.png,None,Dot,None,Dot,1,0.0,0,5.125,0,5.125,0,5.125,0,0.0,0.625,0,0.0,0,0.0,1,0.5,1,2.125,0,0.0,0,0.0,0,0.0,0,0.0,0,,,,,0,11,11,11,,,,,,,,,126.70273454091512,126.70273454091512,126.70273454091512,126.70273454091512,126.70273454091512,126.70273454091512,126.70273454091512,126.70273454091512,126.68129079133116,126.70273454091512,126.70273454091512,126.70273454091512,126.68129079133116,126.70273454091512,126.70273454091512,126.70273454091512,128.81557087495457,132.77255620795768,126.70273454091512,126.70273454091512,131.84065237501636,127.18415737501346,128.201412082999,128.81557087495457,129.81980316597037,126.70273454091512,126.70273454091512,126.69795745799783,126.70273454091512,126.70273454091512,126.70273454091512,126.69795745799783,126.70273454091512,126.70273454091512,131.84065237501636,126.70273454091512,131.84065237501636,131.92411187500693,132.55556095798966,126.70273454091512,1,1,0.7822372500086203,reldom2_s032,001,2025-03-12_15h32.42.548,Where-A-Scan_AC,2022.2.5,None,
10,First_Order,2.0,viswhere,stimulus/viswhere_stim/blank_white.png,stimulus/viswhere_stim/blank_white.png,stimulus/viswhere_stim/60-deg_dot-left_mediumslateblue.png,stimulus/viswhere_stim/150-deg_dot-left_peru.png,stimulus/viswhere_stim/blank_white.png,stimulus/viswhere_stim/dot_box.png,stimulus/viswhere_stim/dot_yes.png,stimulus/viswhere_stim/dot_no.png,None,Dot,None,Dot,1,0.0,0,5.125,0,5.125,0,5.125,0,0.0,0.625,0,0.0,0,0.0,1,0.5,1,2.125,0,0.0,0,0.0,0,0.0,0,0.0,0,,,,,0,12,12,12,,,,,,,,,132.77255620795768,132.77255620795768,132.77255620795768,132.77255620795768,132.77255620795768,132.77255620795768,132.77255620795768,132.77255620795768,132.74982091629258,132.77255620795768,132.77255620795768,132.77255620795768,132.74982091629258,132.77255620795768,132.77255620795768,132.77255620795768,134.87519383302424,138.91702624992467,132.77255620795768,132.77255620795768,137.9098312909482,133.25539254094474,134.2592686249409,134.87519383302424,135.88395633292384,132.77255620795768,132.77255620795768,132.76648758295926,132.77255620795768,132.77255620795768,132.77255620795768,132.76648758295926,132.77255620795768,132.77255620795768,137.9098312909482,132.77255620795768,137.9098312909482,137.9928364160005,138.6196847499814,132.77255620795768,1,1,0.7983232911210507,reldom2_s032,001,2025-03-12_15h32.42.548,Where-A-Scan_AC,2022.2.5,None,
0,0.0,None,fixation,stimulus/viswhere_stim/blank_white.png,stimulus/viswhere_stim/blank_white.png,stimulus/audwhere_stim/blank_white.png,stimulus/audwhere_stim/blank_white.png,stimulus/viswhere_stim/blank_white.png,stimulus/viswhere_stim/blank_white.png,stimulus/viswhere_stim/blank_white.png,stimulus/viswhere_stim/blank_white.png,0.0,0.0,0.0,0.0,0,0.0,0,0.0,0,0.0,0,0.0,0,0.0,0.0,0,0.0,0,0.0,0,0.0,0,0.0,0,0.0,0,0.0,0,0.0,0,0.0,10,,,,,0,13,13,13,,,,,,,,,138.91702624992467,138.91702624992467,138.91702624992467,138.91702624992467,138.91702624992467,138.91702624992467,138.91702624992467,138.91702624992467,138.81734179131067,138.91702624992467,138.91702624992467,138.91702624992467,138.81734179131067,138.91702624992467,138.91702624992467,138.91702624992467,138.91702624992467,138.91702624992467,138.91702624992467,138.91702624992467,138.91702624992467,138.91702624992467,138.91702624992467,138.91702624992467,138.91702624992467,138.91702624992467,138.91702624992467,138.86734179131068,138.91702624992467,138.91702624992467,138.91702624992467,138.86734179131068,138.91702624992467,138.91702624992467,138.91702624992467,138.91702624992467,138.91702624992467,144.12587374995928,144.12587374995928,149.0234537499491,None,0,,reldom2_s032,001,2025-03-12_15h32.42.548,Where-A-Scan_AC,2022.2.5,None,
11,Second_Order,2.0,viswhere,stimulus/viswhere_stim/120-deg_dot-right_turquoise.png,stimulus/viswhere_stim/120-deg_dot-left_goldenrod.png,stimulus/viswhere_stim/60-deg_dot-left_turquoise.png,stimulus/viswhere_stim/150-deg_dot-left_seagreen.png,stimulus/viswhere_stim/match_blank.png,stimulus/viswhere_stim/match_box.png,stimulus/viswhere_stim/match_yes.png,stimulus/viswhere_stim/match_no.png,2.0,Match,Line,Dot,2,5.125,0,5.125,0,5.125,0,5.125,0,0.75,0.75,1,0.5,1,2.125,1,0.5,1,2.125,0,0.0,0,0.0,0,0.0,0,0.0,0,,,,,0,14,14,14,,,,,,,,,149.0234537499491,154.14754558296409,149.5026068749139,150.50101429095957,151.1247252499452,152.1218998329714,149.0234537499491,149.0234537499491,149.0375967492893,149.0234537499491,149.0234537499491,149.0234537499491,149.0375967492893,149.0234537499491,154.14754558296409,154.9405267079128,157.02224904100876,160.90837095794268,154.9405267079128,154.9405267079128,160.07247720798478,155.39061991602648,156.4009793329751,157.02224904100876,158.03533291595522,154.9405267079128,154.9405267079128,154.91483645828754,154.9405267079128,154.9405267079128,154.9405267079128,154.91483645828754,154.9405267079128,154.9405267079128,160.07247720798478,154.9405267079128,160.07247720798478,160.1430507079931,,154.9405267079128,2,1,0.6410882910713553,reldom2_s032,001,2025-03-12_15h32.42.548,Where-A-Scan_AC,2022.2.5,None,
12,Second_Order,2.0,viswhere,stimulus/viswhere_stim/30-deg_dot-right_mediumslateblue.png,stimulus/viswhere_stim/30-deg_dot-left_seagreen.png,stimulus/viswhere_stim/120-deg_dot-right_goldenrod.png,stimulus/viswhere_stim/120-deg_dot-left_salmon.png,stimulus/viswhere_stim/match_blank.png,stimulus/viswhere_stim/match_box.png,stimulus/viswhere_stim/match_yes.png,stimulus/viswhere_stim/match_no.png,1.0,Match,Line,Line,1,5.125,0,5.125,0,5.125,0,5.125,0,0.625,0.625,1,0.5,1,2.125,1,0.5,1,2.125,0,0.0,0,0.0,0,0.0,0,0.0,0,,,,,0,15,15,15,,,,,,,,,160.90837095794268,166.02565970795695,161.39656000002287,162.39529224997386,163.01775374996942,164.0157092079753,160.90837095794268,160.90837095794268,160.92131041591057,160.90837095794268,160.90837095794268,160.90837095794268,160.92131041591057,160.90837095794268,166.02565970795695,166.69737870793324,168.77823758299928,172.80830295791384,166.69737870793324,166.69737870793324,171.82508516602684,167.14285499998368,168.16267174994573,168.77823758299928,169.78530183294788,166.69737870793324,166.69737870793324,166.67197683326282,166.69737870793324,166.69737870793324,166.69737870793324,166.67197683326282,166.69737870793324,166.69737870793324,171.82508516602684,166.69737870793324,171.82508516602684,171.89373416593298,172.52545170800295,166.69737870793324,1,1,0.6461240421049297,reldom2_s032,001,2025-03-12_15h32.42.548,Where-A-Scan_AC,2022.2.5,None,
0,0.0,None,fixation,stimulus/viswhere_stim/blank_white.png,stimulus/viswhere_stim/blank_white.png,stimulus/audwhere_stim/blank_white.png,stimulus/audwhere_stim/blank_white.png,stimulus/viswhere_stim/blank_white.png,stimulus/viswhere_stim/blank_white.png,stimulus/viswhere_stim/blank_white.png,stimulus/viswhere_stim/blank_white.png,0.0,0.0,0.0,0.0,0,0.0,0,0.0,0,0.0,0,0.0,0,0.0,0.0,0,0.0,0,0.0,0,0.0,0,0.0,0,0.0,0,0.0,0,0.0,0,0.0,8,,,,,0,16,16,16,,,,,,,,,172.80830295791384,172.80830295791384,172.80830295791384,172.80830295791384,172.80830295791384,172.80830295791384,172.80830295791384,172.80830295791384,172.70561091632894,172.80830295791384,172.80830295791384,172.80830295791384,172.70561091632894,172.80830295791384,172.80830295791384,172.80830295791384,172.80830295791384,172.80830295791384,172.80830295791384,172.80830295791384,172.80830295791384,172.80830295791384,172.80830295791384,172.80830295791384,172.80830295791384,172.80830295791384,172.80830295791384,172.75561091632895,172.80830295791384,172.80830295791384,172.80830295791384,172.75561091632895,172.80830295791384,172.80830295791384,172.80830295791384,172.80830295791384,172.80830295791384,178.0146294159349,178.0146294159349,181.04996762494557,None,0,,reldom2_s032,001,2025-03-12_15h32.42.548,Where-A-Scan_AC,2022.2.5,None,
13,First_Order,3.0,audwhere,stimulus/audwhere_stim/dummy.wav,stimulus/audwhere_stim/dummy.wav,stimulus/audwhere_stim/right_away_290h.wav,stimulus/audwhere_stim/right_toward_280h.wav,stimulus/audwhere_stim/blank_white.png,stimulus/audwhere_stim/side_box.png,stimulus/audwhere_stim/side_yes.png,stimulus/audwhere_stim/side_no.png,None,Side,None,Side,1,0.0,0,5.125,0,5.125,0,5.125,0,0.0,0.625,0,0.0,0,0.0,0,0.0,0,0.0,0,0.0,0,0.0,1,0.5,1,2.125,0,,,,,0,17,17,17,,,,,,,,,181.04996762494557,181.04996762494557,181.04996762494557,181.04996762494557,181.04996762494557,181.04996762494557,181.04996762494557,181.04996762494557,180.97313562458538,181.04996762494557,181.04996762494557,181.04996762494557,180.97313562458538,181.04996762494557,181.04996762494557,181.04996762494557,183.1534888750175,,181.04996762494557,181.04996762494557,186.2279071250232,181.04996762494557,181.04996762494557,181.04996762494557,181.04996762494557,181.5207465409767,182.59309500001837,181.49014712468878,,183.1534888750175,184.22918208292685,183.12363654160097,,181.04996762494557,186.2279071250232,181.04996762494557,186.2279071250232,186.26925283297896,186.92722449998837,181.04996762494557,1,1,0.882188415969722,reldom2_s032,001,2025-03-12_15h32.42.548,Where-A-Scan_AC,2022.2.5,None,
14,First_Order,3.0,audwhere,stimulus/audwhere_stim/dummy.wav,stimulus/audwhere_stim/dummy.wav,stimulus/audwhere_stim/right_away_300h.wav,stimulus/audwhere_stim/left_away_300h.wav,stimulus/audwhere_stim/blank_white.png,stimulus/audwhere_stim/side_box.png,stimulus/audwhere_stim/side_yes.png,stimulus/audwhere_stim/side_no.png,None,Side,None,Direction,2,0.0,0,5.125,0,5.125,0,5.125,0,0.0,0.625,0,0.0,0,0.0,0,0.0,0,0.0,0,0.0,0,0.0,1,0.5,1,2.125,0,,,,,0,18,18,18,,,,,,,,,187.14202758297324,187.14202758297324,187.14202758297324,187.14202758297324,187.14202758297324,187.14202758297324,187.14202758297324,187.14202758297324,187.06055783332172,187.14202758297324,187.14202758297324,187.14202758297324,187.06055783332172,187.14202758297324,187.14202758297324,187.14202758297324,189.2390953329159,193.26754899998195,187.14202758297324,187.14202758297324,192.31250520795584,187.14202758297324,187.14202758297324,187.14202758297324,187.14202758297324,187.6081578329904,188.67854462494142,187.57794058259267,,189.2390953329159,190.31370970793068,189.20865712460753,,187.14202758297324,192.31250520795584,187.14202758297324,192.31250520795584,192.3534017499769,193.01136512495577,187.14202758297324,2,1,0.891133000026457,reldom2_s032,001,2025-03-12_15h32.42.548,Where-A-Scan_AC,2022.2.5,None,
15,First_Order,3.0,audwhere,stimulus/audwhere_stim/dummy.wav,stimulus/audwhere_stim/dummy.wav,stimulus/audwhere_stim/left_away_290h.wav,stimulus/audwhere_stim/right_away_280h.wav,stimulus/audwhere_stim/blank_white.png,stimulus/audwhere_stim/direction_box.png,stimulus/audwhere_stim/direction_yes.png,stimulus/audwhere_stim/direction_no.png,None,Direction,None,Direction,1,0.0,0,5.125,0,5.125,0,5.125,0,0.0,0.625,0,0.0,0,0.0,0,0.0,0,0.0,0,0.0,0,0.0,1,0.5,1,2.125,0,,,,,0,19,19,19,,,,,,,,,193.26754899998195,193.26754899998195,193.26754899998195,193.26754899998195,193.26754899998195,193.26754899998195,193.26754899998195,193.26754899998195,193.18566416626177,193.26754899998195,193.26754899998195,193.26754899998195,193.18566416626177,193.26754899998195,193.26754899998195,193.26754899998195,195.37745224998798,,193.26754899998195,193.26754899998195,198.42053437500726,193.26754899998195,193.26754899998195,193.26754899998195,193.26754899998195,193.73732049996033,194.7698096659733,193.7066998326375,,195.37745224998798,196.40824470797088,195.3468247076419,,193.26754899998195,198.42053437500726,193.26754899998195,198.42053437500726,198.4621145830024,199.12136020802427,193.26754899998195,1,1,1.3120324580231681,reldom2_s032,001,2025-03-12_15h32.42.548,Where-A-Scan_AC,2022.2.5,None,
16,First_Order,3.0,audwhere,stimulus/audwhere_stim/dummy.wav,stimulus/audwhere_stim/dummy.wav,stimulus/audwhere_stim/right_toward_270h.wav,stimulus/audwhere_stim/right_away_300h.wav,stimulus/audwhere_stim/blank_white.png,stimulus/audwhere_stim/direction_box.png,stimulus/audwhere_stim/direction_yes.png,stimulus/audwhere_stim/direction_no.png,None,Direction,None,Side,2,0.0,0,5.125,0,5.125,0,5.125,0,0.0,0.625,0,0.0,0,0.0,0,0.0,0,0.0,0,0.0,0,0.0,1,0.5,1,2.125,0,,,,,0,20,20,20,,,,,,,,,199.37591437494848,199.37591437494848,199.37591437494848,199.37591437494848,199.37591437494848,199.37591437494848,199.37591437494848,199.37591437494848,199.29569404132977,199.37591437494848,199.37591437494848,199.37591437494848,199.29569404132977,199.37591437494848,199.37591437494848,199.37591437494848,201.48649533302523,205.50896241597366,199.37591437494848,199.37591437494848,204.53223429096397,199.37591437494848,199.37591437494848,199.37591437494848,199.37591437494848,199.84577675000764,200.87765674991533,199.81534579157986,,201.48649533302523,202.51823879091535,201.45600116666563,,199.37591437494848,204.53223429096397,199.37591437494848,204.53223429096397,204.5736076659523,205.2340613330016,199.37591437494848,2,1,1.2549863330787048,reldom2_s032,001,2025-03-12_15h32.42.548,Where-A-Scan_AC,2022.2.5,None,
0,0.0,None,fixation,stimulus/viswhere_stim/blank_white.png,stimulus/viswhere_stim/blank_white.png,stimulus/audwhere_stim/blank_white.png,stimulus/audwhere_stim/blank_white.png,stimulus/viswhere_stim/blank_white.png,stimulus/viswhere_stim/blank_white.png,stimulus/viswhere_stim/blank_white.png,stimulus/viswhere_stim/blank_white.png,0.0,0.0,0.0,0.0,0,0.0,0,0.0,0,0.0,0,0.0,0,0.0,0.0,0,0.0,0,0.0,0,0.0,0,0.0,0,0.0,0,0.0,0,0.0,0,0.0,9,,,,,0,21,21,21,,,,,,,,,205.50896241597366,205.50896241597366,205.50896241597366,205.50896241597366,205.50896241597366,205.50896241597366,205.50896241597366,205.50896241597366,205.40826616625614,205.50896241597366,205.50896241597366,205.50896241597366,205.40826616625614,205.50896241597366,205.50896241597366,205.50896241597366,205.50896241597366,205.50896241597366,205.50896241597366,205.50896241597366,205.50896241597366,205.50896241597366,205.50896241597366,205.50896241597366,205.50896241597366,205.50896241597366,205.50896241597366,205.45826616625612,205.50896241597366,205.50896241597366,205.50896241597366,205.45826616625612,205.50896241597366,205.50896241597366,205.50896241597366,205.50896241597366,205.50896241597366,210.73139429092407,210.73139429092407,214.6399580410216,None,0,,reldom2_s032,001,2025-03-12_15h32.42.548,Where-A-Scan_AC,2022.2.5,None,
17,Second_Order,3.0,audwhere,stimulus/audwhere_stim/right_away_270h.wav,stimulus/audwhere_stim/left_away_270h.wav,stimulus/audwhere_stim/right_toward_280h.wav,stimulus/audwhere_stim/left_toward_280h.wav,stimulus/viswhere_stim/match_blank.png,stimulus/audwhere_stim/match_box.png,stimulus/viswhere_stim/match_yes.png,stimulus/viswhere_stim/match_no.png,1.0,Match,Direction,Direction,1,5.125,0,5.125,0,5.125,0,5.125,0,0.75,0.75,0,0.0,0,0.0,0,0.0,0,0.0,1,0.5,1,2.125,1,0.5,1,2.125,0,,,,,0,22,22,22,,,,,,,,,214.6399580410216,219.76100258296356,214.6399580410216,214.6399580410216,214.6399580410216,214.6399580410216,215.08591691602487,216.07289541594218,215.09999533259932,,216.7210934580071,217.71019937493838,216.72485224967048,,219.76100258296356,220.6155630829744,222.67126758291852,226.61432358296588,220.6155630829744,220.6155630829744,225.79905008291826,220.6155630829744,220.6155630829744,220.6155630829744,220.6155630829744,221.03806316596456,222.1118730410235,221.00779791659832,,222.67126758291852,223.70396316598635,222.64106658258632,,220.6155630829744,225.79905008291826,220.6155630829744,225.79905008291826,225.79905008291826,,220.6155630829744,1,1,0.6904467920539901,reldom2_s032,001,2025-03-12_15h32.42.548,Where-A-Scan_AC,2022.2.5,None,
18,Second_Order,3.0,audwhere,stimulus/audwhere_stim/left_away_300h.wav,stimulus/audwhere_stim/right_away_290h.wav,stimulus/audwhere_stim/left_toward_300h.wav,stimulus/audwhere_stim/left_away_290h.wav,stimulus/viswhere_stim/match_blank.png,stimulus/audwhere_stim/match_box.png,stimulus/viswhere_stim/match_yes.png,stimulus/viswhere_stim/match_no.png,2.0,Match,Direction,Side,2,5.125,0,5.125,0,5.125,0,5.125,0,0.625,0.625,0,0.0,0,0.0,0,0.0,0,0.0,1,0.5,1,2.125,1,0.5,1,2.125,0,,,,,0,23,23,23,,,,,,,,,226.61432358296588,231.72654420800973,226.61432358296588,226.61432358296588,226.61432358296588,226.61432358296588,227.06317020801362,228.0505434999941,227.0774458326089,,228.6983763750177,229.68907116597984,228.70225099969346,229.68907116597984,231.72654420800973,232.4574399580015,234.50573329092003,238.56105258292519,232.4574399580015,232.4574399580015,237.62915741594043,232.4574399580015,232.4574399580015,232.4574399580015,232.4574399580015,232.8784596659243,233.94750258291606,232.84810337465413,,234.50573329092003,235.58143495791592,234.4755322075837,,232.4574399580015,237.62915741594043,232.4574399580015,237.62915741594043,237.62915741594043,238.2851756659802,232.4574399580015,2,1,1.1733541671419516,reldom2_s032,001,2025-03-12_15h32.42.548,Where-A-Scan_AC,2022.2.5,None,
0,0.0,None,fixation,stimulus/viswhere_stim/blank_white.png,stimulus/viswhere_stim/blank_white.png,stimulus/audwhere_stim/blank_white.png,stimulus/audwhere_stim/blank_white.png,stimulus/viswhere_stim/blank_white.png,stimulus/viswhere_stim/blank_white.png,stimulus/viswhere_stim/blank_white.png,stimulus/viswhere_stim/blank_white.png,0.0,0.0,0.0,0.0,0,0.0,0,0.0,0,0.0,0,0.0,0,0.0,0.0,0,0.0,0,0.0,0,0.0,0,0.0,0,0.0,0,0.0,0,0.0,0,0.0,9,,,,,0,24,24,24,,,,,,,,,238.56105258292519,238.56105258292519,238.56105258292519,238.56105258292519,238.56105258292519,238.56105258292519,238.56105258292519,238.56105258292519,238.45953249934442,238.56105258292519,238.56105258292519,238.56105258292519,238.45953249934442,238.56105258292519,238.56105258292519,238.56105258292519,238.56105258292519,238.56105258292519,238.56105258292519,238.56105258292519,238.56105258292519,238.56105258292519,238.56105258292519,238.56105258292519,238.56105258292519,238.56105258292519,238.56105258292519,238.5095324993444,238.56105258292519,238.56105258292519,238.56105258292519,238.5095324993444,238.56105258292519,238.56105258292519,238.56105258292519,238.56105258292519,238.56105258292519,243.76652212499175,243.76652212499175,247.8255281249294,None,0,,reldom2_s032,001,2025-03-12_15h32.42.548,Where-A-Scan_AC,2022.2.5,None,
19,First_Order,4.0,audwhere,stimulus/audwhere_stim/dummy.wav,stimulus/audwhere_stim/dummy.wav,stimulus/audwhere_stim/right_away_300h.wav,stimulus/audwhere_stim/left_away_280h.wav,stimulus/audwhere_stim/blank_white.png,stimulus/audwhere_stim/direction_box.png,stimulus/audwhere_stim/direction_yes.png,stimulus/audwhere_stim/direction_no.png,None,Direction,None,Direction,1,0.0,0,5.125,0,5.125,0,5.125,0,0.0,0.625,0,0.0,0,0.0,0,0.0,0,0.0,0,0.0,0,0.0,1,0.5,1,2.125,0,,,,,0,25,25,25,,,,,,,,,247.8255281249294,247.8255281249294,247.8255281249294,247.8255281249294,247.8255281249294,247.8255281249294,247.8255281249294,247.8255281249294,247.7509532076462,247.8255281249294,247.8255281249294,247.8255281249294,247.7509532076462,247.8255281249294,247.8255281249294,247.8255281249294,249.93517337494995,253.93946054100525,247.8255281249294,247.8255281249294,252.9845462909434,247.8255281249294,247.8255281249294,247.8255281249294,247.8255281249294,248.29506270796992,249.32719991600607,248.26451462466892,,249.93517337494995,250.96941358293407,249.90470749960903,,247.8255281249294,252.9845462909434,247.8255281249294,252.9845462909434,253.02584529097658,253.6847752080066,247.8255281249294,1,1,2.165911542135291,reldom2_s032,001,2025-03-12_15h32.42.548,Where-A-Scan_AC,2022.2.5,None,
20,First_Order,4.0,audwhere,stimulus/audwhere_stim/dummy.wav,stimulus/audwhere_stim/dummy.wav,stimulus/audwhere_stim/right_toward_270h.wav,stimulus/audwhere_stim/right_away_280h.wav,stimulus/audwhere_stim/blank_white.png,stimulus/audwhere_stim/direction_box.png,stimulus/audwhere_stim/direction_yes.png,stimulus/audwhere_stim/direction_no.png,None,Direction,None,Side,2,0.0,0,5.125,0,5.125,0,5.125,0,0.0,0.625,0,0.0,0,0.0,0,0.0,0,0.0,0,0.0,0,0.0,1,0.5,1,2.125,0,,,,,0,26,26,26,,,,,,,,,253.93946054100525,253.93946054100525,253.93946054100525,253.93946054100525,253.93946054100525,253.93946054100525,253.93946054100525,253.93946054100525,253.85909891632232,253.93946054100525,253.93946054100525,253.93946054100525,253.85909891632232,253.93946054100525,253.93946054100525,253.93946054100525,256.05393604096025,260.05942508298904,253.93946054100525,253.93946054100525,259.1040547079174,253.93946054100525,253.93946054100525,253.93946054100525,253.93946054100525,254.4080853749765,255.44375454098918,254.37774979166377,,256.05393604096025,257.0920748329954,256.0233631666672,,253.93946054100525,259.1040547079174,253.93946054100525,259.1040547079174,259.14549733302556,259.8053605000023,253.93946054100525,2,1,0.5322695840150118,reldom2_s032,001,2025-03-12_15h32.42.548,Where-A-Scan_AC,2022.2.5,None,
21,First_Order,4.0,audwhere,stimulus/audwhere_stim/dummy.wav,stimulus/audwhere_stim/dummy.wav,stimulus/audwhere_stim/left_toward_300h.wav,stimulus/audwhere_stim/left_away_300h.wav,stimulus/audwhere_stim/blank_white.png,stimulus/audwhere_stim/side_box.png,stimulus/audwhere_stim/side_yes.png,stimulus/audwhere_stim/side_no.png,None,Side,None,Side,1,0.0,0,5.125,0,5.125,0,5.125,0,0.0,0.625,0,0.0,0,0.0,0,0.0,0,0.0,0,0.0,0,0.0,1,0.5,1,2.125,0,,,,,0,27,27,27,,,,,,,,,260.05942508298904,260.05942508298904,260.05942508298904,260.05942508298904,260.05942508298904,260.05942508298904,260.05942508298904,260.05942508298904,259.97965083332576,260.05942508298904,260.05942508298904,260.05942508298904,259.97965083332576,260.05942508298904,260.05942508298904,260.05942508298904,262.1582626659656,,260.05942508298904,260.05942508298904,265.23962120793294,260.05942508298904,260.05942508298904,260.05942508298904,260.05942508298904,260.52567008300684,261.5991126659792,260.4955381246439,,262.1582626659656,263.1898559159599,262.1282140416481,,260.05942508298904,265.23962120793294,260.05942508298904,265.23962120793294,265.2808446249692,265.9369406659389,260.05942508298904,1,1,0.831580875092186,reldom2_s032,001,2025-03-12_15h32.42.548,Where-A-Scan_AC,2022.2.5,None,
22,First_Order,4.0,audwhere,stimulus/audwhere_stim/dummy.wav,stimulus/audwhere_stim/dummy.wav,stimulus/audwhere_stim/right_away_270h.wav,stimulus/audwhere_stim/left_away_300h.wav,stimulus/audwhere_stim/blank_white.png,stimulus/audwhere_stim/side_box.png,stimulus/audwhere_stim/side_yes.png,stimulus/audwhere_stim/side_no.png,None,Side,None,Direction,2,0.0,0,5.125,0,5.125,0,5.125,0,0.0,0.625,0,0.0,0,0.0,0,0.0,0,0.0,0,0.0,0,0.0,1,0.5,1,2.125,0,,,,,0,28,28,28,,,,,,,,,266.1503212079406,266.1503212079406,266.1503212079406,266.1503212079406,266.1503212079406,266.1503212079406,266.1503212079406,266.1503212079406,266.0702739992722,266.1503212079406,266.1503212079406,266.1503212079406,266.0702739992722,266.1503212079406,266.1503212079406,266.1503212079406,268.2469584159553,,266.1503212079406,266.1503212079406,271.32869083294645,266.1503212079406,266.1503212079406,266.1503212079406,266.1503212079406,266.6168822499458,267.68875316600315,266.5869677495832,,268.2469584159553,269.27753204095643,268.2169951246508,,266.1503212079406,271.32869083294645,266.1503212079406,271.32869083294645,271.36995462491177,272.02853745792527,266.1503212079406,2,1,1.473930458072573,reldom2_s032,001,2025-03-12_15h32.42.548,Where-A-Scan_AC,2022.2.5,None,
0,0.0,None,fixation,stimulus/viswhere_stim/blank_white.png,stimulus/viswhere_stim/blank_white.png,stimulus/audwhere_stim/blank_white.png,stimulus/audwhere_stim/blank_white.png,stimulus/viswhere_stim/blank_white.png,stimulus/viswhere_stim/blank_white.png,stimulus/viswhere_stim/blank_white.png,stimulus/viswhere_stim/blank_white.png,0.0,0.0,0.0,0.0,0,0.0,0,0.0,0,0.0,0,0.0,0,0.0,0.0,0,0.0,0,0.0,0,0.0,0,0.0,0,0.0,0,0.0,0,0.0,0,0.0,9,,,,,0,29,29,29,,,,,,,,,272.26312399993185,272.26312399993185,272.26312399993185,272.26312399993185,272.26312399993185,272.26312399993185,272.26312399993185,272.26312399993185,272.1618707912586,272.26312399993185,272.26312399993185,272.26312399993185,272.1618707912586,272.26312399993185,272.26312399993185,272.26312399993185,272.26312399993185,272.26312399993185,272.26312399993185,272.26312399993185,272.26312399993185,272.26312399993185,272.26312399993185,272.26312399993185,272.26312399993185,272.26312399993185,272.26312399993185,272.2118707912586,272.26312399993185,272.26312399993185,272.26312399993185,272.2118707912586,272.26312399993185,272.26312399993185,272.26312399993185,272.26312399993185,272.26312399993185,277.47371904097963,277.47371904097963,281.43728908291087,None,0,,reldom2_s032,001,2025-03-12_15h32.42.548,Where-A-Scan_AC,2022.2.5,None,
23,Second_Order,4.0,audwhere,stimulus/audwhere_stim/left_away_270h.wav,stimulus/audwhere_stim/left_toward_290h.wav,stimulus/audwhere_stim/left_toward_300h.wav,stimulus/audwhere_stim/right_toward_280h.wav,stimulus/viswhere_stim/match_blank.png,stimulus/audwhere_stim/match_box.png,stimulus/viswhere_stim/match_yes.png,stimulus/viswhere_stim/match_no.png,2.0,Match,Side,Direction,2,5.125,0,5.125,0,5.125,0,5.125,0,0.75,0.75,0,0.0,0,0.0,0,0.0,0,0.0,1,0.5,1,2.125,1,0.5,1,2.125,0,,,,,0,30,30,30,,,,,,,,,281.43728908291087,286.55266533291433,281.43728908291087,281.43728908291087,281.43728908291087,281.43728908291087,281.8904467909597,282.877386832959,281.9043275416518,282.8941838329192,283.51245870802086,284.51068062498234,283.5251946666433,,286.55266533291433,287.40128316602204,289.4568097079173,293.40665604092646,287.40128316602204,287.40128316602204,292.58637083298527,287.40128316602204,287.40128316602204,287.40128316602204,287.40128316602204,287.8218838329194,288.85136774997227,287.7915880826224,,289.4568097079173,290.4889362079557,289.4264673746113,,287.40128316602204,292.58637083298527,287.40128316602204,292.58637083298527,292.58637083298527,,287.40128316602204,2,1,0.6581568330293521,reldom2_s032,001,2025-03-12_15h32.42.548,Where-A-Scan_AC,2022.2.5,None,
24,Second_Order,4.0,audwhere,stimulus/audwhere_stim/right_toward_290h.wav,stimulus/audwhere_stim/right_away_290h.wav,stimulus/audwhere_stim/left_away_300h.wav,stimulus/audwhere_stim/left_toward_270h.wav,stimulus/viswhere_stim/match_blank.png,stimulus/audwhere_stim/match_box.png,stimulus/viswhere_stim/match_yes.png,stimulus/viswhere_stim/match_no.png,1.0,Match,Side,Side,1,5.125,0,5.125,0,5.125,0,5.125,0,0.625,0.625,0,0.0,0,0.0,0,0.0,0,0.0,1,0.5,1,2.125,1,0.5,1,2.125,0,,,,,0,31,31,31,,,,,,,,,293.40665604092646,298.53142654092517,293.40665604092646,293.40665604092646,293.40665604092646,293.40665604092646,293.8654071659548,294.85461304092314,293.8679771245845,,295.49194550001994,296.48889545793645,295.50327949965526,,298.53142654092517,299.2586981659988,301.3109907909529,305.37944545794744,299.2586981659988,299.2586981659988,304.44497787498403,299.2586981659988,299.2586981659988,299.2586981659988,299.2586981659988,299.67764262494165,300.7517162079457,299.64743512467635,,301.3109907909529,302.34449145791586,301.2810763326163,,299.2586981659988,304.44497787498403,299.2586981659988,304.44497787498403,304.44497787498403,305.1034465000266,299.2586981659988,1,1,0.5826094161020592,reldom2_s032,001,2025-03-12_15h32.42.548,Where-A-Scan_AC,2022.2.5,None,
0,0.0,None,fixation,stimulus/viswhere_stim/blank_white.png,stimulus/viswhere_stim/blank_white.png,stimulus/audwhere_stim/blank_white.png,stimulus/audwhere_stim/blank_white.png,stimulus/viswhere_stim/blank_white.png,stimulus/viswhere_stim/blank_white.png,stimulus/viswhere_stim/blank_white.png,stimulus/viswhere_stim/blank_white.png,0.0,0.0,0.0,0.0,0,0.0,0,0.0,0,0.0,0,0.0,0,0.0,0.0,0,0.0,0,0.0,0,0.0,0,0.0,0,0.0,0,0.0,0,0.0,0,0.0,10,,,,,0,32,32,32,,,,,,,,,305.37944545794744,305.37944545794744,305.37944545794744,305.37944545794744,305.37944545794744,305.37944545794744,305.37944545794744,305.37944545794744,305.27756570829854,305.37944545794744,305.37944545794744,305.37944545794744,305.27756570829854,305.37944545794744,305.37944545794744,305.37944545794744,305.37944545794744,305.37944545794744,305.37944545794744,305.37944545794744,305.37944545794744,305.37944545794744,305.37944545794744,305.37944545794744,305.37944545794744,305.37944545794744,305.37944545794744,305.32756570829855,305.37944545794744,305.37944545794744,305.37944545794744,305.32756570829855,305.37944545794744,305.37944545794744,305.37944545794744,305.37944545794744,305.37944545794744,310.58380945795216,310.58380945795216,315.55053812498227,None,0,,reldom2_s032,001,2025-03-12_15h32.42.548,Where-A-Scan_AC,2022.2.5,None,
25,First_Order,5.0,viswhere,stimulus/viswhere_stim/blank_white.png,stimulus/viswhere_stim/blank_white.png,stimulus/viswhere_stim/120-deg_dot-right_goldenrod.png,stimulus/viswhere_stim/150-deg_dot-right_turquoise.png,stimulus/viswhere_stim/blank_white.png,stimulus/viswhere_stim/dot_box.png,stimulus/viswhere_stim/dot_yes.png,stimulus/viswhere_stim/dot_no.png,None,Dot,None,Dot,1,0.0,0,5.125,0,5.125,0,5.125,0,0.0,0.625,0,0.0,0,0.0,1,0.5,1,2.125,0,0.0,0,0.0,0,0.0,0,0.0,0,,,,,0,33,33,33,,,,,,,,,315.55053812498227,315.55053812498227,315.55053812498227,315.55053812498227,315.55053812498227,315.55053812498227,315.55053812498227,315.55053812498227,315.52972641660983,315.55053812498227,315.55053812498227,315.55053812498227,315.52972641660983,315.55053812498227,315.55053812498227,315.55053812498227,317.6524766659131,321.6198474999983,315.55053812498227,315.55053812498227,320.6858100409154,316.03346470801625,317.03679179097526,317.6524766659131,318.6598249579547,315.55053812498227,315.55053812498227,315.54639308327654,315.55053812498227,315.55053812498227,315.55053812498227,315.54639308327654,315.55053812498227,315.55053812498227,320.6858100409154,315.55053812498227,320.6858100409154,320.7713823330123,321.4028259579791,315.55053812498227,1,1,0.9993723330553621,reldom2_s032,001,2025-03-12_15h32.42.548,Where-A-Scan_AC,2022.2.5,None,
26,First_Order,5.0,viswhere,stimulus/viswhere_stim/blank_white.png,stimulus/viswhere_stim/blank_white.png,stimulus/viswhere_stim/90-deg_dot-right_royalblue.png,stimulus/viswhere_stim/120-deg_dot-right_seagreen.png,stimulus/viswhere_stim/blank_white.png,stimulus/viswhere_stim/line_box.png,stimulus/viswhere_stim/line_yes.png,stimulus/viswhere_stim/line_no.png,None,Line,None,Dot,2,0.0,0,5.125,0,5.125,0,5.125,0,0.0,0.625,0,0.0,0,0.0,1,0.5,1,2.125,0,0.0,0,0.0,0,0.0,0,0.0,0,,,,,0,34,34,34,,,,,,,,,321.6198474999983,321.6198474999983,321.6198474999983,321.6198474999983,321.6198474999983,321.6198474999983,321.6198474999983,321.6198474999983,321.5982250832797,321.6198474999983,321.6198474999983,321.6198474999983,321.5982250832797,321.6198474999983,321.6198474999983,321.6198474999983,323.71980316599365,327.68831250001676,321.6198474999983,321.6198474999983,326.7576019159751,322.1009733329993,323.10449574992526,323.71980316599365,324.7294900829438,321.6198474999983,321.6198474999983,321.61489174994637,321.6198474999983,321.6198474999983,321.6198474999983,321.61489174994637,321.6198474999983,321.6198474999983,326.7576019159751,321.6198474999983,326.7576019159751,326.85787966591306,327.48632779100444,321.6198474999983,2,1,0.5159792500780895,reldom2_s032,001,2025-03-12_15h32.42.548,Where-A-Scan_AC,2022.2.5,None,
27,First_Order,5.0,viswhere,stimulus/viswhere_stim/blank_white.png,stimulus/viswhere_stim/blank_white.png,stimulus/viswhere_stim/60-deg_dot-left_lightsseagreen.png,stimulus/viswhere_stim/60-deg_dot-right_slateblue.png,stimulus/viswhere_stim/blank_white.png,stimulus/viswhere_stim/line_box.png,stimulus/viswhere_stim/line_yes.png,stimulus/viswhere_stim/line_no.png,None,Line,None,Line,1,0.0,0,5.125,0,5.125,0,5.125,0,0.0,0.625,0,0.0,0,0.0,1,0.5,1,2.125,0,0.0,0,0.0,0,0.0,0,0.0,0,,,,,0,35,35,35,,,,,,,,,327.68831250001676,327.68831250001676,327.68831250001676,327.68831250001676,327.68831250001676,327.68831250001676,327.68831250001676,327.68831250001676,327.6669317083045,327.68831250001676,327.68831250001676,327.68831250001676,327.6669317083045,327.68831250001676,327.68831250001676,327.68831250001676,329.8032732499996,333.7486721249297,327.68831250001676,327.68831250001676,332.80979337496683,328.1699951660121,329.1892632499803,329.8032732499996,330.81027883291245,327.68831250001676,327.68831250001676,327.68359837497115,327.68831250001676,327.68831250001676,327.68831250001676,327.68359837497115,327.68831250001676,327.68831250001676,332.80979337496683,327.68831250001676,332.80979337496683,332.9076662079897,333.53373070794623,327.68831250001676,1,1,0.752136875060387,reldom2_s032,001,2025-03-12_15h32.42.548,Where-A-Scan_AC,2022.2.5,None,
28,First_Order,5.0,viswhere,stimulus/viswhere_stim/blank_white.png,stimulus/viswhere_stim/blank_white.png,stimulus/viswhere_stim/120-deg_dot-right_slateblue.png,stimulus/viswhere_stim/90-deg_dot-right_cyan.png,stimulus/viswhere_stim/blank_white.png,stimulus/viswhere_stim/dot_box.png,stimulus/viswhere_stim/dot_yes.png,stimulus/viswhere_stim/dot_no.png,None,Dot,None,Dot,1,0.0,0,5.125,0,5.125,0,5.125,0,0.0,0.625,0,0.0,0,0.0,1,0.5,1,2.125,0,0.0,0,0.0,0,0.0,0,0.0,0,,,,,0,36,36,36,,,,,,,,,333.7486721249297,333.7486721249297,333.7486721249297,333.7486721249297,333.7486721249297,333.7486721249297,333.7486721249297,333.7486721249297,333.7276556662594,333.7486721249297,333.7486721249297,333.7486721249297,333.7276556662594,333.7486721249297,333.7486721249297,333.7486721249297,335.8647082080133,339.88582258298993,333.7486721249297,333.7486721249297,338.87321699992754,334.228884665994,335.2317925830139,335.8647082080133,336.87346954096574,333.7486721249297,333.7486721249297,333.74432233292606,333.7486721249297,333.7486721249297,333.7486721249297,333.74432233292606,333.7486721249297,333.7486721249297,338.87321699992754,333.7486721249297,338.87321699992754,338.971539040911,339.60669449996203,333.7486721249297,1,1,0.6225524580804631,reldom2_s032,001,2025-03-12_15h32.42.548,Where-A-Scan_AC,2022.2.5,None,
0,0.0,None,fixation,stimulus/viswhere_stim/blank_white.png,stimulus/viswhere_stim/blank_white.png,stimulus/audwhere_stim/blank_white.png,stimulus/audwhere_stim/blank_white.png,stimulus/viswhere_stim/blank_white.png,stimulus/viswhere_stim/blank_white.png,stimulus/viswhere_stim/blank_white.png,stimulus/viswhere_stim/blank_white.png,0.0,0.0,0.0,0.0,0,0.0,0,0.0,0,0.0,0,0.0,0,0.0,0.0,0,0.0,0,0.0,0,0.0,0,0.0,0,0.0,0,0.0,0,0.0,0,0.0,9,,,,,0,37,37,37,,,,,,,,,339.88582258298993,339.88582258298993,339.88582258298993,339.88582258298993,339.88582258298993,339.88582258298993,339.88582258298993,339.88582258298993,339.7874847492979,339.88582258298993,339.88582258298993,339.88582258298993,339.7874847492979,339.88582258298993,339.88582258298993,339.88582258298993,339.88582258298993,339.88582258298993,339.88582258298993,339.88582258298993,339.88582258298993,339.88582258298993,339.88582258298993,339.88582258298993,339.88582258298993,339.88582258298993,339.88582258298993,339.8374847492979,339.88582258298993,339.88582258298993,339.88582258298993,339.8374847492979,339.88582258298993,339.88582258298993,339.88582258298993,339.88582258298993,339.88582258298993,345.1051447079517,345.1051447079517,348.98937216599006,None,0,,reldom2_s032,001,2025-03-12_15h32.42.548,Where-A-Scan_AC,2022.2.5,None,
29,Second_Order,5.0,viswhere,stimulus/viswhere_stim/150-deg_dot-right_cyan.png,stimulus/viswhere_stim/150-deg_dot-left_peru.png,stimulus/viswhere_stim/90-deg_dot-left_goldenrod.png,stimulus/viswhere_stim/90-deg_dot-right_mediumslateblue.png,stimulus/viswhere_stim/match_blank.png,stimulus/viswhere_stim/match_box.png,stimulus/viswhere_stim/match_yes.png,stimulus/viswhere_stim/match_no.png,1.0,Match,Line,Line,1,5.125,0,5.125,0,5.125,0,5.125,0,0.75,0.75,1,0.5,1,2.125,1,0.5,1,2.125,0,0.0,0,0.0,0,0.0,0,0.0,0,,,,,0,38,38,38,,,,,,,,,348.98937216599006,354.1097982079955,349.464873458026,350.463030874962,351.09776349994354,352.08831304102205,348.98937216599006,348.98937216599006,349.0034110832804,348.98937216599006,348.98937216599006,348.98937216599006,349.0034110832804,348.98937216599006,354.1097982079955,354.903169374913,356.9839752080152,360.8699014999438,354.903169374913,354.903169374913,360.04090283298865,355.35405724996235,356.3628005409846,356.9839752080152,357.9986582909478,354.903169374913,354.903169374913,354.8766822492548,354.903169374913,354.903169374913,354.903169374913,354.8766822492548,354.903169374913,354.903169374913,360.04090283298865,354.903169374913,360.04090283298865,360.10133774997666,,354.903169374913,1,1,0.5236945000942796,reldom2_s032,001,2025-03-12_15h32.42.548,Where-A-Scan_AC,2022.2.5,None,
30,Second_Order,5.0,viswhere,stimulus/viswhere_stim/90-deg_dot-right_royalblue.png,stimulus/viswhere_stim/60-deg_dot-right_peru.png,stimulus/viswhere_stim/30-deg_dot-left_slateblue.png,stimulus/viswhere_stim/90-deg_dot-left_seagreen.png,stimulus/viswhere_stim/match_blank.png,stimulus/viswhere_stim/match_box.png,stimulus/viswhere_stim/match_yes.png,stimulus/viswhere_stim/match_no.png,1.0,Match,Dot,Dot,1,5.125,0,5.125,0,5.125,0,5.125,0,0.625,0.625,1,0.5,1,2.125,1,0.5,1,2.125,0,0.0,0,0.0,0,0.0,0,0.0,0,,,,,0,39,39,39,,,,,,,,,360.8699014999438,365.9872794159455,361.35883766599,362.35746704100166,362.9793659999268,363.9779197910102,360.8699014999438,360.8699014999438,360.88324950002135,360.8699014999438,360.8699014999438,360.8699014999438,360.88324950002135,360.8699014999438,365.9872794159455,366.65549387491774,368.72896808292717,372.79974433302414,366.65549387491774,366.65549387491774,371.78990766592324,367.10603120794985,368.1101036659675,368.72896808292717,369.7400759579614,366.65549387491774,366.65549387491774,366.6337308742882,366.65549387491774,366.65549387491774,366.65549387491774,366.6337308742882,366.65549387491774,366.65549387491774,371.78990766592324,366.65549387491774,371.78990766592324,371.858747290913,372.4843835409265,366.65549387491774,1,1,0.41839537501800805,reldom2_s032,001,2025-03-12_15h32.42.548,Where-A-Scan_AC,2022.2.5,None,
0,0.0,None,fixation,stimulus/viswhere_stim/blank_white.png,stimulus/viswhere_stim/blank_white.png,stimulus/audwhere_stim/blank_white.png,stimulus/audwhere_stim/blank_white.png,stimulus/viswhere_stim/blank_white.png,stimulus/viswhere_stim/blank_white.png,stimulus/viswhere_stim/blank_white.png,stimulus/viswhere_stim/blank_white.png,0.0,0.0,0.0,0.0,0,0.0,0,0.0,0,0.0,0,0.0,0,0.0,0.0,0,0.0,0,0.0,0,0.0,0,0.0,0,0.0,0,0.0,0,0.0,0,0.0,8,,,,,0,40,40,40,,,,,,,,,372.79974433302414,372.79974433302414,372.79974433302414,372.79974433302414,372.79974433302414,372.79974433302414,372.79974433302414,372.79974433302414,372.69690762433066,372.79974433302414,372.79974433302414,372.79974433302414,372.69690762433066,372.79974433302414,372.79974433302414,372.79974433302414,372.79974433302414,372.79974433302414,372.79974433302414,372.79974433302414,372.79974433302414,372.79974433302414,372.79974433302414,372.79974433302414,372.79974433302414,372.79974433302414,372.79974433302414,372.7469076243307,372.79974433302414,372.79974433302414,372.79974433302414,372.7469076243307,372.79974433302414,372.79974433302414,372.79974433302414,372.79974433302414,372.79974433302414,378.01536229101475,378.01536229101475,380.9953077909304,None,0,,reldom2_s032,001,2025-03-12_15h32.42.548,Where-A-Scan_AC,2022.2.5,None,
31,First_Order,6.0,viswhere,stimulus/viswhere_stim/blank_white.png,stimulus/viswhere_stim/blank_white.png,stimulus/viswhere_stim/90-deg_dot-right_lightsseagreen.png,stimulus/viswhere_stim/90-deg_dot-left_turquoise.png,stimulus/viswhere_stim/blank_white.png,stimulus/viswhere_stim/line_box.png,stimulus/viswhere_stim/line_yes.png,stimulus/viswhere_stim/line_no.png,None,Line,None,Line,1,0.0,0,5.125,0,5.125,0,5.125,0,0.0,0.625,0,0.0,0,0.0,1,0.5,1,2.125,0,0.0,0,0.0,0,0.0,0,0.0,0,,,,,0,41,41,41,,,,,,,,,380.9953077909304,380.9953077909304,380.9953077909304,380.9953077909304,380.9953077909304,380.9953077909304,380.9953077909304,380.9953077909304,380.9739932075996,380.9953077909304,380.9953077909304,380.9953077909304,380.9739932075996,380.9953077909304,380.9953077909304,380.9953077909304,383.1015582079999,387.05302791600116,380.9953077909304,380.9953077909304,386.11852087499574,381.47857570799533,382.4844095829176,383.1015582079999,384.10845033300575,380.9953077909304,380.9953077909304,380.9906598742663,380.9953077909304,380.9953077909304,380.9953077909304,380.9906598742663,380.9953077909304,380.9953077909304,386.11852087499574,380.9953077909304,386.11852087499574,386.2166640829528,386.8512694579549,380.9953077909304,1,1,1.186968291993253,reldom2_s032,001,2025-03-12_15h32.42.548,Where-A-Scan_AC,2022.2.5,None,
32,First_Order,6.0,viswhere,stimulus/viswhere_stim/blank_white.png,stimulus/viswhere_stim/blank_white.png,stimulus/viswhere_stim/30-deg_dot-right_goldenrod.png,stimulus/viswhere_stim/30-deg_dot-left_seagreen.png,stimulus/viswhere_stim/blank_white.png,stimulus/viswhere_stim/dot_box.png,stimulus/viswhere_stim/dot_yes.png,stimulus/viswhere_stim/dot_no.png,None,Dot,None,Line,2,0.0,0,5.125,0,5.125,0,5.125,0,0.0,0.625,0,0.0,0,0.0,1,0.5,1,2.125,0,0.0,0,0.0,0,0.0,0,0.0,0,,,,,0,42,42,42,,,,,,,,,387.05302791600116,387.05302791600116,387.05302791600116,387.05302791600116,387.05302791600116,387.05302791600116,387.05302791600116,387.05302791600116,387.03203004129074,387.05302791600116,387.05302791600116,387.05302791600116,387.03203004129074,387.05302791600116,387.05302791600116,387.05302791600116,389.1508869579993,393.1195982500212,387.05302791600116,387.05302791600116,392.1780204999959,387.53535008302424,388.554463999928,389.1508869579993,390.15822920796927,387.05302791600116,387.05302791600116,387.0486967079574,387.05302791600116,387.05302791600116,387.05302791600116,387.0486967079574,387.05302791600116,387.05302791600116,392.1780204999959,387.05302791600116,392.1780204999959,392.27547570795286,392.9042330000084,387.05302791600116,2,1,0.8261503340909258,reldom2_s032,001,2025-03-12_15h32.42.548,Where-A-Scan_AC,2022.2.5,None,
33,First_Order,6.0,viswhere,stimulus/viswhere_stim/blank_white.png,stimulus/viswhere_stim/blank_white.png,stimulus/viswhere_stim/150-deg_dot-left_lightsseagreen.png,stimulus/viswhere_stim/150-deg_dot-right_royalblue.png,stimulus/viswhere_stim/blank_white.png,stimulus/viswhere_stim/dot_box.png,stimulus/viswhere_stim/dot_yes.png,stimulus/viswhere_stim/dot_no.png,None,Dot,None,Line,2,0.0,0,5.125,0,5.125,0,5.125,0,0.0,0.625,0,0.0,0,0.0,1,0.5,1,2.125,0,0.0,0,0.0,0,0.0,0,0.0,0,,,,,0,43,43,43,,,,,,,,,393.1195982500212,393.1195982500212,393.1195982500212,393.1195982500212,393.1195982500212,393.1195982500212,393.1195982500212,393.1195982500212,393.09818933329854,393.1195982500212,393.1195982500212,393.1195982500212,393.09818933329854,393.1195982500212,393.1195982500212,393.1195982500212,395.2174349579727,399.18261591601186,393.1195982500212,393.1195982500212,398.25597854098305,393.60543416591827,394.6144744999474,395.2174349579727,396.2334727499401,393.1195982500212,393.1195982500212,393.1148559999652,393.1195982500212,393.1195982500212,393.1195982500212,393.1148559999652,393.1195982500212,393.1195982500212,398.25597854098305,393.1195982500212,398.25597854098305,398.3395059159957,398.965738666011,393.1195982500212,2,1,0.6208036250900477,reldom2_s032,001,2025-03-12_15h32.42.548,Where-A-Scan_AC,2022.2.5,None,
34,First_Order,6.0,viswhere,stimulus/viswhere_stim/blank_white.png,stimulus/viswhere_stim/blank_white.png,stimulus/viswhere_stim/120-deg_dot-left_peru.png,stimulus/viswhere_stim/90-deg_dot-left_royalblue.png,stimulus/viswhere_stim/blank_white.png,stimulus/viswhere_stim/line_box.png,stimulus/viswhere_stim/line_yes.png,stimulus/viswhere_stim/line_no.png,None,Line,None,Dot,2,0.0,0,5.125,0,5.125,0,5.125,0,0.0,0.625,0,0.0,0,0.0,1,0.5,1,2.125,0,0.0,0,0.0,0,0.0,0,0.0,0,,,,,0,44,44,44,,,,,,,,,399.18261591601186,399.18261591601186,399.18261591601186,399.18261591601186,399.18261591601186,399.18261591601186,399.18261591601186,399.18261591601186,399.16067566625617,399.18261591601186,399.18261591601186,399.18261591601186,399.16067566625617,399.18261591601186,399.18261591601186,399.18261591601186,401.28654483298305,405.3302919579437,399.18261591601186,399.18261591601186,404.30624099995475,399.66476191591937,400.6684795409674,401.28654483298305,402.2959875409724,399.18261591601186,399.18261591601186,399.1773423329228,399.18261591601186,399.18261591601186,399.18261591601186,399.1773423329228,399.18261591601186,399.18261591601186,404.30624099995475,399.18261591601186,404.30624099995475,404.4035111659905,405.0354716249276,399.18261591601186,2,1,0.7154607920674607,reldom2_s032,001,2025-03-12_15h32.42.548,Where-A-Scan_AC,2022.2.5,None,
0,0.0,None,fixation,stimulus/viswhere_stim/blank_white.png,stimulus/viswhere_stim/blank_white.png,stimulus/audwhere_stim/blank_white.png,stimulus/audwhere_stim/blank_white.png,stimulus/viswhere_stim/blank_white.png,stimulus/viswhere_stim/blank_white.png,stimulus/viswhere_stim/blank_white.png,stimulus/viswhere_stim/blank_white.png,0.0,0.0,0.0,0.0,0,0.0,0,0.0,0,0.0,0,0.0,0,0.0,0.0,0,0.0,0,0.0,0,0.0,0,0.0,0,0.0,0,0.0,0,0.0,0,0.0,10,,,,,0,45,45,45,,,,,,,,,405.3302919579437,405.3302919579437,405.3302919579437,405.3302919579437,405.3302919579437,405.3302919579437,405.3302919579437,405.3302919579437,405.22928574933513,405.3302919579437,405.3302919579437,405.3302919579437,405.22928574933513,405.3302919579437,405.3302919579437,405.3302919579437,405.3302919579437,405.3302919579437,405.3302919579437,405.3302919579437,405.3302919579437,405.3302919579437,405.3302919579437,405.3302919579437,405.3302919579437,405.3302919579437,405.3302919579437,405.27928574933514,405.3302919579437,405.3302919579437,405.3302919579437,405.27928574933514,405.3302919579437,405.3302919579437,405.3302919579437,405.3302919579437,405.3302919579437,410.54120337497443,410.54120337497443,415.44868274999317,None,0,,reldom2_s032,001,2025-03-12_15h32.42.548,Where-A-Scan_AC,2022.2.5,None,
35,Second_Order,6.0,viswhere,stimulus/viswhere_stim/60-deg_dot-right_mediumslateblue.png,stimulus/viswhere_stim/150-deg_dot-right_turquoise.png,stimulus/viswhere_stim/90-deg_dot-right_slateblue.png,stimulus/viswhere_stim/90-deg_dot-left_seagreen.png,stimulus/viswhere_stim/match_blank.png,stimulus/viswhere_stim/match_box.png,stimulus/viswhere_stim/match_yes.png,stimulus/viswhere_stim/match_no.png,2.0,Match,Dot,Line,2,5.125,0,5.125,0,5.125,0,5.125,0,0.75,0.75,1,0.5,1,2.125,1,0.5,1,2.125,0,0.0,0,0.0,0,0.0,0,0.0,0,,,,,0,46,46,46,,,,,,,,,415.44868274999317,420.5628067079233,415.9309593749931,416.9194739999948,417.5564677079674,418.55401824996807,415.44868274999317,415.44868274999317,415.46238058331267,415.44868274999317,415.44868274999317,415.44868274999317,415.46238058331267,415.44868274999317,420.5628067079233,421.3551009160001,423.4376327500213,427.32633845799137,421.3551009160001,421.3551009160001,426.4922864160035,421.804917249945,422.81722595798783,423.4376327500213,424.4536607079208,421.3551009160001,421.3551009160001,421.3304370832707,421.3551009160001,421.3551009160001,421.3551009160001,421.3304370832707,421.3551009160001,421.3551009160001,426.4922864160035,421.3551009160001,426.4922864160035,426.54909841599874,427.32633845799137,421.3551009160001,2,1,0.5701525829499587,reldom2_s032,001,2025-03-12_15h32.42.548,Where-A-Scan_AC,2022.2.5,None,
36,Second_Order,6.0,viswhere,stimulus/viswhere_stim/120-deg_dot-left_royalblue.png,stimulus/viswhere_stim/120-deg_dot-right_cyan.png,stimulus/viswhere_stim/90-deg_dot-left_slateblue.png,stimulus/viswhere_stim/90-deg_dot-right_turquoise.png,stimulus/viswhere_stim/match_blank.png,stimulus/viswhere_stim/match_box.png,stimulus/viswhere_stim/match_yes.png,stimulus/viswhere_stim/match_no.png,1.0,Match,Line,Line,1,5.125,0,5.125,0,5.125,0,5.125,0,0.625,0.625,1,0.5,1,2.125,1,0.5,1,2.125,0,0.0,0,0.0,0,0.0,0,0.0,0,,,,,0,47,47,47,,,,,,,,,427.32633845799137,432.4402362499386,427.8106503749732,428.7983982079895,429.4333618750097,430.4311623329995,427.32633845799137,427.32633845799137,427.33968104091474,427.32633845799137,427.32633845799137,427.32633845799137,427.33968104091474,427.32633845799137,432.4402362499386,433.1067590409657,435.1846494579222,439.2295316249365,433.1067590409657,433.1067590409657,438.23605383292306,433.5567127079703,434.56483708298765,435.1846494579222,436.19913933298085,433.1067590409657,433.1067590409657,433.087282291272,433.1067590409657,433.1067590409657,433.1067590409657,433.087282291272,433.1067590409657,433.1067590409657,438.23605383292306,433.1067590409657,438.23605383292306,438.3128389159683,438.94727112492546,433.1067590409657,1,1,0.5888712500454858,reldom2_s032,001,2025-03-12_15h32.42.548,Where-A-Scan_AC,2022.2.5,None,
0,0.0,None,fixation,stimulus/viswhere_stim/blank_white.png,stimulus/viswhere_stim/blank_white.png,stimulus/audwhere_stim/blank_white.png,stimulus/audwhere_stim/blank_white.png,stimulus/viswhere_stim/blank_white.png,stimulus/viswhere_stim/blank_white.png,stimulus/viswhere_stim/blank_white.png,stimulus/viswhere_stim/blank_white.png,0.0,0.0,0.0,0.0,0,0.0,0,0.0,0,0.0,0,0.0,0,0.0,0.0,0,0.0,0,0.0,0,0.0,0,0.0,0,0.0,0,0.0,0,0.0,0,0.0,9,,,,,0,48,48,48,,,,,,,,,439.2295316249365,439.2295316249365,439.2295316249365,439.2295316249365,439.2295316249365,439.2295316249365,439.2295316249365,439.2295316249365,439.12763279125403,439.2295316249365,439.2295316249365,439.2295316249365,439.12763279125403,439.2295316249365,439.2295316249365,439.2295316249365,439.2295316249365,439.2295316249365,439.2295316249365,439.2295316249365,439.2295316249365,439.2295316249365,439.2295316249365,439.2295316249365,439.2295316249365,439.2295316249365,439.2295316249365,439.17763279125404,439.2295316249365,439.2295316249365,439.2295316249365,439.17763279125404,439.2295316249365,439.2295316249365,439.2295316249365,439.2295316249365,439.2295316249365,444.4347326249117,444.4347326249117,448.4837286659749,None,0,,reldom2_s032,001,2025-03-12_15h32.42.548,Where-A-Scan_AC,2022.2.5,None,
37,First_Order,7.0,audwhere,stimulus/audwhere_stim/dummy.wav,stimulus/audwhere_stim/dummy.wav,stimulus/audwhere_stim/left_toward_280h.wav,stimulus/audwhere_stim/left_away_290h.wav,stimulus/audwhere_stim/blank_white.png,stimulus/audwhere_stim/direction_box.png,stimulus/audwhere_stim/direction_yes.png,stimulus/audwhere_stim/direction_no.png,None,Direction,None,Side,2,0.0,0,5.125,0,5.125,0,5.125,0,0.0,0.625,0,0.0,0,0.0,0,0.0,0,0.0,0,0.0,0,0.0,1,0.5,1,2.125,0,,,,,0,49,49,49,,,,,,,,,448.4837286659749,448.4837286659749,448.4837286659749,448.4837286659749,448.4837286659749,448.4837286659749,448.4837286659749,448.4837286659749,448.40985983264784,448.4837286659749,448.4837286659749,448.4837286659749,448.40985983264784,448.4837286659749,448.4837286659749,448.4837286659749,450.5947127909167,454.60150941601023,448.4837286659749,448.4837286659749,453.6468964579981,448.4837286659749,448.4837286659749,448.4837286659749,448.4837286659749,448.954387540929,449.98498004092835,448.92417737463643,,450.5947127909167,451.6315073330188,450.564236374634,,448.4837286659749,453.6468964579981,448.4837286659749,453.6468964579981,453.688147458015,454.34684141597245,448.4837286659749,2,1,1.6221582910511643,reldom2_s032,001,2025-03-12_15h32.42.548,Where-A-Scan_AC,2022.2.5,None,
38,First_Order,7.0,audwhere,stimulus/audwhere_stim/dummy.wav,stimulus/audwhere_stim/dummy.wav,stimulus/audwhere_stim/left_away_300h.wav,stimulus/audwhere_stim/right_away_280h.wav,stimulus/audwhere_stim/blank_white.png,stimulus/audwhere_stim/side_box.png,stimulus/audwhere_stim/side_yes.png,stimulus/audwhere_stim/side_no.png,None,Side,None,Direction,2,0.0,0,5.125,0,5.125,0,5.125,0,0.0,0.625,0,0.0,0,0.0,0,0.0,0,0.0,0,0.0,0,0.0,1,0.5,1,2.125,0,,,,,0,50,50,50,,,,,,,,,454.60150941601023,454.60150941601023,454.60150941601023,454.60150941601023,454.60150941601023,454.60150941601023,454.60150941601023,454.60150941601023,454.5211241243252,454.60150941601023,454.60150941601023,454.60150941601023,454.5211241243252,454.60150941601023,454.60150941601023,454.60150941601023,456.7029001249466,,454.60150941601023,454.60150941601023,459.78350512497127,454.60150941601023,454.60150941601023,454.60150941601023,454.60150941601023,455.07016849995125,456.1425268750172,455.0398537916519,,456.7029001249466,457.73288829100784,456.6717370825975,,454.60150941601023,459.78350512497127,454.60150941601023,459.78350512497127,459.8249167079339,460.4812915410148,454.60150941601023,2,1,0.8944468749687076,reldom2_s032,001,2025-03-12_15h32.42.548,Where-A-Scan_AC,2022.2.5,None,
39,First_Order,7.0,audwhere,stimulus/audwhere_stim/dummy.wav,stimulus/audwhere_stim/dummy.wav,stimulus/audwhere_stim/right_toward_280h.wav,stimulus/audwhere_stim/right_away_300h.wav,stimulus/audwhere_stim/blank_white.png,stimulus/audwhere_stim/side_box.png,stimulus/audwhere_stim/side_yes.png,stimulus/audwhere_stim/side_no.png,None,Side,None,Side,1,0.0,0,5.125,0,5.125,0,5.125,0,0.0,0.625,0,0.0,0,0.0,0,0.0,0,0.0,0,0.0,0,0.0,1,0.5,1,2.125,0,,,,,0,51,51,51,,,,,,,,,460.69633229100145,460.69633229100145,460.69633229100145,460.69633229100145,460.69633229100145,460.69633229100145,460.69633229100145,460.69633229100145,460.6146248743481,460.69633229100145,460.69633229100145,460.69633229100145,460.6146248743481,460.69633229100145,460.69633229100145,460.69633229100145,462.7944058749126,466.82637154101394,460.69633229100145,460.69633229100145,465.8736989579629,460.69633229100145,460.69633229100145,460.69633229100145,460.69633229100145,461.16289116593543,462.2346980830189,461.13299062458486,,462.7944058749126,463.8235905410256,462.76422049961207,,460.69633229100145,465.8736989579629,460.69633229100145,465.8736989579629,465.9150013329927,466.57114024995826,460.69633229100145,1,1,0.6044682910433039,reldom2_s032,001,2025-03-12_15h32.42.548,Where-A-Scan_AC,2022.2.5,None,
40,First_Order,7.0,audwhere,stimulus/audwhere_stim/dummy.wav,stimulus/audwhere_stim/dummy.wav,stimulus/audwhere_stim/left_away_280h.wav,stimulus/audwhere_stim/left_toward_300h.wav,stimulus/audwhere_stim/blank_white.png,stimulus/audwhere_stim/side_box.png,stimulus/audwhere_stim/side_yes.png,stimulus/audwhere_stim/side_no.png,None,Side,None,Side,1,0.0,0,5.125,0,5.125,0,5.125,0,0.0,0.625,0,0.0,0,0.0,0,0.0,0,0.0,0,0.0,0,0.0,1,0.5,1,2.125,0,,,,,0,52,52,52,,,,,,,,,466.82637154101394,466.82637154101394,466.82637154101394,466.82637154101394,466.82637154101394,466.82637154101394,466.82637154101394,466.82637154101394,466.7450468333283,466.82637154101394,466.82637154101394,466.82637154101394,466.7450468333283,466.82637154101394,466.82637154101394,466.82637154101394,468.9220627079485,,466.82637154101394,466.82637154101394,472.00491675001103,466.82637154101394,466.82637154101394,466.82637154101394,466.82637154101394,467.29222116596065,468.361897915951,467.26203999965605,,468.9220627079485,469.99522041599266,468.8919875416361,,466.82637154101394,472.00491675001103,466.82637154101394,472.00491675001103,472.047008540947,472.7114263329422,466.82637154101394,1,1,1.690404708031565,reldom2_s032,001,2025-03-12_15h32.42.548,Where-A-Scan_AC,2022.2.5,None,
0,0.0,None,fixation,stimulus/viswhere_stim/blank_white.png,stimulus/viswhere_stim/blank_white.png,stimulus/audwhere_stim/blank_white.png,stimulus/audwhere_stim/blank_white.png,stimulus/viswhere_stim/blank_white.png,stimulus/viswhere_stim/blank_white.png,stimulus/viswhere_stim/blank_white.png,stimulus/viswhere_stim/blank_white.png,0.0,0.0,0.0,0.0,0,0.0,0,0.0,0,0.0,0,0.0,0,0.0,0.0,0,0.0,0,0.0,0,0.0,0,0.0,0,0.0,0,0.0,0,0.0,0,0.0,8,,,,,0,53,53,53,,,,,,,,,472.9467890409287,472.9467890409287,472.9467890409287,472.9467890409287,472.9467890409287,472.9467890409287,472.9467890409287,472.9467890409287,472.84475966627554,472.9467890409287,472.9467890409287,472.9467890409287,472.84475966627554,472.9467890409287,472.9467890409287,472.9467890409287,472.9467890409287,472.9467890409287,472.9467890409287,472.9467890409287,472.9467890409287,472.9467890409287,472.9467890409287,472.9467890409287,472.9467890409287,472.9467890409287,472.9467890409287,472.89475966627555,472.9467890409287,472.9467890409287,472.9467890409287,472.89475966627555,472.9467890409287,472.9467890409287,472.9467890409287,472.9467890409287,472.9467890409287,478.1573165829759,478.1573165829759,481.09688808291685,None,0,,reldom2_s032,001,2025-03-12_15h32.42.548,Where-A-Scan_AC,2022.2.5,None,
41,Second_Order,7.0,audwhere,stimulus/audwhere_stim/left_away_300h.wav,stimulus/audwhere_stim/left_toward_300h.wav,stimulus/audwhere_stim/right_away_290h.wav,stimulus/audwhere_stim/right_toward_290h.wav,stimulus/viswhere_stim/match_blank.png,stimulus/audwhere_stim/match_box.png,stimulus/viswhere_stim/match_yes.png,stimulus/viswhere_stim/match_no.png,1.0,Match,Side,Side,1,5.125,0,5.125,0,5.125,0,5.125,0,0.75,0.75,0,0.0,0,0.0,0,0.0,0,0.0,1,0.5,1,2.125,1,0.5,1,2.125,0,,,,,0,54,54,54,,,,,,,,,481.09688808291685,486.2162352500018,481.09688808291685,481.09688808291685,481.09688808291685,481.09688808291685,481.5516679160064,482.53822441597003,481.5656149166791,,483.17424279102124,484.17191187501885,483.18649645761275,,486.2162352500018,487.0643133330159,489.1171921249479,493.0571134579368,487.0643133330159,487.0643133330159,492.23955974995624,487.0643133330159,487.0643133330159,487.0643133330159,487.0643133330159,487.48487337492406,488.557416207972,487.45473408262865,,489.1171921249479,490.1459939159686,489.0871664166373,,487.0643133330159,492.23955974995624,487.0643133330159,492.23955974995624,492.23955974995624,,487.0643133330159,1,1,0.6018183750566095,reldom2_s032,001,2025-03-12_15h32.42.548,Where-A-Scan_AC,2022.2.5,None,
42,Second_Order,7.0,audwhere,stimulus/audwhere_stim/left_away_280h.wav,stimulus/audwhere_stim/right_away_270h.wav,stimulus/audwhere_stim/right_toward_270h.wav,stimulus/audwhere_stim/left_toward_280h.wav,stimulus/viswhere_stim/match_blank.png,stimulus/audwhere_stim/match_box.png,stimulus/viswhere_stim/match_yes.png,stimulus/viswhere_stim/match_no.png,1.0,Match,Direction,Direction,1,5.125,0,5.125,0,5.125,0,5.125,0,0.625,0.625,0,0.0,0,0.0,0,0.0,0,0.0,1,0.5,1,2.125,1,0.5,1,2.125,0,,,,,0,55,55,55,,,,,,,,,493.0571134579368,498.17566004092805,493.0571134579368,493.0571134579368,493.0571134579368,493.0571134579368,493.51221079099923,494.4984427909367,493.5264024576793,,495.1356614159886,496.1329244999215,495.1474504166438,,498.17566004092805,498.8972884999821,500.949628207949,505.0193542499328,498.8972884999821,498.8972884999821,504.08450545801315,498.8972884999821,498.8972884999821,498.8972884999821,498.8972884999821,499.36247291602194,500.4351708330214,499.33273270767336,,500.949628207949,501.9854771249229,500.9194838326114,,498.8972884999821,504.08450545801315,498.8972884999821,504.08450545801315,504.08450545801315,504.7426823750138,498.8972884999821,1,1,0.80920637503732,reldom2_s032,001,2025-03-12_15h32.42.548,Where-A-Scan_AC,2022.2.5,None,
0,0.0,None,fixation,stimulus/viswhere_stim/blank_white.png,stimulus/viswhere_stim/blank_white.png,stimulus/audwhere_stim/blank_white.png,stimulus/audwhere_stim/blank_white.png,stimulus/viswhere_stim/blank_white.png,stimulus/viswhere_stim/blank_white.png,stimulus/viswhere_stim/blank_white.png,stimulus/viswhere_stim/blank_white.png,0.0,0.0,0.0,0.0,0,0.0,0,0.0,0,0.0,0,0.0,0,0.0,0.0,0,0.0,0,0.0,0,0.0,0,0.0,0,0.0,0,0.0,0,0.0,0,0.0,10,,,,,0,56,56,56,,,,,,,,,505.0193542499328,505.0193542499328,505.0193542499328,505.0193542499328,505.0193542499328,505.0193542499328,505.0193542499328,505.0193542499328,504.91705824926805,505.0193542499328,505.0193542499328,505.0193542499328,504.91705824926805,505.0193542499328,505.0193542499328,505.0193542499328,505.0193542499328,505.0193542499328,505.0193542499328,505.0193542499328,505.0193542499328,505.0193542499328,505.0193542499328,505.0193542499328,505.0193542499328,505.0193542499328,505.0193542499328,504.96705824926806,505.0193542499328,505.0193542499328,505.0193542499328,504.96705824926806,505.0193542499328,505.0193542499328,505.0193542499328,505.0193542499328,505.0193542499328,510.2275741660269,510.2275741660269,515.251897915965,None,0,,reldom2_s032,001,2025-03-12_15h32.42.548,Where-A-Scan_AC,2022.2.5,None,
43,First_Order,8.0,audwhere,stimulus/audwhere_stim/dummy.wav,stimulus/audwhere_stim/dummy.wav,stimulus/audwhere_stim/left_away_270h.wav,stimulus/audwhere_stim/right_away_300h.wav,stimulus/audwhere_stim/blank_white.png,stimulus/audwhere_stim/direction_box.png,stimulus/audwhere_stim/direction_yes.png,stimulus/audwhere_stim/direction_no.png,None,Direction,None,Direction,1,0.0,0,5.125,0,5.125,0,5.125,0,0.0,0.625,0,0.0,0,0.0,0,0.0,0,0.0,0,0.0,0,0.0,1,0.5,1,2.125,0,,,,,0,57,57,57,,,,,,,,,515.251897915965,515.251897915965,515.251897915965,515.251897915965,515.251897915965,515.251897915965,515.251897915965,515.251897915965,515.1787632916045,515.251897915965,515.251897915965,515.251897915965,515.1787632916045,515.251897915965,515.251897915965,515.251897915965,517.361706249998,521.3641312909313,515.251897915965,515.251897915965,520.4072547910037,515.251897915965,515.251897915965,515.251897915965,515.251897915965,515.7215227909619,516.7532767909579,515.6908215416518,,517.361706249998,518.39289262495,517.3314224996759,,515.251897915965,520.4072547910037,515.251897915965,520.4072547910037,520.4487839159556,521.109081332921,515.251897915965,1,1,1.7864937919657677,reldom2_s032,001,2025-03-12_15h32.42.548,Where-A-Scan_AC,2022.2.5,None,
44,First_Order,8.0,audwhere,stimulus/audwhere_stim/dummy.wav,stimulus/audwhere_stim/dummy.wav,stimulus/audwhere_stim/left_toward_300h.wav,stimulus/audwhere_stim/left_away_280h.wav,stimulus/audwhere_stim/blank_white.png,stimulus/audwhere_stim/direction_box.png,stimulus/audwhere_stim/direction_yes.png,stimulus/audwhere_stim/direction_no.png,None,Direction,None,Side,2,0.0,0,5.125,0,5.125,0,5.125,0,0.0,0.625,0,0.0,0,0.0,0,0.0,0,0.0,0,0.0,0,0.0,1,0.5,1,2.125,0,,,,,0,58,58,58,,,,,,,,,521.3641312909313,521.3641312909313,521.3641312909313,521.3641312909313,521.3641312909313,521.3641312909313,521.3641312909313,521.3641312909313,521.2836633333083,521.3641312909313,521.3641312909313,521.3641312909313,521.2836633333083,521.3641312909313,521.3641312909313,521.3641312909313,523.4721667079721,,521.3641312909313,521.3641312909313,526.5555453749839,521.3641312909313,521.3641312909313,521.3641312909313,521.3641312909313,521.832067625015,522.8636469999328,521.8017707076544,,523.4721667079721,524.5044473749585,523.4417867495833,,521.3641312909313,526.5555453749839,521.3641312909313,526.5555453749839,526.5970495409565,527.2582032079808,521.3641312909313,2,1,1.452932208077982,reldom2_s032,001,2025-03-12_15h32.42.548,Where-A-Scan_AC,2022.2.5,None,
45,First_Order,8.0,audwhere,stimulus/audwhere_stim/dummy.wav,stimulus/audwhere_stim/dummy.wav,stimulus/audwhere_stim/right_away_290h.wav,stimulus/audwhere_stim/left_away_280h.wav,stimulus/audwhere_stim/blank_white.png,stimulus/audwhere_stim/side_box.png,stimulus/audwhere_stim/side_yes.png,stimulus/audwhere_stim/side_no.png,None,Side,None,Direction,2,0.0,0,5.125,0,5.125,0,5.125,0,0.0,0.625,0,0.0,0,0.0,0,0.0,0,0.0,0,0.0,0,0.0,1,0.5,1,2.125,0,,,,,0,59,59,59,,,,,,,,,527.4722182910191,527.4722182910191,527.4722182910191,527.4722182910191,527.4722182910191,527.4722182910191,527.4722182910191,527.4722182910191,527.3915365413142,527.4722182910191,527.4722182910191,527.4722182910191,527.3915365413142,527.4722182910191,527.4722182910191,527.4722182910191,529.5695249160053,533.6017747910228,527.4722182910191,527.4722182910191,532.6482621249743,527.4722182910191,527.4722182910191,527.4722182910191,527.4722182910191,527.9380302079953,529.0109768329421,527.9079760825882,,529.5695249160053,530.6448152909288,529.5393159576381,,527.4722182910191,532.6482621249743,527.4722182910191,532.6482621249743,532.6906032499392,533.3472399999155,527.4722182910191,2,1,1.0842757089994848,reldom2_s032,001,2025-03-12_15h32.42.548,Where-A-Scan_AC,2022.2.5,None,
46,First_Order,8.0,audwhere,stimulus/audwhere_stim/dummy.wav,stimulus/audwhere_stim/dummy.wav,stimulus/audwhere_stim/left_away_270h.wav,stimulus/audwhere_stim/right_away_290h.wav,stimulus/audwhere_stim/blank_white.png,stimulus/audwhere_stim/direction_box.png,stimulus/audwhere_stim/direction_yes.png,stimulus/audwhere_stim/direction_no.png,None,Direction,None,Direction,1,0.0,0,5.125,0,5.125,0,5.125,0,0.0,0.625,0,0.0,0,0.0,0,0.0,0,0.0,0,0.0,0,0.0,1,0.5,1,2.125,0,,,,,0,60,60,60,,,,,,,,,533.6017747910228,533.6017747910228,533.6017747910228,533.6017747910228,533.6017747910228,533.6017747910228,533.6017747910228,533.6017747910228,533.5217194992894,533.6017747910228,533.6017747910228,533.6017747910228,533.5217194992894,533.6017747910228,533.6017747910228,533.6017747910228,535.7154270409374,539.7404296660097,533.6017747910228,533.6017747910228,538.765368165914,533.6017747910228,533.6017747910228,533.6017747910228,533.6017747910228,534.0712017499609,535.1059808749706,534.0408237496779,,535.7154270409374,536.7521361659747,535.6850840416193,,533.6017747910228,538.765368165914,533.6017747910228,538.765368165914,538.8065164160216,539.4647647909587,533.6017747910228,2,0,0.9587962500518188,reldom2_s032,001,2025-03-12_15h32.42.548,Where-A-Scan_AC,2022.2.5,None,
0,0.0,None,fixation,stimulus/viswhere_stim/blank_white.png,stimulus/viswhere_stim/blank_white.png,stimulus/audwhere_stim/blank_white.png,stimulus/audwhere_stim/blank_white.png,stimulus/viswhere_stim/blank_white.png,stimulus/viswhere_stim/blank_white.png,stimulus/viswhere_stim/blank_white.png,stimulus/viswhere_stim/blank_white.png,0.0,0.0,0.0,0.0,0,0.0,0,0.0,0,0.0,0,0.0,0,0.0,0.0,0,0.0,0,0.0,0,0.0,0,0.0,0,0.0,0,0.0,0,0.0,0,0.0,9,,,,,0,61,61,61,,,,,,,,,539.7404296660097,539.7404296660097,539.7404296660097,539.7404296660097,539.7404296660097,539.7404296660097,539.7404296660097,539.7404296660097,539.6392033743051,539.7404296660097,539.7404296660097,539.7404296660097,539.6392033743051,539.7404296660097,539.7404296660097,539.7404296660097,539.7404296660097,539.7404296660097,539.7404296660097,539.7404296660097,539.7404296660097,539.7404296660097,539.7404296660097,539.7404296660097,539.7404296660097,539.7404296660097,539.7404296660097,539.6892033743051,539.7404296660097,539.7404296660097,539.7404296660097,539.6892033743051,539.7404296660097,539.7404296660097,539.7404296660097,539.7404296660097,539.7404296660097,544.9595177079318,544.9595177079318,548.8684323329944,None,0,,reldom2_s032,001,2025-03-12_15h32.42.548,Where-A-Scan_AC,2022.2.5,None,
47,Second_Order,8.0,audwhere,stimulus/audwhere_stim/right_away_280h.wav,stimulus/audwhere_stim/left_away_290h.wav,stimulus/audwhere_stim/right_toward_300h.wav,stimulus/audwhere_stim/right_away_300h.wav,stimulus/viswhere_stim/match_blank.png,stimulus/audwhere_stim/match_box.png,stimulus/viswhere_stim/match_yes.png,stimulus/viswhere_stim/match_no.png,2.0,Match,Direction,Side,2,5.125,0,5.125,0,5.125,0,5.125,0,0.75,0.75,0,0.0,0,0.0,0,0.0,0,0.0,1,0.5,1,2.125,1,0.5,1,2.125,0,,,,,0,62,62,62,,,,,,,,,548.8684323329944,553.98732216598,548.8684323329944,548.8684323329944,548.8684323329944,548.8684323329944,549.3262483750004,550.324819499976,549.3391079996402,,550.9478280829499,551.9459506659769,550.9597463326684,,553.98732216598,554.8325312079396,556.8838488749461,560.8282649159664,554.8325312079396,554.8325312079396,560.0097305829404,554.8325312079396,554.8325312079396,554.8325312079396,554.8325312079396,555.2519768750062,556.3233585829148,555.2217401666023,,556.8838488749461,557.9137272499502,556.8539112075853,,554.8325312079396,560.0097305829404,554.8325312079396,560.0097305829404,560.0097305829404,,554.8325312079396,2,1,0.7774100420065224,reldom2_s032,001,2025-03-12_15h32.42.548,Where-A-Scan_AC,2022.2.5,None,
48,Second_Order,8.0,audwhere,stimulus/audwhere_stim/left_away_280h.wav,stimulus/audwhere_stim/right_away_290h.wav,stimulus/audwhere_stim/left_toward_280h.wav,stimulus/audwhere_stim/right_toward_300h.wav,stimulus/viswhere_stim/match_blank.png,stimulus/audwhere_stim/match_box.png,stimulus/viswhere_stim/match_yes.png,stimulus/viswhere_stim/match_no.png,1.0,Match,Direction,Direction,1,5.125,0,5.125,0,5.125,0,5.125,0,0.625,0.625,0,0.0,0,0.0,0,0.0,0,0.0,1,0.5,1,2.125,1,0.5,1,2.125,0,,,,,0,63,63,63,,,,,,,,,560.8282649159664,565.9488631659187,560.8282649159664,560.8282649159664,560.8282649159664,560.8282649159664,561.2855497499695,562.2733121250058,561.2996462915946,,562.908294832916,563.9064262909815,562.92056254164,,565.9488631659187,566.6788890409516,568.7303857909283,572.7876673749415,566.6788890409516,566.6788890409516,571.8549554579658,566.6788890409516,566.6788890409516,566.6788890409516,566.6788890409516,567.0988483750261,568.1715276659233,567.0687304996575,,568.7303857909283,569.8034449159168,568.6991805826003,,566.6788890409516,571.8549554579658,566.6788890409516,571.8549554579658,571.8549554579658,572.5109805829125,566.6788890409516,1,1,1.3316110000014305,reldom2_s032,001,2025-03-12_15h32.42.548,Where-A-Scan_AC,2022.2.5,None,
0,0.0,None,fixation,stimulus/viswhere_stim/blank_white.png,stimulus/viswhere_stim/blank_white.png,stimulus/audwhere_stim/blank_white.png,stimulus/audwhere_stim/blank_white.png,stimulus/viswhere_stim/blank_white.png,stimulus/viswhere_stim/blank_white.png,stimulus/viswhere_stim/blank_white.png,stimulus/viswhere_stim/blank_white.png,0.0,0.0,0.0,0.0,0,0.0,0,0.0,0,0.0,0,0.0,0,0.0,0.0,0,0.0,0,0.0,0,0.0,0,0.0,0,0.0,0,0.0,0,0.0,0,0.0,16,,,,,0,64,64,64,,,,,,,,,572.7876673749415,572.7876673749415,572.7876673749415,572.7876673749415,572.7876673749415,572.7876673749415,572.7876673749415,572.7876673749415,572.6851328743234,572.7876673749415,572.7876673749415,572.7876673749415,572.6851328743234,572.7876673749415,572.7876673749415,572.7876673749415,572.7876673749415,572.7876673749415,572.7876673749415,572.7876673749415,572.7876673749415,572.7876673749415,572.7876673749415,572.7876673749415,572.7876673749415,572.7876673749415,572.7876673749415,572.7351328743233,572.7876673749415,572.7876673749415,572.7876673749415,572.7351328743233,572.7876673749415,572.7876673749415,572.7876673749415,572.7876673749415,572.7876673749415,577.9953177910065,577.9953177910065,588.9272702910239,None,0,,reldom2_s032,001,2025-03-12_15h32.42.548,Where-A-Scan_AC,2022.2.5,None,
