Trial,Order,Block,Type,Stimuli_File1,Stimuli_File2,Stimuli_File3,Stimuli_File4,Cue_File1,Cue_File2,Response_File_Yes,Response_File_No,Match,Cue_Dimension,Pair1_Dimension,Pair2_Dimension,Key,Cue1_Duration,Cue1_Onset,Cue2_Duration,Cue2_Onset,ResponseYes_Duration,ResponseYes_Onset,ResponseNo_Duration,ResponseNo_Onset,ITI_Within,ITI_Between,Image1_Duration,Image1_Onset,Image2_Duration,Image2_Onset,Image3_Duration,Image3_Onset,Image4_Duration,Image4_Onset,Sound1_Duration,Sound1_Onset,Sound2_Duration,Sound2_Onset,Sound3_Duration,Sound3_Onset,Sound4_Duration,Sound4_Onset,Fixation_Duration,trials_2.thisRepN,trials_2.thisTrialN,trials_2.thisN,trials_2.thisIndex,trials.thisRepN,trials.thisTrialN,trials.thisN,trials.thisIndex,text_start.started,key_resp_start.started,key_resp_start.keys,key_resp_start.rt,text2.started,key_resp_2.started,key_resp_2.keys,key_resp_2.rt,cue_file1.started,cue_file1.stopped,image_1.started,image_1.stopped,image_2.started,image_2.stopped,sound_icon1.started,sound_icon1.stopped,sound_1.started,sound_1.stopped,sound_icon2.started,sound_icon2.stopped,sound_2.started,sound_2.stopped,image_blank_1.started,image_blank_1.stopped,key_press.started,key_press.stopped,fixation_text.started,cue_file2.started,cue_file2.stopped,image_3.started,image_3.stopped,image_4.started,image_4.stopped,sound_icon3.started,sound_icon3.stopped,sound_3.started,sound_3.stopped,sound_icon4.started,sound_icon4.stopped,sound_4.started,sound_4.stopped,response_yes.started,response_yes.stopped,response_no.started,response_no.stopped,iti_blank.started,iti_blank.stopped,fixation_text.stopped,key_press.keys,key_press.corr,key_press.rt,participant,session,date,expName,psychopyVersion,frameRate,
,,,,,,,,,,,,,,,,,,,,,,,,,,,,,,,,,,,,,,,,,,,,,,,,,,,,10.32525724999141,10.32525724999141,2,1.2129420820856467,,,,,,,,,,,,,,,,,,,,,,,,,,,,,,,,,,,,,,,,,,,,,,,,reldom2_s032,001,2025-03-12_15h43.45.125,Aud-A-Scan_AC,2022.2.5,None,
,,,,,,,,,,,,,,,,,,,,,,,,,,,,,,,,,,,,,,,,,,,,0,0,0,0,,,,,,,,,11.57562975003384,11.57562975003384,5,15.92978754104115,,,,,,,,,,,,,,,,,,,,,,,,,,,,,,,,,,,,,,,,,,,,reldom2_s032,001,2025-03-12_15h43.45.125,Aud-A-Scan_AC,2022.2.5,None,
,,,,,,,,,,,,,,,,,,,,,,,,,,,,,,,,,,,,,,,,,,,,1,0,1,0,,,,,,,,,27.521942708990537,27.521942708990537,5,1.9853557070018724,,,,,,,,,,,,,,,,,,,,,,,,,,,,,,,,,,,,,,,,,,,,reldom2_s032,001,2025-03-12_15h43.45.125,Aud-A-Scan_AC,2022.2.5,None,
,,,,,,,,,,,,,,,,,,,,,,,,,,,,,,,,,,,,,,,,,,,,2,0,2,0,,,,,,,,,29.52425725001376,29.52425725001376,5,1.9820912489667535,,,,,,,,,,,,,,,,,,,,,,,,,,,,,,,,,,,,,,,,,,,,reldom2_s032,001,2025-03-12_15h43.45.125,Aud-A-Scan_AC,2022.2.5,None,
,,,,,,,,,,,,,,,,,,,,,,,,,,,,,,,,,,,,,,,,,,,,3,0,3,0,,,,,,,,,31.516556833987124,31.516556833987124,5,1.989111166098155,,,,,,,,,,,,,,,,,,,,,,,,,,,,,,,,,,,,,,,,,,,,reldom2_s032,001,2025-03-12_15h43.45.125,Aud-A-Scan_AC,2022.2.5,None,
0,0.0,None,fixation,stimulus/audwhere_stim/blank_white.png,stimulus/audwhere_stim/blank_white.png,stimulus/audwhat_stim/blank_white.png,stimulus/audwhat_stim/blank_white.png,stimulus/audwhere_stim/blank_white.png,stimulus/audwhere_stim/blank_white.png,stimulus/audwhere_stim/blank_white.png,stimulus/audwhere_stim/blank_white.png,0.0,0.0,0.0,0.0,0,0.0,0,0.0,0,0.0,0,0.0,0,0.0,0.0,0,0,0,0,0,0,0,0,0,0.0,0,0.0,0,0.0,0,0.0,16,,,,,0,0,0,0,,,,,,,,,33.73430587502662,33.73430587502662,33.73430587502662,33.73430587502662,33.73430587502662,33.73430587502662,33.73430587502662,33.73430587502662,33.63044445865477,33.73430587502662,33.73430587502662,33.73430587502662,33.63044445865477,33.73430587502662,33.73430587502662,33.73430587502662,33.73430587502662,33.73430587502662,33.73430587502662,33.73430587502662,33.73430587502662,33.73430587502662,33.73430587502662,33.73430587502662,33.73430587502662,33.73430587502662,33.73430587502662,33.697111125321435,33.73430587502662,33.73430587502662,33.73430587502662,33.697111125321435,33.73430587502662,33.73430587502662,33.73430587502662,33.73430587502662,33.73430587502662,38.94907854194753,38.94907854194753,49.94895395904314,None,0,,reldom2_s032,001,2025-03-12_15h43.45.125,Aud-A-Scan_AC,2022.2.5,None,
1,First_Order,1.0,audwhere,stimulus/audwhere_stim/dummy.wav,stimulus/audwhere_stim/dummy.wav,stimulus/audwhere_stim/left_away_280h.wav,stimulus/audwhere_stim/right_away_290h.wav,stimulus/audwhere_stim/blank_white.png,stimulus/audwhere_stim/direction_box.png,stimulus/audwhere_stim/direction_yes.png,stimulus/audwhere_stim/direction_no.png,None,Direction,None,Direction,1,0.0,0,5.125,0,5.125,0,5.125,0,0.0,0.625,0,0,0,0,0,0,0,0,0,0.0,0,0.0,1,0.5,1,2.125,0,,,,,0,1,1,1,,,,,,,,,49.94895395904314,49.94895395904314,49.94895395904314,49.94895395904314,49.94895395904314,49.94895395904314,49.94895395904314,49.94895395904314,49.87025566699449,49.94895395904314,49.94895395904314,49.94895395904314,49.87025566699449,49.94895395904314,49.94895395904314,49.94895395904314,52.04327024996746,56.06775662500877,49.94895395904314,49.94895395904314,55.11607124994043,49.94895395904314,49.94895395904314,49.94895395904314,49.94895395904314,50.41437270899769,51.48401866701897,50.38419458369414,,52.04327024996746,53.11730100004934,52.01251887571222,,49.94895395904314,55.11607124994043,49.94895395904314,55.11607124994043,55.15754983399529,55.81399599998258,49.94895395904314,1,1,1.1931722500594333,reldom2_s032,001,2025-03-12_15h43.45.125,Aud-A-Scan_AC,2022.2.5,None,
2,First_Order,1.0,audwhere,stimulus/audwhere_stim/dummy.wav,stimulus/audwhere_stim/dummy.wav,stimulus/audwhere_stim/left_away_270h.wav,stimulus/audwhere_stim/left_toward_270h.wav,stimulus/audwhere_stim/blank_white.png,stimulus/audwhere_stim/direction_box.png,stimulus/audwhere_stim/direction_yes.png,stimulus/audwhere_stim/direction_no.png,None,Direction,None,Side,2,0.0,0,5.125,0,5.125,0,5.125,0,0.0,0.625,0,0,0,0,0,0,0,0,0,0.0,0,0.0,1,0.5,1,2.125,0,,,,,0,2,2,2,,,,,,,,,56.06775662500877,56.06775662500877,56.06775662500877,56.06775662500877,56.06775662500877,56.06775662500877,56.06775662500877,56.06775662500877,55.98807012537339,56.06775662500877,56.06775662500877,56.06775662500877,55.98807012537339,56.06775662500877,56.06775662500877,56.06775662500877,58.16229945898522,62.18957466701977,56.06775662500877,56.06775662500877,61.23552883404773,56.06775662500877,56.06775662500877,56.06775662500877,56.06775662500877,56.533036416978575,57.6052235000534,56.50308195868662,,58.16229945898522,59.23322904203087,58.13235958369138,,56.06775662500877,61.23552883404773,56.06775662500877,61.23552883404773,61.27680933394004,61.93345266696997,56.06775662500877,2,1,1.4895444160792977,reldom2_s032,001,2025-03-12_15h43.45.125,Aud-A-Scan_AC,2022.2.5,None,
3,First_Order,1.0,audwhere,stimulus/audwhere_stim/dummy.wav,stimulus/audwhere_stim/dummy.wav,stimulus/audwhere_stim/left_toward_300h.wav,stimulus/audwhere_stim/left_away_280h.wav,stimulus/audwhere_stim/blank_white.png,stimulus/audwhere_stim/direction_box.png,stimulus/audwhere_stim/direction_yes.png,stimulus/audwhere_stim/direction_no.png,None,Direction,None,Side,2,0.0,0,5.125,0,5.125,0,5.125,0,0.0,0.625,0,0,0,0,0,0,0,0,0,0.0,0,0.0,1,0.5,1,2.125,0,,,,,0,3,3,3,,,,,,,,,62.18957466701977,62.18957466701977,62.18957466701977,62.18957466701977,62.18957466701977,62.18957466701977,62.18957466701977,62.18957466701977,62.10748150028133,62.18957466701977,62.18957466701977,62.18957466701977,62.10748150028133,62.18957466701977,62.18957466701977,62.18957466701977,64.28825587499887,,62.18957466701977,62.18957466701977,67.36883162497543,62.18957466701977,62.18957466701977,62.18957466701977,62.18957466701977,62.65584916702937,63.728944874950685,62.62575454166314,,64.28825587499887,65.31759487499949,64.25785170862606,,62.18957466701977,67.36883162497543,62.18957466701977,67.36883162497543,67.40994666703045,68.06490333401598,62.18957466701977,2,1,1.3439502500696108,reldom2_s032,001,2025-03-12_15h43.45.125,Aud-A-Scan_AC,2022.2.5,None,
4,First_Order,1.0,audwhere,stimulus/audwhere_stim/dummy.wav,stimulus/audwhere_stim/dummy.wav,stimulus/audwhere_stim/left_away_270h.wav,stimulus/audwhere_stim/left_toward_290h.wav,stimulus/audwhere_stim/blank_white.png,stimulus/audwhere_stim/side_box.png,stimulus/audwhere_stim/side_yes.png,stimulus/audwhere_stim/side_no.png,None,Side,None,Side,1,0.0,0,5.125,0,5.125,0,5.125,0,0.0,0.625,0,0,0,0,0,0,0,0,0,0.0,0,0.0,1,0.5,1,2.125,0,,,,,0,4,4,4,,,,,,,,,68.27831291698385,68.27831291698385,68.27831291698385,68.27831291698385,68.27831291698385,68.27831291698385,68.27831291698385,68.27831291698385,68.1982366673493,68.27831291698385,68.27831291698385,68.27831291698385,68.1982366673493,68.27831291698385,68.27831291698385,68.27831291698385,70.36919129197486,,68.27831291698385,68.27831291698385,73.43680124997627,68.27831291698385,68.27831291698385,68.27831291698385,68.27831291698385,68.7433059590403,69.81408579205163,68.71343266667488,,70.36919129197486,71.4413266669726,70.3394322916322,,68.27831291698385,73.43680124997627,68.27831291698385,73.43680124997627,73.47803245903924,74.13522370904684,68.27831291698385,1,1,0.7693097910378128,reldom2_s032,001,2025-03-12_15h43.45.125,Aud-A-Scan_AC,2022.2.5,None,
0,0.0,None,fixation,stimulus/audwhere_stim/blank_white.png,stimulus/audwhere_stim/blank_white.png,stimulus/audwhat_stim/blank_white.png,stimulus/audwhat_stim/blank_white.png,stimulus/audwhere_stim/blank_white.png,stimulus/audwhere_stim/blank_white.png,stimulus/audwhere_stim/blank_white.png,stimulus/audwhere_stim/blank_white.png,0.0,0.0,0.0,0.0,0,0.0,0,0.0,0,0.0,0,0.0,0,0.0,0.0,0,0,0,0,0,0,0,0,0,0.0,0,0.0,0,0.0,0,0.0,9,,,,,0,5,5,5,,,,,,,,,74.41011420905124,74.41011420905124,74.41011420905124,74.41011420905124,74.41011420905124,74.41011420905124,74.41011420905124,74.41011420905124,74.30955933328562,74.41011420905124,74.41011420905124,74.41011420905124,74.30955933328562,74.41011420905124,74.41011420905124,74.41011420905124,74.41011420905124,74.41011420905124,74.41011420905124,74.41011420905124,74.41011420905124,74.41011420905124,74.41011420905124,74.41011420905124,74.41011420905124,74.41011420905124,74.41011420905124,74.35955933328563,74.41011420905124,74.41011420905124,74.41011420905124,74.35955933328563,74.41011420905124,74.41011420905124,74.41011420905124,74.41011420905124,74.41011420905124,79.60981937497854,79.60981937497854,83.55685850000009,None,0,,reldom2_s032,001,2025-03-12_15h43.45.125,Aud-A-Scan_AC,2022.2.5,None,
5,Second_Order,1.0,audwhere,stimulus/audwhere_stim/left_away_290h.wav,stimulus/audwhere_stim/right_away_300h.wav,stimulus/audwhere_stim/right_toward_290h.wav,stimulus/audwhere_stim/left_toward_300h.wav,stimulus/audwhere_stim/match_blank.png,stimulus/audwhere_stim/match_box.png,stimulus/audwhere_stim/match_yes.png,stimulus/audwhere_stim/match_no.png,1.0,Match,Direction,Direction,1,5.125,0,5.125,0,5.125,0,5.125,0,0.75,0.75,0,0,0,0,0,0,0,0,1,0.5,1,2.125,1,0.5,1,2.125,0,,,,,0,6,6,6,,,,,,,,,83.55685850000009,88.67925912502687,83.55685850000009,83.55685850000009,83.55685850000009,83.55685850000009,84.01365679199807,85.0028715840308,84.01713095867696,,85.63788824994117,86.636560791987,85.65058795869506,,88.67925912502687,89.53188920894172,91.57537854195107,,89.53188920894172,89.53188920894172,94.69290254195221,89.53188920894172,89.53188920894172,89.53188920894172,89.53188920894172,89.94951299997047,91.0181191250449,89.9197157086494,,91.57537854195107,92.64863337494899,91.54488420865188,,89.53188920894172,94.69290254195221,89.53188920894172,94.69290254195221,94.69290254195221,,89.53188920894172,1,1,1.0289577910443768,reldom2_s032,001,2025-03-12_15h43.45.125,Aud-A-Scan_AC,2022.2.5,None,
6,Second_Order,1.0,audwhere,stimulus/audwhere_stim/left_away_280h.wav,stimulus/audwhere_stim/right_away_280h.wav,stimulus/audwhere_stim/left_away_300h.wav,stimulus/audwhere_stim/left_toward_280h.wav,stimulus/audwhere_stim/match_blank.png,stimulus/audwhere_stim/match_box.png,stimulus/audwhere_stim/match_yes.png,stimulus/audwhere_stim/match_no.png,2.0,Match,Direction,Side,2,5.125,0,5.125,0,5.125,0,5.125,0,0.625,0.625,0,0,0,0,0,0,0,0,1,0.5,1,2.125,1,0.5,1,2.125,0,,,,,0,7,7,7,,,,,,,,,95.50566041702405,100.62363616703078,95.50566041702405,95.50566041702405,95.50566041702405,95.50566041702405,95.9603406250244,96.94786108401604,95.97426066670256,,97.58231154200621,98.58054087497294,97.59517012566018,,100.62363616703078,101.35370974999387,103.43733779201284,107.47032116702758,101.35370974999387,101.35370974999387,106.54228837497067,101.35370974999387,101.35370974999387,101.35370974999387,101.35370974999387,101.77170537505299,102.8369507919997,101.74187595869104,,103.43733779201284,104.50500941695645,103.4075197916866,,101.35370974999387,106.54228837497067,101.35370974999387,106.54228837497067,106.54228837497067,107.19632129196543,101.35370974999387,2,1,0.5506892080884427,reldom2_s032,001,2025-03-12_15h43.45.125,Aud-A-Scan_AC,2022.2.5,None,
0,0.0,None,fixation,stimulus/audwhere_stim/blank_white.png,stimulus/audwhere_stim/blank_white.png,stimulus/audwhat_stim/blank_white.png,stimulus/audwhat_stim/blank_white.png,stimulus/audwhere_stim/blank_white.png,stimulus/audwhere_stim/blank_white.png,stimulus/audwhere_stim/blank_white.png,stimulus/audwhere_stim/blank_white.png,0.0,0.0,0.0,0.0,0,0.0,0,0.0,0,0.0,0,0.0,0,0.0,0.0,0,0,0,0,0,0,0,0,0,0.0,0,0.0,0,0.0,0,0.0,10,,,,,0,8,8,8,,,,,,,,,107.47032116702758,107.47032116702758,107.47032116702758,107.47032116702758,107.47032116702758,107.47032116702758,107.47032116702758,107.47032116702758,107.37020679228783,107.47032116702758,107.47032116702758,107.47032116702758,107.37020679228783,107.47032116702758,107.47032116702758,107.47032116702758,107.47032116702758,107.47032116702758,107.47032116702758,107.47032116702758,107.47032116702758,107.47032116702758,107.47032116702758,107.47032116702758,107.47032116702758,107.47032116702758,107.47032116702758,107.42020679228784,107.47032116702758,107.47032116702758,107.47032116702758,107.42020679228784,107.47032116702758,107.47032116702758,107.47032116702758,107.47032116702758,107.47032116702758,112.65685708401725,112.65685708401725,117.69700983399525,None,0,,reldom2_s032,001,2025-03-12_15h43.45.125,Aud-A-Scan_AC,2022.2.5,None,
7,First_Order,2.0,audwhere,stimulus/audwhere_stim/dummy.wav,stimulus/audwhere_stim/dummy.wav,stimulus/audwhere_stim/left_away_300h.wav,stimulus/audwhere_stim/right_away_300h.wav,stimulus/audwhere_stim/blank_white.png,stimulus/audwhere_stim/side_box.png,stimulus/audwhere_stim/side_yes.png,stimulus/audwhere_stim/side_no.png,None,Side,None,Direction,2,0.0,0,5.125,0,5.125,0,5.125,0,0.0,0.625,0,0,0,0,0,0,0,0,0,0.0,0,0.0,1,0.5,1,2.125,0,,,,,0,9,9,9,,,,,,,,,117.69700983399525,117.69700983399525,117.69700983399525,117.69700983399525,117.69700983399525,117.69700983399525,117.69700983399525,117.69700983399525,117.62214058362103,117.69700983399525,117.69700983399525,117.69700983399525,117.62214058362103,117.69700983399525,117.69700983399525,117.69700983399525,119.78992362495046,123.80866537499242,117.69700983399525,117.69700983399525,122.85764091694728,117.69700983399525,117.69700983399525,117.69700983399525,117.69700983399525,118.16102945897728,119.2302281250013,118.13131562568402,,119.78992362495046,120.86157120903954,119.7599367086698,,117.69700983399525,122.85764091694728,117.69700983399525,122.85764091694728,122.8990894589806,123.55448991700541,117.69700983399525,2,1,0.9985509580001235,reldom2_s032,001,2025-03-12_15h43.45.125,Aud-A-Scan_AC,2022.2.5,None,
8,First_Order,2.0,audwhere,stimulus/audwhere_stim/dummy.wav,stimulus/audwhere_stim/dummy.wav,stimulus/audwhere_stim/left_away_280h.wav,stimulus/audwhere_stim/right_away_270h.wav,stimulus/audwhere_stim/blank_white.png,stimulus/audwhere_stim/side_box.png,stimulus/audwhere_stim/side_yes.png,stimulus/audwhere_stim/side_no.png,None,Side,None,Direction,2,0.0,0,5.125,0,5.125,0,5.125,0,0.0,0.625,0,0,0,0,0,0,0,0,0,0.0,0,0.0,1,0.5,1,2.125,0,,,,,0,10,10,10,,,,,,,,,123.80866537499242,123.80866537499242,123.80866537499242,123.80866537499242,123.80866537499242,123.80866537499242,123.80866537499242,123.80866537499242,123.72879883335747,123.80866537499242,123.80866537499242,123.80866537499242,123.72879883335747,123.80866537499242,123.80866537499242,123.80866537499242,125.89962554199155,,123.80866537499242,123.80866537499242,128.9630289169727,123.80866537499242,123.80866537499242,123.80866537499242,123.80866537499242,124.27330654195976,125.34087458404247,124.24321375071692,,125.89962554199155,126.96749162499327,125.86954100063691,,123.80866537499242,128.9630289169727,123.80866537499242,128.9630289169727,129.00429404200986,129.66121941700112,123.80866537499242,2,1,1.1835082500474527,reldom2_s032,001,2025-03-12_15h43.45.125,Aud-A-Scan_AC,2022.2.5,None,
9,First_Order,2.0,audwhere,stimulus/audwhere_stim/dummy.wav,stimulus/audwhere_stim/dummy.wav,stimulus/audwhere_stim/left_away_280h.wav,stimulus/audwhere_stim/right_away_300h.wav,stimulus/audwhere_stim/blank_white.png,stimulus/audwhere_stim/direction_box.png,stimulus/audwhere_stim/direction_yes.png,stimulus/audwhere_stim/direction_no.png,None,Direction,None,Direction,1,0.0,0,5.125,0,5.125,0,5.125,0,0.0,0.625,0,0,0,0,0,0,0,0,0,0.0,0,0.0,1,0.5,1,2.125,0,,,,,0,11,11,11,,,,,,,,,129.91498937504366,129.91498937504366,129.91498937504366,129.91498937504366,129.91498937504366,129.91498937504366,129.91498937504366,129.91498937504366,129.8351123333288,129.91498937504366,129.91498937504366,129.91498937504366,129.8351123333288,129.91498937504366,129.91498937504366,129.91498937504366,132.02589883399196,,129.91498937504366,129.91498937504366,135.0708745419979,129.91498937504366,129.91498937504366,129.91498937504366,129.91498937504366,130.38186533399858,131.45690412505064,130.3518953336791,,132.02589883399196,133.0571929590078,131.99544733361498,,129.91498937504366,135.0708745419979,129.91498937504366,135.0708745419979,135.1121922089951,135.77124420902692,129.91498937504366,1,1,1.3791958740912378,reldom2_s032,001,2025-03-12_15h43.45.125,Aud-A-Scan_AC,2022.2.5,None,
10,First_Order,2.0,audwhere,stimulus/audwhere_stim/dummy.wav,stimulus/audwhere_stim/dummy.wav,stimulus/audwhere_stim/right_away_270h.wav,stimulus/audwhere_stim/right_toward_300h.wav,stimulus/audwhere_stim/blank_white.png,stimulus/audwhere_stim/side_box.png,stimulus/audwhere_stim/side_yes.png,stimulus/audwhere_stim/side_no.png,None,Side,None,Side,1,0.0,0,5.125,0,5.125,0,5.125,0,0.0,0.625,0,0,0,0,0,0,0,0,0,0.0,0,0.0,1,0.5,1,2.125,0,,,,,0,12,12,12,,,,,,,,,136.02532174997032,136.02532174997032,136.02532174997032,136.02532174997032,136.02532174997032,136.02532174997032,136.02532174997032,136.02532174997032,135.94504975030046,136.02532174997032,136.02532174997032,136.02532174997032,135.94504975030046,136.02532174997032,136.02532174997032,136.02532174997032,138.12353266694117,142.16883470898028,136.02532174997032,136.02532174997032,141.19530337501783,136.02532174997032,136.02532174997032,136.02532174997032,136.02532174997032,136.49240008404013,137.56651583395433,136.4625405416048,,138.12353266694117,139.19747883395758,138.093334333684,,136.02532174997032,141.19530337501783,136.02532174997032,141.19530337501783,141.236790459021,141.89297562499996,136.02532174997032,1,1,0.7328533750260249,reldom2_s032,001,2025-03-12_15h43.45.125,Aud-A-Scan_AC,2022.2.5,None,
0,0.0,None,fixation,stimulus/audwhere_stim/blank_white.png,stimulus/audwhere_stim/blank_white.png,stimulus/audwhat_stim/blank_white.png,stimulus/audwhat_stim/blank_white.png,stimulus/audwhere_stim/blank_white.png,stimulus/audwhere_stim/blank_white.png,stimulus/audwhere_stim/blank_white.png,stimulus/audwhere_stim/blank_white.png,0.0,0.0,0.0,0.0,0,0.0,0,0.0,0,0.0,0,0.0,0,0.0,0.0,0,0,0,0,0,0,0,0,0,0.0,0,0.0,0,0.0,0,0.0,8,,,,,0,13,13,13,,,,,,,,,142.16883470898028,142.16883470898028,142.16883470898028,142.16883470898028,142.16883470898028,142.16883470898028,142.16883470898028,142.16883470898028,142.0670632922867,142.16883470898028,142.16883470898028,142.16883470898028,142.0670632922867,142.16883470898028,142.16883470898028,142.16883470898028,142.16883470898028,142.16883470898028,142.16883470898028,142.16883470898028,142.16883470898028,142.16883470898028,142.16883470898028,142.16883470898028,142.16883470898028,142.16883470898028,142.16883470898028,142.11706329228667,142.16883470898028,142.16883470898028,142.16883470898028,142.11706329228667,142.16883470898028,142.16883470898028,142.16883470898028,142.16883470898028,142.16883470898028,147.3698550419649,147.3698550419649,150.30403712496627,None,0,,reldom2_s032,001,2025-03-12_15h43.45.125,Aud-A-Scan_AC,2022.2.5,None,
11,Second_Order,2.0,audwhere,stimulus/audwhere_stim/left_away_280h.wav,stimulus/audwhere_stim/left_toward_280h.wav,stimulus/audwhere_stim/right_toward_280h.wav,stimulus/audwhere_stim/left_toward_270h.wav,stimulus/audwhere_stim/match_blank.png,stimulus/audwhere_stim/match_box.png,stimulus/audwhere_stim/match_yes.png,stimulus/audwhere_stim/match_no.png,2.0,Match,Side,Direction,2,5.125,0,5.125,0,5.125,0,5.125,0,0.75,0.75,0,0,0,0,0,0,0,0,1,0.5,1,2.125,1,0.5,1,2.125,0,,,,,0,14,14,14,,,,,,,,,150.30403712496627,155.41636212496087,150.30403712496627,150.30403712496627,150.30403712496627,150.30403712496627,150.75330891704652,151.74035400000867,150.76735004171886,,152.38860520895105,153.3777523339959,152.39177850069635,,155.41636212496087,156.26749837503303,158.3186017499538,162.26094633399043,156.26749837503303,156.26749837503303,161.43870012497064,156.26749837503303,156.26749837503303,156.26749837503303,156.26749837503303,156.68659583397675,157.75970758404583,156.65635650064021,,158.3186017499538,159.39125637500547,158.28855075064737,,156.26749837503303,161.43870012497064,156.26749837503303,161.43870012497064,161.43870012497064,,156.26749837503303,2,1,1.8184612080221996,reldom2_s032,001,2025-03-12_15h43.45.125,Aud-A-Scan_AC,2022.2.5,None,
12,Second_Order,2.0,audwhere,stimulus/audwhere_stim/left_away_300h.wav,stimulus/audwhere_stim/right_away_270h.wav,stimulus/audwhere_stim/left_toward_280h.wav,stimulus/audwhere_stim/right_toward_280h.wav,stimulus/audwhere_stim/match_blank.png,stimulus/audwhere_stim/match_box.png,stimulus/audwhere_stim/match_yes.png,stimulus/audwhere_stim/match_no.png,1.0,Match,Direction,Direction,1,5.125,0,5.125,0,5.125,0,5.125,0,0.625,0.625,0,0,0,0,0,0,0,0,1,0.5,1,2.125,1,0.5,1,2.125,0,,,,,0,15,15,15,,,,,,,,,162.26094633399043,167.37742987496313,162.26094633399043,162.26094633399043,162.26094633399043,162.26094633399043,162.71445129194763,163.70180849998724,162.72844391671632,,164.3370461249724,165.33492883399595,164.3492210006264,165.3383987089619,167.37742987496313,168.1070537919877,170.1503279589815,,168.1070537919877,168.1070537919877,173.2624892089516,168.1070537919877,168.1070537919877,168.1070537919877,168.1070537919877,168.52456133405212,169.59236991696525,168.4945196667143,,170.1503279589815,171.21989429194946,170.12003920862142,,168.1070537919877,173.2624892089516,168.1070537919877,173.2624892089516,173.30382441694383,173.96046729199588,168.1070537919877,1,1,0.8279604570707306,reldom2_s032,001,2025-03-12_15h43.45.125,Aud-A-Scan_AC,2022.2.5,None,
0,0.0,None,fixation,stimulus/audwhere_stim/blank_white.png,stimulus/audwhere_stim/blank_white.png,stimulus/audwhat_stim/blank_white.png,stimulus/audwhat_stim/blank_white.png,stimulus/audwhere_stim/blank_white.png,stimulus/audwhere_stim/blank_white.png,stimulus/audwhere_stim/blank_white.png,stimulus/audwhere_stim/blank_white.png,0.0,0.0,0.0,0.0,0,0.0,0,0.0,0,0.0,0,0.0,0,0.0,0.0,0,0,0,0,0,0,0,0,0,0.0,0,0.0,0,0.0,0,0.0,8,,,,,0,16,16,16,,,,,,,,,174.19485070894007,174.19485070894007,174.19485070894007,174.19485070894007,174.19485070894007,174.19485070894007,174.19485070894007,174.19485070894007,174.09380062532924,174.19485070894007,174.19485070894007,174.19485070894007,174.09380062532924,174.19485070894007,174.19485070894007,174.19485070894007,174.19485070894007,174.19485070894007,174.19485070894007,174.19485070894007,174.19485070894007,174.19485070894007,174.19485070894007,174.19485070894007,174.19485070894007,174.19485070894007,174.19485070894007,174.14380062532922,174.19485070894007,174.19485070894007,174.19485070894007,174.14380062532922,174.19485070894007,174.19485070894007,174.19485070894007,174.19485070894007,174.19485070894007,179.39051199995447,179.39051199995447,182.41983220900875,None,0,,reldom2_s032,001,2025-03-12_15h43.45.125,Aud-A-Scan_AC,2022.2.5,None,
13,First_Order,3.0,audwhat,stimulus/audwhat_stim/dummy.wav,stimulus/audwhat_stim/dummy.wav,stimulus/audwhat_stim/percussion xylophone_high-pitch_F_loud.wav,stimulus/audwhat_stim/percussion mallet_low-pitch_Dtri_loud.wav,stimulus/audwhat_stim/blank_white.png,stimulus/audwhat_stim/category_box.png,stimulus/audwhat_stim/category_yes.png,stimulus/audwhat_stim/category_no.png,None,Category,None,Category,1,0.0,0,5.125,0,5.125,0,5.125,0,0.0,0.625,0,0,0,0,0,0,0,0,0,0.0,0,0.0,1,0.5,1,2.125,0,,,,,0,17,17,17,,,,,,,,,182.41983220900875,182.41983220900875,182.41983220900875,182.41983220900875,182.41983220900875,182.41983220900875,182.41983220900875,182.41983220900875,182.34609408366185,182.41983220900875,182.41983220900875,182.41983220900875,182.34609408366185,182.41983220900875,182.41983220900875,182.41983220900875,184.5210028749425,,182.41983220900875,182.41983220900875,187.6099854169879,182.41983220900875,182.41983220900875,182.41983220900875,182.41983220900875,182.88678795902524,183.9618533339817,182.85690858361002,183.91519566695206,184.5210028749425,185.55342220899183,184.4909157086552,,182.41983220900875,187.6099854169879,182.41983220900875,187.6099854169879,187.6099854169879,188.26723312505055,182.41983220900875,1,1,0.5961505409795791,reldom2_s032,001,2025-03-12_15h43.45.125,Aud-A-Scan_AC,2022.2.5,None,
14,First_Order,3.0,audwhat,stimulus/audwhat_stim/dummy.wav,stimulus/audwhat_stim/dummy.wav,stimulus/audwhat_stim/string cello_low-pitch_Ftri_loud.wav,stimulus/audwhat_stim/string viola_high-pitch_F_loud.wav,stimulus/audwhat_stim/blank_white.png,stimulus/audwhat_stim/category_box.png,stimulus/audwhat_stim/category_yes.png,stimulus/audwhat_stim/category_no.png,None,Category,None,Category,1,0.0,0,5.125,0,5.125,0,5.125,0,0.0,0.625,0,0,0,0,0,0,0,0,0,0.0,0,0.0,1,0.5,1,2.125,0,,,,,0,18,18,18,,,,,,,,,188.52241879201028,188.52241879201028,188.52241879201028,188.52241879201028,188.52241879201028,188.52241879201028,188.52241879201028,188.52241879201028,188.44139700036808,188.52241879201028,188.52241879201028,188.52241879201028,188.44139700036808,188.52241879201028,188.52241879201028,188.52241879201028,190.62686208402738,,188.52241879201028,188.52241879201028,193.7148659999948,188.52241879201028,188.52241879201028,188.52241879201028,188.52241879201028,188.9896892090328,190.01900654204655,188.95927233371575,,190.62686208402738,191.66179537505377,190.59657908365287,,188.52241879201028,193.7148659999948,188.52241879201028,193.7148659999948,193.7148659999948,194.37311708403286,188.52241879201028,1,1,0.5994523740373552,reldom2_s032,001,2025-03-12_15h43.45.125,Aud-A-Scan_AC,2022.2.5,None,
15,First_Order,3.0,audwhat,stimulus/audwhat_stim/dummy.wav,stimulus/audwhat_stim/dummy.wav,stimulus/audwhat_stim/string viola_low-pitch_D_loud.wav,stimulus/audwhat_stim/percussion mallet_low-pitch_D_loud.wav,stimulus/audwhat_stim/blank_white.png,stimulus/audwhat_stim/pitch_box.png,stimulus/audwhat_stim/pitch_yes.png,stimulus/audwhat_stim/pitch_no.png,None,Pitch,None,Pitch,1,0.0,0,5.125,0,5.125,0,5.125,0,0.0,0.625,0,0,0,0,0,0,0,0,0,0.0,0,0.0,1,0.5,1,2.125,0,,,,,0,19,19,19,,,,,,,,,194.62836774997413,194.62836774997413,194.62836774997413,194.62836774997413,194.62836774997413,194.62836774997413,194.62836774997413,194.62836774997413,194.54744395837966,194.62836774997413,194.62836774997413,194.62836774997413,194.54744395837966,194.62836774997413,194.62836774997413,194.62836774997413,196.72681649995502,200.75987049995456,194.62836774997413,194.62836774997413,199.805998209049,194.62836774997413,194.62836774997413,194.62836774997413,194.62836774997413,195.09491987503134,196.16849700000603,195.06488300062873,,196.72681649995502,197.75745491695125,196.69695850060478,,194.62836774997413,199.805998209049,194.62836774997413,199.805998209049,199.84726483398117,200.5037170839496,194.62836774997413,1,1,0.5831034580478445,reldom2_s032,001,2025-03-12_15h43.45.125,Aud-A-Scan_AC,2022.2.5,None,
16,First_Order,3.0,audwhat,stimulus/audwhat_stim/dummy.wav,stimulus/audwhat_stim/dummy.wav,stimulus/audwhat_stim/string cello_low-pitch_D_loud.wav,stimulus/audwhat_stim/string viola_high-pitch_Dtri_loud.wav,stimulus/audwhat_stim/blank_white.png,stimulus/audwhat_stim/pitch_box.png,stimulus/audwhat_stim/pitch_yes.png,stimulus/audwhat_stim/pitch_no.png,None,Pitch,None,Category,2,0.0,0,5.125,0,5.125,0,5.125,0,0.0,0.625,0,0,0,0,0,0,0,0,0,0.0,0,0.0,1,0.5,1,2.125,0,,,,,0,20,20,20,,,,,,,,,200.75987049995456,200.75987049995456,200.75987049995456,200.75987049995456,200.75987049995456,200.75987049995456,200.75987049995456,200.75987049995456,200.6778949173478,200.75987049995456,200.75987049995456,200.75987049995456,200.6778949173478,200.75987049995456,200.75987049995456,200.75987049995456,202.8558667920297,206.90457458398305,200.75987049995456,200.75987049995456,205.93328241701238,200.75987049995456,200.75987049995456,200.75987049995456,200.75987049995456,201.22569708398078,202.29852337494958,201.19562425063148,,202.8558667920297,203.93039279198274,202.8257532506871,,200.75987049995456,205.93328241701238,200.75987049995456,205.93328241701238,205.97439674998168,206.6303130419692,200.75987049995456,2,1,2.8134952910477296,reldom2_s032,001,2025-03-12_15h43.45.125,Aud-A-Scan_AC,2022.2.5,None,
0,0.0,None,fixation,stimulus/audwhere_stim/blank_white.png,stimulus/audwhere_stim/blank_white.png,stimulus/audwhat_stim/blank_white.png,stimulus/audwhat_stim/blank_white.png,stimulus/audwhere_stim/blank_white.png,stimulus/audwhere_stim/blank_white.png,stimulus/audwhere_stim/blank_white.png,stimulus/audwhere_stim/blank_white.png,0.0,0.0,0.0,0.0,0,0.0,0,0.0,0,0.0,0,0.0,0,0.0,0.0,0,0,0,0,0,0,0,0,0,0.0,0,0.0,0,0.0,0,0.0,8,,,,,0,21,21,21,,,,,,,,,206.90457458398305,206.90457458398305,206.90457458398305,206.90457458398305,206.90457458398305,206.90457458398305,206.90457458398305,206.90457458398305,206.80451416727934,206.90457458398305,206.90457458398305,206.90457458398305,206.80451416727934,206.90457458398305,206.90457458398305,206.90457458398305,206.90457458398305,206.90457458398305,206.90457458398305,206.90457458398305,206.90457458398305,206.90457458398305,206.90457458398305,206.90457458398305,206.90457458398305,206.90457458398305,206.90457458398305,206.85451416727932,206.90457458398305,206.90457458398305,206.90457458398305,206.85451416727932,206.90457458398305,206.90457458398305,206.90457458398305,206.90457458398305,206.90457458398305,212.11568183405325,212.11568183405325,215.05828933394514,None,0,,reldom2_s032,001,2025-03-12_15h43.45.125,Aud-A-Scan_AC,2022.2.5,None,
17,Second_Order,3.0,audwhat,stimulus/audwhat_stim/percussion mallet_high-pitch_F_loud.wav,stimulus/audwhat_stim/string viola_high-pitch_F_loud.wav,stimulus/audwhat_stim/string cello_low-pitch_Ftri_loud.wav,stimulus/audwhat_stim/string cello_high-pitch_Dtri_loud.wav,stimulus/audwhere_stim/match_blank.png,stimulus/audwhat_stim/match_box.png,stimulus/audwhere_stim/match_yes.png,stimulus/audwhere_stim/match_no.png,2.0,Match,Pitch,Category,2,5.125,0,5.125,0,5.125,0,5.125,0,0.75,0.75,0,0,0,0,0,0,0,0,1,0.5,1,2.125,1,0.5,1,2.125,0,,,,,0,22,22,22,,,,,,,,,215.05828933394514,220.18357429199386,215.05828933394514,215.05828933394514,215.05828933394514,215.05828933394514,215.51752033398952,216.5070639590267,215.5197744166401,216.5070639590267,217.1425324169686,218.1403277500067,217.15461670869652,,220.18357429199386,221.03555633395445,223.08409520902205,227.02102616697084,221.03555633395445,221.03555633395445,226.20518533396535,221.03555633395445,221.03555633395445,221.03555633395445,221.03555633395445,221.45383466698695,222.52643241698388,221.42383779160835,,223.08409520902205,224.15716012497433,223.0538041666771,,221.03555633395445,226.20518533396535,221.03555633395445,226.20518533396535,226.20518533396535,,221.03555633395445,2,1,1.6807872080244124,reldom2_s032,001,2025-03-12_15h43.45.125,Aud-A-Scan_AC,2022.2.5,None,
18,Second_Order,3.0,audwhat,stimulus/audwhat_stim/string viola_low-pitch_F_loud.wav,stimulus/audwhat_stim/percussion mallet_low-pitch_F_loud.wav,stimulus/audwhat_stim/percussion mallet_high-pitch_Ftri_loud.wav,stimulus/audwhat_stim/string cello_high-pitch_Ftri_loud.wav,stimulus/audwhere_stim/match_blank.png,stimulus/audwhat_stim/match_box.png,stimulus/audwhere_stim/match_yes.png,stimulus/audwhere_stim/match_no.png,1.0,Match,Pitch,Pitch,1,5.125,0,5.125,0,5.125,0,5.125,0,0.625,0.625,0,0,0,0,0,0,0,0,1,0.5,1,2.125,1,0.5,1,2.125,0,,,,,0,23,23,23,,,,,,,,,227.02102616697084,232.14438958396204,227.02102616697084,227.02102616697084,227.02102616697084,227.02102616697084,227.48272524995264,228.48060812498443,227.4951943756935,,229.10333970899228,230.10118245903868,229.11555266665917,,232.14438958396204,232.8764609589707,234.92041749996133,,232.8764609589707,232.8764609589707,238.04221520898864,232.8764609589707,232.8764609589707,232.8764609589707,232.8764609589707,233.2936605840223,234.36264199996367,233.26350420870975,,234.92041749996133,235.99563579203095,234.89020725066464,,232.8764609589707,238.04221520898864,232.8764609589707,238.04221520898864,238.04221520898864,238.6985742090037,232.8764609589707,1,1,0.6272783329477534,reldom2_s032,001,2025-03-12_15h43.45.125,Aud-A-Scan_AC,2022.2.5,None,
0,0.0,None,fixation,stimulus/audwhere_stim/blank_white.png,stimulus/audwhere_stim/blank_white.png,stimulus/audwhat_stim/blank_white.png,stimulus/audwhat_stim/blank_white.png,stimulus/audwhere_stim/blank_white.png,stimulus/audwhere_stim/blank_white.png,stimulus/audwhere_stim/blank_white.png,stimulus/audwhere_stim/blank_white.png,0.0,0.0,0.0,0.0,0,0.0,0,0.0,0,0.0,0,0.0,0,0.0,0.0,0,0,0,0,0,0,0,0,0,0.0,0,0.0,0,0.0,0,0.0,9,,,,,0,24,24,24,,,,,,,,,238.97461258398835,238.97461258398835,238.97461258398835,238.97461258398835,238.97461258398835,238.97461258398835,238.97461258398835,238.97461258398835,238.87266287536673,238.97461258398835,238.97461258398835,238.97461258398835,238.87266287536673,238.97461258398835,238.97461258398835,238.97461258398835,238.97461258398835,238.97461258398835,238.97461258398835,238.97461258398835,238.97461258398835,238.97461258398835,238.97461258398835,238.97461258398835,238.97461258398835,238.97461258398835,238.97461258398835,238.9226628753667,238.97461258398835,238.97461258398835,238.97461258398835,238.9226628753667,238.97461258398835,238.97461258398835,238.97461258398835,238.97461258398835,238.97461258398835,244.16977187502198,244.16977187502198,248.219209959032,None,0,,reldom2_s032,001,2025-03-12_15h43.45.125,Aud-A-Scan_AC,2022.2.5,None,
19,First_Order,4.0,audwhat,stimulus/audwhat_stim/dummy.wav,stimulus/audwhat_stim/dummy.wav,stimulus/audwhat_stim/percussion mallet_low-pitch_D_loud.wav,stimulus/audwhat_stim/string viola_low-pitch_D_loud.wav,stimulus/audwhat_stim/blank_white.png,stimulus/audwhat_stim/category_box.png,stimulus/audwhat_stim/category_yes.png,stimulus/audwhat_stim/category_no.png,None,Category,None,Pitch,2,0.0,0,5.125,0,5.125,0,5.125,0,0.0,0.625,0,0,0,0,0,0,0,0,0,0.0,0,0.0,1,0.5,1,2.125,0,,,,,0,25,25,25,,,,,,,,,248.219209959032,248.219209959032,248.219209959032,248.219209959032,248.219209959032,248.219209959032,248.219209959032,248.219209959032,248.14534300069016,248.219209959032,248.219209959032,248.219209959032,248.14534300069016,248.219209959032,248.219209959032,248.219209959032,250.32420337502845,,248.219209959032,248.219209959032,253.40615145897027,248.219209959032,248.219209959032,248.219209959032,248.219209959032,248.68824349995703,249.7184097500285,248.6574143336077,,250.32420337502845,251.35340812499635,250.29387412564054,,248.219209959032,253.40615145897027,248.219209959032,253.40615145897027,253.44750470900908,254.10786933405325,248.219209959032,2,1,2.049694083048962,reldom2_s032,001,2025-03-12_15h43.45.125,Aud-A-Scan_AC,2022.2.5,None,
20,First_Order,4.0,audwhat,stimulus/audwhat_stim/dummy.wav,stimulus/audwhat_stim/dummy.wav,stimulus/audwhat_stim/percussion xylophone_high-pitch_Dtri_loud.wav,stimulus/audwhat_stim/string cello_high-pitch_Dtri_loud.wav,stimulus/audwhat_stim/blank_white.png,stimulus/audwhat_stim/pitch_box.png,stimulus/audwhat_stim/pitch_yes.png,stimulus/audwhat_stim/pitch_no.png,None,Pitch,None,Pitch,1,0.0,0,5.125,0,5.125,0,5.125,0,0.0,0.625,0,0,0,0,0,0,0,0,0,0.0,0,0.0,1,0.5,1,2.125,0,,,,,0,26,26,26,,,,,,,,,254.32166491704993,254.32166491704993,254.32166491704993,254.32166491704993,254.32166491704993,254.32166491704993,254.32166491704993,254.32166491704993,254.2412026673866,254.32166491704993,254.32166491704993,254.32166491704993,254.2412026673866,254.32166491704993,254.32166491704993,254.32166491704993,256.41551604203414,260.4415397499688,254.32166491704993,254.32166491704993,259.487910249969,254.32166491704993,254.32166491704993,254.32166491704993,254.32166491704993,254.78790408396162,255.85871341696475,254.75786062569048,255.81208120903466,256.41551604203414,257.48836479196325,256.38586650061575,,254.32166491704993,259.487910249969,254.32166491704993,259.487910249969,259.5306045420002,260.1865833749762,254.32166491704993,1,1,0.6969367080600932,reldom2_s032,001,2025-03-12_15h43.45.125,Aud-A-Scan_AC,2022.2.5,None,
21,First_Order,4.0,audwhat,stimulus/audwhat_stim/dummy.wav,stimulus/audwhat_stim/dummy.wav,stimulus/audwhat_stim/string viola_low-pitch_D_loud.wav,stimulus/audwhat_stim/percussion mallet_low-pitch_D_loud.wav,stimulus/audwhat_stim/blank_white.png,stimulus/audwhat_stim/category_box.png,stimulus/audwhat_stim/category_yes.png,stimulus/audwhat_stim/category_no.png,None,Category,None,Pitch,2,0.0,0,5.125,0,5.125,0,5.125,0,0.0,0.625,0,0,0,0,0,0,0,0,0,0.0,0,0.0,1,0.5,1,2.125,0,,,,,0,27,27,27,,,,,,,,,260.4415397499688,260.4415397499688,260.4415397499688,260.4415397499688,260.4415397499688,260.4415397499688,260.4415397499688,260.4415397499688,260.3609765003513,260.4415397499688,260.4415397499688,260.4415397499688,260.3609765003513,260.4415397499688,260.4415397499688,260.4415397499688,262.547286416986,,260.4415397499688,260.4415397499688,265.6358323340537,260.4415397499688,260.4415397499688,260.4415397499688,260.4415397499688,260.9099355000071,261.9852845839923,260.87963858369426,,262.547286416986,263.5801452919841,262.5169782506457,,260.4415397499688,265.6358323340537,260.4415397499688,265.6358323340537,265.6358323340537,266.29255554196425,260.4415397499688,2,1,1.1419864989584312,reldom2_s032,001,2025-03-12_15h43.45.125,Aud-A-Scan_AC,2022.2.5,None,
22,First_Order,4.0,audwhat,stimulus/audwhat_stim/dummy.wav,stimulus/audwhat_stim/dummy.wav,stimulus/audwhat_stim/string viola_low-pitch_Ftri_loud.wav,stimulus/audwhat_stim/string cello_high-pitch_D_loud.wav,stimulus/audwhat_stim/blank_white.png,stimulus/audwhat_stim/pitch_box.png,stimulus/audwhat_stim/pitch_yes.png,stimulus/audwhat_stim/pitch_no.png,None,Pitch,None,Category,2,0.0,0,5.125,0,5.125,0,5.125,0,0.0,0.625,0,0,0,0,0,0,0,0,0,0.0,0,0.0,1,0.5,1,2.125,0,,,,,0,28,28,28,,,,,,,,,266.5483371249866,266.5483371249866,266.5483371249866,266.5483371249866,266.5483371249866,266.5483371249866,266.5483371249866,266.5483371249866,266.46703670828913,266.5483371249866,266.5483371249866,266.5483371249866,266.46703670828913,266.5483371249866,266.5483371249866,266.5483371249866,268.6454926249571,272.69650266703684,266.5483371249866,266.5483371249866,271.72365712502506,266.5483371249866,266.5483371249866,266.5483371249866,266.5483371249866,267.01426712505054,268.08759445894975,266.9846225416443,,268.6454926249571,269.7202321670484,268.61552391661485,,266.5483371249866,271.72365712502506,266.5483371249866,271.72365712502506,271.7650341669796,272.42149812495336,266.5483371249866,1,0,1.6585504991235211,reldom2_s032,001,2025-03-12_15h43.45.125,Aud-A-Scan_AC,2022.2.5,None,
0,0.0,None,fixation,stimulus/audwhere_stim/blank_white.png,stimulus/audwhere_stim/blank_white.png,stimulus/audwhat_stim/blank_white.png,stimulus/audwhat_stim/blank_white.png,stimulus/audwhere_stim/blank_white.png,stimulus/audwhere_stim/blank_white.png,stimulus/audwhere_stim/blank_white.png,stimulus/audwhere_stim/blank_white.png,0.0,0.0,0.0,0.0,0,0.0,0,0.0,0,0.0,0,0.0,0,0.0,0.0,0,0,0,0,0,0,0,0,0,0.0,0,0.0,0,0.0,0,0.0,10,,,,,0,29,29,29,,,,,,,,,272.69650266703684,272.69650266703684,272.69650266703684,272.69650266703684,272.69650266703684,272.69650266703684,272.69650266703684,272.69650266703684,272.59562583329,272.69650266703684,272.69650266703684,272.69650266703684,272.59562583329,272.69650266703684,272.69650266703684,272.69650266703684,272.69650266703684,272.69650266703684,272.69650266703684,272.69650266703684,272.69650266703684,272.69650266703684,272.69650266703684,272.69650266703684,272.69650266703684,272.69650266703684,272.69650266703684,272.64562583329,272.69650266703684,272.69650266703684,272.69650266703684,272.64562583329,272.69650266703684,272.69650266703684,272.69650266703684,272.69650266703684,272.69650266703684,277.9069459589664,277.9069459589664,282.83209220902063,None,0,,reldom2_s032,001,2025-03-12_15h43.45.125,Aud-A-Scan_AC,2022.2.5,None,
23,Second_Order,4.0,audwhat,stimulus/audwhat_stim/string cello_low-pitch_F_loud.wav,stimulus/audwhat_stim/string cello_high-pitch_Ftri_loud.wav,stimulus/audwhat_stim/percussion mallet_high-pitch_Ftri_loud.wav,stimulus/audwhat_stim/percussion mallet_low-pitch_F_loud.wav,stimulus/audwhere_stim/match_blank.png,stimulus/audwhat_stim/match_box.png,stimulus/audwhere_stim/match_yes.png,stimulus/audwhere_stim/match_no.png,1.0,Match,Category,Category,1,5.125,0,5.125,0,5.125,0,5.125,0,0.75,0.75,0,0,0,0,0,0,0,0,1,0.5,1,2.125,1,0.5,1,2.125,0,,,,,0,30,30,30,,,,,,,,,282.83209220902063,287.95177408400923,282.83209220902063,282.83209220902063,282.83209220902063,282.83209220902063,283.2903383340454,284.2804845420178,283.29300404171613,,284.9158029999817,285.9135584169999,284.9278288756652,,287.95177408400923,288.80533937504515,290.85175820894074,294.7888626670465,288.80533937504515,288.80533937504515,293.9735589999473,288.80533937504515,288.80533937504515,288.80533937504515,288.80533937504515,289.2232976249652,290.29294537496753,289.1932615006265,,290.85175820894074,291.8809810000239,290.8217678336116,,288.80533937504515,293.9735589999473,288.80533937504515,293.9735589999473,293.9735589999473,,288.80533937504515,1,1,0.4378907080972567,reldom2_s032,001,2025-03-12_15h43.45.125,Aud-A-Scan_AC,2022.2.5,None,
24,Second_Order,4.0,audwhat,stimulus/audwhat_stim/percussion xylophone_high-pitch_Dtri_loud.wav,stimulus/audwhat_stim/percussion mallet_low-pitch_D_loud.wav,stimulus/audwhat_stim/string cello_low-pitch_Ftri_loud.wav,stimulus/audwhat_stim/string viola_high-pitch_D_loud.wav,stimulus/audwhere_stim/match_blank.png,stimulus/audwhat_stim/match_box.png,stimulus/audwhere_stim/match_yes.png,stimulus/audwhere_stim/match_no.png,1.0,Match,Category,Category,1,5.125,0,5.125,0,5.125,0,5.125,0,0.625,0.625,0,0,0,0,0,0,0,0,1,0.5,1,2.125,1,0.5,1,2.125,0,,,,,0,31,31,31,,,,,,,,,294.7888626670465,299.91238608397543,294.7888626670465,294.7888626670465,294.7888626670465,294.7888626670465,295.23729316703975,296.2244061670499,295.2515032506237,296.24113391700666,296.8728500000434,297.86144024995156,296.8765950006821,,299.91238608397543,300.6428209589794,302.73135666700546,,300.6428209589794,300.6428209589794,305.80236133397557,300.6428209589794,300.6428209589794,300.6428209589794,300.6428209589794,301.1049093749607,302.17449683404993,301.075048208648,,302.73135666700546,303.8041994170053,302.70151966665094,,300.6428209589794,305.80236133397557,300.6428209589794,305.80236133397557,305.84376149997115,306.49795066704974,300.6428209589794,1,1,0.6615121660288423,reldom2_s032,001,2025-03-12_15h43.45.125,Aud-A-Scan_AC,2022.2.5,None,
0,0.0,None,fixation,stimulus/audwhere_stim/blank_white.png,stimulus/audwhere_stim/blank_white.png,stimulus/audwhat_stim/blank_white.png,stimulus/audwhat_stim/blank_white.png,stimulus/audwhere_stim/blank_white.png,stimulus/audwhere_stim/blank_white.png,stimulus/audwhere_stim/blank_white.png,stimulus/audwhere_stim/blank_white.png,0.0,0.0,0.0,0.0,0,0.0,0,0.0,0,0.0,0,0.0,0,0.0,0.0,0,0,0,0,0,0,0,0,0,0.0,0,0.0,0,0.0,0,0.0,9,,,,,0,32,32,32,,,,,,,,,306.733172083972,306.733172083972,306.733172083972,306.733172083972,306.733172083972,306.733172083972,306.733172083972,306.733172083972,306.63128400038306,306.733172083972,306.733172083972,306.733172083972,306.63128400038306,306.733172083972,306.733172083972,306.733172083972,306.733172083972,306.733172083972,306.733172083972,306.733172083972,306.733172083972,306.733172083972,306.733172083972,306.733172083972,306.733172083972,306.733172083972,306.733172083972,306.6812840003831,306.733172083972,306.733172083972,306.733172083972,306.6812840003831,306.733172083972,306.733172083972,306.733172083972,306.733172083972,306.733172083972,311.9432181250304,311.9432181250304,315.9952344170306,None,0,,reldom2_s032,001,2025-03-12_15h43.45.125,Aud-A-Scan_AC,2022.2.5,None,
25,First_Order,5.0,audwhere,stimulus/audwhere_stim/dummy.wav,stimulus/audwhere_stim/dummy.wav,stimulus/audwhere_stim/right_away_300h.wav,stimulus/audwhere_stim/right_toward_300h.wav,stimulus/audwhere_stim/blank_white.png,stimulus/audwhere_stim/direction_box.png,stimulus/audwhere_stim/direction_yes.png,stimulus/audwhere_stim/direction_no.png,None,Direction,None,Side,2,0.0,0,5.125,0,5.125,0,5.125,0,0.0,0.625,0,0,0,0,0,0,0,0,0,0.0,0,0.0,1,0.5,1,2.125,0,,,,,0,33,33,33,,,,,,,,,315.9952344170306,315.9952344170306,315.9952344170306,315.9952344170306,315.9952344170306,315.9952344170306,315.9952344170306,315.9952344170306,315.92128200064565,315.9952344170306,315.9952344170306,315.9952344170306,315.92128200064565,315.9952344170306,315.9952344170306,315.9952344170306,318.1018681670539,,315.9952344170306,315.9952344170306,321.18682562501635,315.9952344170306,315.9952344170306,315.9952344170306,315.9952344170306,316.46379595901817,317.53985633398406,316.4336184166061,,318.1018681670539,319.1325943749398,318.0715095836824,,315.9952344170306,321.18682562501635,315.9952344170306,321.18682562501635,321.18682562501635,321.8461524590384,315.9952344170306,2,1,1.401398541056551,reldom2_s032,001,2025-03-12_15h43.45.125,Aud-A-Scan_AC,2022.2.5,None,
26,First_Order,5.0,audwhere,stimulus/audwhere_stim/dummy.wav,stimulus/audwhere_stim/dummy.wav,stimulus/audwhere_stim/right_away_280h.wav,stimulus/audwhere_stim/left_away_270h.wav,stimulus/audwhere_stim/blank_white.png,stimulus/audwhere_stim/side_box.png,stimulus/audwhere_stim/side_yes.png,stimulus/audwhere_stim/side_no.png,None,Side,None,Direction,2,0.0,0,5.125,0,5.125,0,5.125,0,0.0,0.625,0,0,0,0,0,0,0,0,0,0.0,0,0.0,1,0.5,1,2.125,0,,,,,0,34,34,34,,,,,,,,,322.1015805420466,322.1015805420466,322.1015805420466,322.1015805420466,322.1015805420466,322.1015805420466,322.1015805420466,322.1015805420466,322.0206880832867,322.1015805420466,322.1015805420466,322.1015805420466,322.0206880832867,322.1015805420466,322.1015805420466,322.1015805420466,324.19498174998444,328.22356633399613,322.1015805420466,322.1015805420466,327.27023045904934,322.1015805420466,322.1015805420466,322.1015805420466,322.1015805420466,322.56721362494864,323.6377879170468,322.53755437565655,,324.19498174998444,325.2701727920212,324.1647811666519,,322.1015805420466,327.27023045904934,322.1015805420466,327.27023045904934,327.3115021670237,327.9688616669737,322.1015805420466,2,1,0.6960026249289513,reldom2_s032,001,2025-03-12_15h43.45.125,Aud-A-Scan_AC,2022.2.5,None,
27,First_Order,5.0,audwhere,stimulus/audwhere_stim/dummy.wav,stimulus/audwhere_stim/dummy.wav,stimulus/audwhere_stim/left_away_300h.wav,stimulus/audwhere_stim/right_away_290h.wav,stimulus/audwhere_stim/blank_white.png,stimulus/audwhere_stim/direction_box.png,stimulus/audwhere_stim/direction_yes.png,stimulus/audwhere_stim/direction_no.png,None,Direction,None,Direction,1,0.0,0,5.125,0,5.125,0,5.125,0,0.0,0.625,0,0,0,0,0,0,0,0,0,0.0,0,0.0,1,0.5,1,2.125,0,,,,,0,35,35,35,,,,,,,,,328.22356633399613,328.22356633399613,328.22356633399613,328.22356633399613,328.22356633399613,328.22356633399613,328.22356633399613,328.22356633399613,328.14284266732477,328.22356633399613,328.22356633399613,328.22356633399613,328.14284266732477,328.22356633399613,328.22356633399613,328.22356633399613,330.328912166995,,328.22356633399613,328.22356633399613,333.4193242089823,328.22356633399613,328.22356633399613,328.22356633399613,328.22356633399613,328.6917728340486,329.72209208400454,328.6614432086392,,330.328912166995,331.36129945900757,330.29876550072026,,328.22356633399613,333.4193242089823,328.22356633399613,333.4193242089823,333.4193242089823,334.078333875048,328.22356633399613,1,1,1.3152446249732748,reldom2_s032,001,2025-03-12_15h43.45.125,Aud-A-Scan_AC,2022.2.5,None,
28,First_Order,5.0,audwhere,stimulus/audwhere_stim/dummy.wav,stimulus/audwhere_stim/dummy.wav,stimulus/audwhere_stim/left_away_290h.wav,stimulus/audwhere_stim/right_away_280h.wav,stimulus/audwhere_stim/blank_white.png,stimulus/audwhere_stim/direction_box.png,stimulus/audwhere_stim/direction_yes.png,stimulus/audwhere_stim/direction_no.png,None,Direction,None,Direction,1,0.0,0,5.125,0,5.125,0,5.125,0,0.0,0.625,0,0,0,0,0,0,0,0,0,0.0,0,0.0,1,0.5,1,2.125,0,,,,,0,36,36,36,,,,,,,,,334.335170833976,334.335170833976,334.335170833976,334.335170833976,334.335170833976,334.335170833976,334.335170833976,334.335170833976,334.2527244172835,334.335170833976,334.335170833976,334.335170833976,334.2527244172835,334.335170833976,334.335170833976,334.335170833976,336.44209145894274,,334.335170833976,334.335170833976,339.5315886250464,334.335170833976,334.335170833976,334.335170833976,334.335170833976,334.802990749944,335.83439729199745,334.7725551257065,,336.44209145894274,337.47427574999165,336.4116117506676,,334.335170833976,339.5315886250464,334.335170833976,339.5315886250464,339.5315886250464,340.1897237090161,334.335170833976,1,1,1.0067638739710674,reldom2_s032,001,2025-03-12_15h43.45.125,Aud-A-Scan_AC,2022.2.5,None,
0,0.0,None,fixation,stimulus/audwhere_stim/blank_white.png,stimulus/audwhere_stim/blank_white.png,stimulus/audwhat_stim/blank_white.png,stimulus/audwhat_stim/blank_white.png,stimulus/audwhere_stim/blank_white.png,stimulus/audwhere_stim/blank_white.png,stimulus/audwhere_stim/blank_white.png,stimulus/audwhere_stim/blank_white.png,0.0,0.0,0.0,0.0,0,0.0,0,0.0,0,0.0,0,0.0,0,0.0,0.0,0,0,0,0,0,0,0,0,0,0.0,0,0.0,0,0.0,0,0.0,9,,,,,0,37,37,37,,,,,,,,,340.46532704203855,340.46532704203855,340.46532704203855,340.46532704203855,340.46532704203855,340.46532704203855,340.46532704203855,340.46532704203855,340.36398979232956,340.46532704203855,340.46532704203855,340.46532704203855,340.36398979232956,340.46532704203855,340.46532704203855,340.46532704203855,340.46532704203855,340.46532704203855,340.46532704203855,340.46532704203855,340.46532704203855,340.46532704203855,340.46532704203855,340.46532704203855,340.46532704203855,340.46532704203855,340.46532704203855,340.4139897923296,340.46532704203855,340.46532704203855,340.46532704203855,340.4139897923296,340.46532704203855,340.46532704203855,340.46532704203855,340.46532704203855,340.46532704203855,345.68038529204205,345.68038529204205,349.64261262502987,None,0,,reldom2_s032,001,2025-03-12_15h43.45.125,Aud-A-Scan_AC,2022.2.5,None,
29,Second_Order,5.0,audwhere,stimulus/audwhere_stim/right_toward_270h.wav,stimulus/audwhere_stim/right_away_280h.wav,stimulus/audwhere_stim/left_toward_290h.wav,stimulus/audwhere_stim/left_away_290h.wav,stimulus/audwhere_stim/match_blank.png,stimulus/audwhere_stim/match_box.png,stimulus/audwhere_stim/match_yes.png,stimulus/audwhere_stim/match_no.png,1.0,Match,Side,Side,1,5.125,0,5.125,0,5.125,0,5.125,0,0.75,0.75,0,0,0,0,0,0,0,0,1,0.5,1,2.125,1,0.5,1,2.125,0,,,,,0,38,38,38,,,,,,,,,349.64261262502987,354.76018804195337,349.64261262502987,349.64261262502987,349.64261262502987,349.64261262502987,350.09762345894706,351.0845093750395,350.1112356666165,,351.7198452090379,352.71793970896397,351.7321676666072,,354.76018804195337,355.6132251670351,357.66342387499753,361.5988926249556,355.6132251670351,355.6132251670351,360.783696666942,355.6132251670351,355.6132251670351,355.6132251670351,355.6132251670351,356.0331421670271,357.10377633397,356.0030328756586,,357.66342387499753,358.69310825003777,357.63341595867337,,355.6132251670351,360.783696666942,355.6132251670351,360.783696666942,360.783696666942,,355.6132251670351,1,1,0.7194384160684422,reldom2_s032,001,2025-03-12_15h43.45.125,Aud-A-Scan_AC,2022.2.5,None,
30,Second_Order,5.0,audwhere,stimulus/audwhere_stim/left_toward_300h.wav,stimulus/audwhere_stim/left_away_290h.wav,stimulus/audwhere_stim/right_away_290h.wav,stimulus/audwhere_stim/right_toward_280h.wav,stimulus/audwhere_stim/match_blank.png,stimulus/audwhere_stim/match_box.png,stimulus/audwhere_stim/match_yes.png,stimulus/audwhere_stim/match_no.png,1.0,Match,Side,Side,1,5.125,0,5.125,0,5.125,0,5.125,0,0.625,0.625,0,0,0,0,0,0,0,0,1,0.5,1,2.125,1,0.5,1,2.125,0,,,,,0,39,39,39,,,,,,,,,361.5988926249556,366.7218977919547,361.5988926249556,361.5988926249556,361.5988926249556,361.5988926249556,362.05581820895895,363.04527645895723,362.05871008366034,363.04527645895723,363.68123295903206,364.6786444169702,363.693251125693,364.6823654170148,366.7218977919547,367.45046412502415,369.4962482090341,,367.45046412502415,367.45046412502415,372.61893633403815,367.45046412502415,367.45046412502415,367.45046412502415,367.45046412502415,367.869777083979,368.93832937499974,367.8396842916884,,369.4962482090341,370.57075662503485,369.4663482086655,,367.45046412502415,372.61893633403815,367.45046412502415,372.61893633403815,372.61893633403815,373.273131874972,367.45046412502415,1,1,0.6567549580940977,reldom2_s032,001,2025-03-12_15h43.45.125,Aud-A-Scan_AC,2022.2.5,None,
0,0.0,None,fixation,stimulus/audwhere_stim/blank_white.png,stimulus/audwhere_stim/blank_white.png,stimulus/audwhat_stim/blank_white.png,stimulus/audwhat_stim/blank_white.png,stimulus/audwhere_stim/blank_white.png,stimulus/audwhere_stim/blank_white.png,stimulus/audwhere_stim/blank_white.png,stimulus/audwhere_stim/blank_white.png,0.0,0.0,0.0,0.0,0,0.0,0,0.0,0,0.0,0,0.0,0,0.0,0.0,0,0,0,0,0,0,0,0,0,0.0,0,0.0,0,0.0,0,0.0,9,,,,,0,40,40,40,,,,,,,,,373.55005587497726,373.55005587497726,373.55005587497726,373.55005587497726,373.55005587497726,373.55005587497726,373.55005587497726,373.55005587497726,373.4474361673075,373.55005587497726,373.55005587497726,373.55005587497726,373.4474361673075,373.55005587497726,373.55005587497726,373.55005587497726,373.55005587497726,373.55005587497726,373.55005587497726,373.55005587497726,373.55005587497726,373.55005587497726,373.55005587497726,373.55005587497726,373.55005587497726,373.55005587497726,373.55005587497726,373.4974361673075,373.55005587497726,373.55005587497726,373.55005587497726,373.4974361673075,373.55005587497726,373.55005587497726,373.55005587497726,373.55005587497726,373.55005587497726,378.7563849169528,378.7563849169528,382.80645625002217,None,0,,reldom2_s032,001,2025-03-12_15h43.45.125,Aud-A-Scan_AC,2022.2.5,None,
31,First_Order,6.0,audwhere,stimulus/audwhere_stim/dummy.wav,stimulus/audwhere_stim/dummy.wav,stimulus/audwhere_stim/left_away_300h.wav,stimulus/audwhere_stim/left_toward_300h.wav,stimulus/audwhere_stim/blank_white.png,stimulus/audwhere_stim/side_box.png,stimulus/audwhere_stim/side_yes.png,stimulus/audwhere_stim/side_no.png,None,Side,None,Side,1,0.0,0,5.125,0,5.125,0,5.125,0,0.0,0.625,0,0,0,0,0,0,0,0,0,0.0,0,0.0,1,0.5,1,2.125,0,,,,,0,41,41,41,,,,,,,,,382.80645625002217,382.80645625002217,382.80645625002217,382.80645625002217,382.80645625002217,382.80645625002217,382.80645625002217,382.80645625002217,382.73239000064007,382.80645625002217,382.80645625002217,382.80645625002217,382.73239000064007,382.80645625002217,382.80645625002217,382.80645625002217,384.89998229197226,388.925923458999,382.80645625002217,382.80645625002217,387.9754354170291,382.80645625002217,382.80645625002217,382.80645625002217,382.80645625002217,383.2719392499421,384.342588208965,383.24180908367657,,384.89998229197226,385.93015054194257,384.8700101256293,,382.80645625002217,387.9754354170291,382.80645625002217,387.9754354170291,388.0163456669543,388.6717799999751,382.80645625002217,1,1,0.5462399160023779,reldom2_s032,001,2025-03-12_15h43.45.125,Aud-A-Scan_AC,2022.2.5,None,
32,First_Order,6.0,audwhere,stimulus/audwhere_stim/dummy.wav,stimulus/audwhere_stim/dummy.wav,stimulus/audwhere_stim/right_away_270h.wav,stimulus/audwhere_stim/left_away_280h.wav,stimulus/audwhere_stim/blank_white.png,stimulus/audwhere_stim/side_box.png,stimulus/audwhere_stim/side_yes.png,stimulus/audwhere_stim/side_no.png,None,Side,None,Direction,2,0.0,0,5.125,0,5.125,0,5.125,0,0.0,0.625,0,0,0,0,0,0,0,0,0,0.0,0,0.0,1,0.5,1,2.125,0,,,,,0,42,42,42,,,,,,,,,388.925923458999,388.925923458999,388.925923458999,388.925923458999,388.925923458999,388.925923458999,388.925923458999,388.925923458999,388.8463003333037,388.925923458999,388.925923458999,388.925923458999,388.8463003333037,388.925923458999,388.925923458999,388.925923458999,391.01842033397406,395.04167933401186,388.925923458999,388.925923458999,394.0919616250321,388.925923458999,388.925923458999,388.925923458999,388.925923458999,389.39011849998496,390.4614422089653,389.3603751666999,,391.01842033397406,392.09385049995035,390.98875529162274,,388.925923458999,394.0919616250321,388.925923458999,394.0919616250321,394.1329829590395,394.78766112495214,388.925923458999,2,1,0.632611166103743,reldom2_s032,001,2025-03-12_15h43.45.125,Aud-A-Scan_AC,2022.2.5,None,
33,First_Order,6.0,audwhere,stimulus/audwhere_stim/dummy.wav,stimulus/audwhere_stim/dummy.wav,stimulus/audwhere_stim/left_toward_270h.wav,stimulus/audwhere_stim/left_away_270h.wav,stimulus/audwhere_stim/blank_white.png,stimulus/audwhere_stim/direction_box.png,stimulus/audwhere_stim/direction_yes.png,stimulus/audwhere_stim/direction_no.png,None,Direction,None,Side,2,0.0,0,5.125,0,5.125,0,5.125,0,0.0,0.625,0,0,0,0,0,0,0,0,0,0.0,0,0.0,1,0.5,1,2.125,0,,,,,0,43,43,43,,,,,,,,,395.04167933401186,395.04167933401186,395.04167933401186,395.04167933401186,395.04167933401186,395.04167933401186,395.04167933401186,395.04167933401186,394.96181404232823,395.04167933401186,395.04167933401186,395.04167933401186,394.96181404232823,395.04167933401186,395.04167933401186,395.04167933401186,397.14780033403076,,395.04167933401186,395.04167933401186,400.19268908398226,395.04167933401186,395.04167933401186,395.04167933401186,395.04167933401186,395.51039674994536,396.54041229200084,395.4787960836586,,397.14780033403076,398.1803424169775,397.1176976257159,,395.04167933401186,400.19268908398226,395.04167933401186,400.19268908398226,400.2343210839899,400.89228612498846,395.04167933401186,2,1,1.2871674159541726,reldom2_s032,001,2025-03-12_15h43.45.125,Aud-A-Scan_AC,2022.2.5,None,
34,First_Order,6.0,audwhere,stimulus/audwhere_stim/dummy.wav,stimulus/audwhere_stim/dummy.wav,stimulus/audwhere_stim/left_toward_300h.wav,stimulus/audwhere_stim/left_away_300h.wav,stimulus/audwhere_stim/blank_white.png,stimulus/audwhere_stim/side_box.png,stimulus/audwhere_stim/side_yes.png,stimulus/audwhere_stim/side_no.png,None,Side,None,Side,1,0.0,0,5.125,0,5.125,0,5.125,0,0.0,0.625,0,0,0,0,0,0,0,0,0,0.0,0,0.0,1,0.5,1,2.125,0,,,,,0,44,44,44,,,,,,,,,401.1469888340216,401.1469888340216,401.1469888340216,401.1469888340216,401.1469888340216,401.1469888340216,401.1469888340216,401.1469888340216,401.0667952503155,401.1469888340216,401.1469888340216,401.1469888340216,401.0667952503155,401.1469888340216,401.1469888340216,401.1469888340216,403.2401644169586,407.2938697920181,401.1469888340216,401.1469888340216,406.32101687497925,401.1469888340216,401.1469888340216,401.1469888340216,401.1469888340216,401.6146404170431,402.6827537920326,401.58441654168223,,403.2401644169586,404.2714274999453,403.2099260006255,,401.1469888340216,406.32101687497925,401.1469888340216,406.32101687497925,406.36237779201474,407.0189203750342,401.1469888340216,1,1,0.5898969990666956,reldom2_s032,001,2025-03-12_15h43.45.125,Aud-A-Scan_AC,2022.2.5,None,
0,0.0,None,fixation,stimulus/audwhere_stim/blank_white.png,stimulus/audwhere_stim/blank_white.png,stimulus/audwhat_stim/blank_white.png,stimulus/audwhat_stim/blank_white.png,stimulus/audwhere_stim/blank_white.png,stimulus/audwhere_stim/blank_white.png,stimulus/audwhere_stim/blank_white.png,stimulus/audwhere_stim/blank_white.png,0.0,0.0,0.0,0.0,0,0.0,0,0.0,0,0.0,0,0.0,0,0.0,0.0,0,0,0,0,0,0,0,0,0,0.0,0,0.0,0,0.0,0,0.0,10,,,,,0,45,45,45,,,,,,,,,407.2938697920181,407.2938697920181,407.2938697920181,407.2938697920181,407.2938697920181,407.2938697920181,407.2938697920181,407.2938697920181,407.1933036253632,407.2938697920181,407.2938697920181,407.2938697920181,407.1933036253632,407.2938697920181,407.2938697920181,407.2938697920181,407.2938697920181,407.2938697920181,407.2938697920181,407.2938697920181,407.2938697920181,407.2938697920181,407.2938697920181,407.2938697920181,407.2938697920181,407.2938697920181,407.2938697920181,407.24330362536324,407.2938697920181,407.2938697920181,407.2938697920181,407.24330362536324,407.2938697920181,407.2938697920181,407.2938697920181,407.2938697920181,407.2938697920181,412.5042880419642,412.5042880419642,417.42849066702183,None,0,,reldom2_s032,001,2025-03-12_15h43.45.125,Aud-A-Scan_AC,2022.2.5,None,
35,Second_Order,6.0,audwhere,stimulus/audwhere_stim/left_away_280h.wav,stimulus/audwhere_stim/left_toward_300h.wav,stimulus/audwhere_stim/right_away_280h.wav,stimulus/audwhere_stim/right_toward_300h.wav,stimulus/audwhere_stim/match_blank.png,stimulus/audwhere_stim/match_box.png,stimulus/audwhere_stim/match_yes.png,stimulus/audwhere_stim/match_no.png,1.0,Match,Side,Side,1,5.125,0,5.125,0,5.125,0,5.125,0,0.75,0.75,0,0,0,0,0,0,0,0,1,0.5,1,2.125,1,0.5,1,2.125,0,,,,,0,46,46,46,,,,,,,,,417.42849066702183,422.55035449995194,417.42849066702183,417.42849066702183,417.42849066702183,417.42849066702183,417.8849850000115,418.87434633402154,417.8876978336523,418.87434633402154,419.5103867499856,420.50755724997725,419.52261191670937,420.5110427920008,422.55035449995194,423.3991615419509,425.44995525002014,,423.3991615419509,423.3991615419509,428.56781629205216,423.3991615419509,423.3991615419509,423.3991615419509,423.3991615419509,423.82028574997094,424.8918347499566,423.79018270870824,,425.44995525002014,426.52389175002463,425.4198468336292,,423.3991615419509,428.56781629205216,423.3991615419509,428.56781629205216,428.56781629205216,,423.3991615419509,1,1,0.5721932491287589,reldom2_s032,001,2025-03-12_15h43.45.125,Aud-A-Scan_AC,2022.2.5,None,
36,Second_Order,6.0,audwhere,stimulus/audwhere_stim/left_away_290h.wav,stimulus/audwhere_stim/left_toward_270h.wav,stimulus/audwhere_stim/left_toward_290h.wav,stimulus/audwhere_stim/right_toward_270h.wav,stimulus/audwhere_stim/match_blank.png,stimulus/audwhere_stim/match_box.png,stimulus/audwhere_stim/match_yes.png,stimulus/audwhere_stim/match_no.png,2.0,Match,Side,Direction,2,5.125,0,5.125,0,5.125,0,5.125,0,0.625,0.625,0,0,0,0,0,0,0,0,1,0.5,1,2.125,1,0.5,1,2.125,0,,,,,0,47,47,47,,,,,,,,,429.38233183394186,434.494921250036,429.38233183394186,429.38233183394186,429.38233183394186,429.38233183394186,429.8316606669687,430.8188018340152,429.84549329168317,,431.4663985839579,432.45618812495377,431.4702008757197,432.45618812495377,434.494921250036,435.22506199998315,437.272297458956,,435.22506199998315,435.22506199998315,440.39324987505097,435.22506199998315,435.22506199998315,435.22506199998315,435.22506199998315,435.6441296249395,436.714026333997,435.6142107917151,,437.272297458956,438.34528029197827,437.24212466663835,,435.22506199998315,440.39324987505097,435.22506199998315,440.39324987505097,440.39324987505097,441.04849733400624,435.22506199998315,2,1,1.566803249064833,reldom2_s032,001,2025-03-12_15h43.45.125,Aud-A-Scan_AC,2022.2.5,None,
0,0.0,None,fixation,stimulus/audwhere_stim/blank_white.png,stimulus/audwhere_stim/blank_white.png,stimulus/audwhat_stim/blank_white.png,stimulus/audwhat_stim/blank_white.png,stimulus/audwhere_stim/blank_white.png,stimulus/audwhere_stim/blank_white.png,stimulus/audwhere_stim/blank_white.png,stimulus/audwhere_stim/blank_white.png,0.0,0.0,0.0,0.0,0,0.0,0,0.0,0,0.0,0,0.0,0,0.0,0.0,0,0,0,0,0,0,0,0,0,0.0,0,0.0,0,0.0,0,0.0,9,,,,,0,48,48,48,,,,,,,,,441.3235556669533,441.3235556669533,441.3235556669533,441.3235556669533,441.3235556669533,441.3235556669533,441.3235556669533,441.3235556669533,441.22280108338066,441.3235556669533,441.3235556669533,441.3235556669533,441.22280108338066,441.3235556669533,441.3235556669533,441.3235556669533,441.3235556669533,441.3235556669533,441.3235556669533,441.3235556669533,441.3235556669533,441.3235556669533,441.3235556669533,441.3235556669533,441.3235556669533,441.3235556669533,441.3235556669533,441.27280108338067,441.3235556669533,441.3235556669533,441.3235556669533,441.27280108338067,441.3235556669533,441.3235556669533,441.3235556669533,441.3235556669533,441.3235556669533,446.5259802499786,446.5259802499786,450.5745723339496,None,0,,reldom2_s032,001,2025-03-12_15h43.45.125,Aud-A-Scan_AC,2022.2.5,None,
37,First_Order,7.0,audwhat,stimulus/audwhat_stim/dummy.wav,stimulus/audwhat_stim/dummy.wav,stimulus/audwhat_stim/string cello_low-pitch_Ftri_loud.wav,stimulus/audwhat_stim/string cello_high-pitch_D_loud.wav,stimulus/audwhat_stim/blank_white.png,stimulus/audwhat_stim/pitch_box.png,stimulus/audwhat_stim/pitch_yes.png,stimulus/audwhat_stim/pitch_no.png,None,Pitch,None,Category,2,0.0,0,5.125,0,5.125,0,5.125,0,0.0,0.625,0,0,0,0,0,0,0,0,0,0.0,0,0.0,1,0.5,1,2.125,0,,,,,0,49,49,49,,,,,,,,,450.5745723339496,450.5745723339496,450.5745723339496,450.5745723339496,450.5745723339496,450.5745723339496,450.5745723339496,450.5745723339496,450.50079016670736,450.5745723339496,450.5745723339496,450.5745723339496,450.50079016670736,450.5745723339496,450.5745723339496,450.5745723339496,452.67244604195,456.69950250000693,450.5745723339496,450.5745723339496,455.74952249997295,450.5745723339496,450.5745723339496,450.5745723339496,450.5745723339496,451.0403670419473,452.1140952500282,451.010180583635,,452.67244604195,453.74690187501255,452.6424331257042,,450.5745723339496,455.74952249997295,450.5745723339496,455.74952249997295,455.79070541705005,456.4454809590243,450.5745723339496,2,1,1.5025577490450814,reldom2_s032,001,2025-03-12_15h43.45.125,Aud-A-Scan_AC,2022.2.5,None,
38,First_Order,7.0,audwhat,stimulus/audwhat_stim/dummy.wav,stimulus/audwhat_stim/dummy.wav,stimulus/audwhat_stim/string cello_low-pitch_D_loud.wav,stimulus/audwhat_stim/string cello_high-pitch_Ftri_loud.wav,stimulus/audwhat_stim/blank_white.png,stimulus/audwhat_stim/pitch_box.png,stimulus/audwhat_stim/pitch_yes.png,stimulus/audwhat_stim/pitch_no.png,None,Pitch,None,Category,2,0.0,0,5.125,0,5.125,0,5.125,0,0.0,0.625,0,0,0,0,0,0,0,0,0,0.0,0,0.0,1,0.5,1,2.125,0,,,,,0,50,50,50,,,,,,,,,456.69950250000693,456.69950250000693,456.69950250000693,456.69950250000693,456.69950250000693,456.69950250000693,456.69950250000693,456.69950250000693,456.6194370002796,456.69950250000693,456.69950250000693,456.69950250000693,456.6194370002796,456.69950250000693,456.69950250000693,456.69950250000693,458.7954613750335,462.81852633401286,456.69950250000693,456.69950250000693,461.867567584035,456.69950250000693,456.69950250000693,456.69950250000693,456.69950250000693,457.165000375011,458.2370333339786,457.1349478756931,,458.7954613750335,459.8686097089667,458.7651429586733,,456.69950250000693,461.867567584035,456.69950250000693,461.867567584035,461.9087735420326,462.56380820902996,456.69950250000693,2,1,1.748426957987249,reldom2_s032,001,2025-03-12_15h43.45.125,Aud-A-Scan_AC,2022.2.5,None,
39,First_Order,7.0,audwhat,stimulus/audwhat_stim/dummy.wav,stimulus/audwhat_stim/dummy.wav,stimulus/audwhat_stim/percussion xylophone_high-pitch_Dtri_loud.wav,stimulus/audwhat_stim/string cello_high-pitch_Dtri_loud.wav,stimulus/audwhat_stim/blank_white.png,stimulus/audwhat_stim/pitch_box.png,stimulus/audwhat_stim/pitch_yes.png,stimulus/audwhat_stim/pitch_no.png,None,Pitch,None,Pitch,1,0.0,0,5.125,0,5.125,0,5.125,0,0.0,0.625,0,0,0,0,0,0,0,0,0,0.0,0,0.0,1,0.5,1,2.125,0,,,,,0,51,51,51,,,,,,,,,462.81852633401286,462.81852633401286,462.81852633401286,462.81852633401286,462.81852633401286,462.81852633401286,462.81852633401286,462.81852633401286,462.73812783337974,462.81852633401286,462.81852633401286,462.81852633401286,462.73812783337974,462.81852633401286,462.81852633401286,462.81852633401286,464.913793292013,468.94256887503434,462.81852633401286,462.81852633401286,467.99070166703314,462.81852633401286,462.81852633401286,462.81852633401286,462.81852633401286,463.2849172919523,464.3568077919772,463.25482620863863,464.3102552499622,464.913793292013,465.9431493340526,464.8837534166562,,462.81852633401286,467.99070166703314,462.81852633401286,467.99070166703314,468.0317656249972,468.68790270900354,462.81852633401286,1,1,0.6971671240171418,reldom2_s032,001,2025-03-12_15h43.45.125,Aud-A-Scan_AC,2022.2.5,None,
40,First_Order,7.0,audwhat,stimulus/audwhat_stim/dummy.wav,stimulus/audwhat_stim/dummy.wav,stimulus/audwhat_stim/string cello_low-pitch_D_loud.wav,stimulus/audwhat_stim/percussion mallet_low-pitch_D_loud.wav,stimulus/audwhat_stim/blank_white.png,stimulus/audwhat_stim/pitch_box.png,stimulus/audwhat_stim/pitch_yes.png,stimulus/audwhat_stim/pitch_no.png,None,Pitch,None,Pitch,1,0.0,0,5.125,0,5.125,0,5.125,0,0.0,0.625,0,0,0,0,0,0,0,0,0,0.0,0,0.0,1,0.5,1,2.125,0,,,,,0,52,52,52,,,,,,,,,468.94256887503434,468.94256887503434,468.94256887503434,468.94256887503434,468.94256887503434,468.94256887503434,468.94256887503434,468.94256887503434,468.8622592502817,468.94256887503434,468.94256887503434,468.94256887503434,468.8622592502817,468.94256887503434,468.94256887503434,468.94256887503434,471.03728141693864,475.0868139170343,468.94256887503434,468.94256887503434,474.1137723750435,468.94256887503434,468.94256887503434,468.94256887503434,468.94256887503434,469.4084415839752,470.48010662500747,469.3787123757104,,471.03728141693864,472.0677692090394,471.00737291662176,,468.94256887503434,474.1137723750435,468.94256887503434,474.1137723750435,474.1551909169648,474.81189837504644,468.94256887503434,1,1,0.9473899570293725,reldom2_s032,001,2025-03-12_15h43.45.125,Aud-A-Scan_AC,2022.2.5,None,
0,0.0,None,fixation,stimulus/audwhere_stim/blank_white.png,stimulus/audwhere_stim/blank_white.png,stimulus/audwhat_stim/blank_white.png,stimulus/audwhat_stim/blank_white.png,stimulus/audwhere_stim/blank_white.png,stimulus/audwhere_stim/blank_white.png,stimulus/audwhere_stim/blank_white.png,stimulus/audwhere_stim/blank_white.png,0.0,0.0,0.0,0.0,0,0.0,0,0.0,0,0.0,0,0.0,0,0.0,0.0,0,0,0,0,0,0,0,0,0,0.0,0,0.0,0,0.0,0,0.0,10,,,,,0,53,53,53,,,,,,,,,475.0868139170343,475.0868139170343,475.0868139170343,475.0868139170343,475.0868139170343,475.0868139170343,475.0868139170343,475.0868139170343,474.98636941731286,475.0868139170343,475.0868139170343,475.0868139170343,474.98636941731286,475.0868139170343,475.0868139170343,475.0868139170343,475.0868139170343,475.0868139170343,475.0868139170343,475.0868139170343,475.0868139170343,475.0868139170343,475.0868139170343,475.0868139170343,475.0868139170343,475.0868139170343,475.0868139170343,475.03636941731287,475.0868139170343,475.0868139170343,475.0868139170343,475.03636941731287,475.0868139170343,475.0868139170343,475.0868139170343,475.0868139170343,475.0868139170343,480.29478662495967,480.29478662495967,485.221730499994,None,0,,reldom2_s032,001,2025-03-12_15h43.45.125,Aud-A-Scan_AC,2022.2.5,None,
41,Second_Order,7.0,audwhat,stimulus/audwhat_stim/percussion xylophone_high-pitch_Ftri_loud.wav,stimulus/audwhat_stim/percussion mallet_low-pitch_Dtri_loud.wav,stimulus/audwhat_stim/string viola_low-pitch_Ftri_loud.wav,stimulus/audwhat_stim/percussion mallet_low-pitch_Ftri_loud.wav,stimulus/audwhere_stim/match_blank.png,stimulus/audwhat_stim/match_box.png,stimulus/audwhere_stim/match_yes.png,stimulus/audwhere_stim/match_no.png,2.0,Match,Category,Pitch,2,5.125,0,5.125,0,5.125,0,5.125,0,0.75,0.75,0,0,0,0,0,0,0,0,1,0.5,1,2.125,1,0.5,1,2.125,0,,,,,0,54,54,54,,,,,,,,,485.221730499994,490.341716291965,485.221730499994,485.221730499994,485.221730499994,485.221730499994,485.6770883749705,486.6643076669425,485.6911198336786,486.68043220904656,487.300227458938,488.2979921250371,487.3122406666555,,490.341716291965,491.1896020419663,493.23942016693763,497.1782593339449,491.1896020419663,491.1896020419663,496.36235258402303,491.1896020419663,491.1896020419663,491.1896020419663,491.1896020419663,491.61072150000837,492.68118554202374,491.58048158366387,,493.23942016693763,494.26852262497414,493.209605666638,,491.1896020419663,496.36235258402303,491.1896020419663,496.36235258402303,496.36235258402303,,491.1896020419663,2,1,1.9758203329984099,reldom2_s032,001,2025-03-12_15h43.45.125,Aud-A-Scan_AC,2022.2.5,None,
42,Second_Order,7.0,audwhat,stimulus/audwhat_stim/string cello_high-pitch_Dtri_loud.wav,stimulus/audwhat_stim/percussion mallet_high-pitch_Dtri_loud.wav,stimulus/audwhat_stim/percussion mallet_low-pitch_D_loud.wav,stimulus/audwhat_stim/string cello_low-pitch_D_loud.wav,stimulus/audwhere_stim/match_blank.png,stimulus/audwhat_stim/match_box.png,stimulus/audwhere_stim/match_yes.png,stimulus/audwhere_stim/match_no.png,1.0,Match,Pitch,Pitch,1,5.125,0,5.125,0,5.125,0,5.125,0,0.625,0.625,0,0,0,0,0,0,0,0,1,0.5,1,2.125,1,0.5,1,2.125,0,,,,,0,55,55,55,,,,,,,,,497.1782593339449,502.30136104195844,497.1782593339449,497.1782593339449,497.1782593339449,497.1782593339449,497.63547191699035,498.62659720901866,497.63808250060924,,499.2603000419913,500.25859741703607,499.2729861667069,,502.30136104195844,503.0342356249457,505.0811931670178,,503.0342356249457,503.0342356249457,508.2020857919706,503.0342356249457,503.0342356249457,503.0342356249457,503.0342356249457,503.45278625003994,504.5240000420017,503.4228207086601,,505.0811931670178,506.15574129205197,505.0513477506504,,503.0342356249457,508.2020857919706,503.0342356249457,508.2020857919706,508.2020857919706,508.85684395895805,503.0342356249457,1,1,0.6989163740072399,reldom2_s032,001,2025-03-12_15h43.45.125,Aud-A-Scan_AC,2022.2.5,None,
0,0.0,None,fixation,stimulus/audwhere_stim/blank_white.png,stimulus/audwhere_stim/blank_white.png,stimulus/audwhat_stim/blank_white.png,stimulus/audwhat_stim/blank_white.png,stimulus/audwhere_stim/blank_white.png,stimulus/audwhere_stim/blank_white.png,stimulus/audwhere_stim/blank_white.png,stimulus/audwhere_stim/blank_white.png,0.0,0.0,0.0,0.0,0,0.0,0,0.0,0,0.0,0,0.0,0,0.0,0.0,0,0,0,0,0,0,0,0,0,0.0,0,0.0,0,0.0,0,0.0,9,,,,,0,56,56,56,,,,,,,,,509.13255700003356,509.13255700003356,509.13255700003356,509.13255700003356,509.13255700003356,509.13255700003356,509.13255700003356,509.13255700003356,509.03117329234567,509.13255700003356,509.13255700003356,509.13255700003356,509.03117329234567,509.13255700003356,509.13255700003356,509.13255700003356,509.13255700003356,509.13255700003356,509.13255700003356,509.13255700003356,509.13255700003356,509.13255700003356,509.13255700003356,509.13255700003356,509.13255700003356,509.13255700003356,509.13255700003356,509.0811732923457,509.13255700003356,509.13255700003356,509.13255700003356,509.0811732923457,509.13255700003356,509.13255700003356,509.13255700003356,509.13255700003356,509.13255700003356,514.3342634589644,514.3342634589644,518.3863692920422,None,0,,reldom2_s032,001,2025-03-12_15h43.45.125,Aud-A-Scan_AC,2022.2.5,None,
43,First_Order,8.0,audwhat,stimulus/audwhat_stim/dummy.wav,stimulus/audwhat_stim/dummy.wav,stimulus/audwhat_stim/string viola_low-pitch_F_loud.wav,stimulus/audwhat_stim/percussion mallet_low-pitch_F_loud.wav,stimulus/audwhat_stim/blank_white.png,stimulus/audwhat_stim/category_box.png,stimulus/audwhat_stim/category_yes.png,stimulus/audwhat_stim/category_no.png,None,Category,None,Pitch,2,0.0,0,5.125,0,5.125,0,5.125,0,0.0,0.625,0,0,0,0,0,0,0,0,0,0.0,0,0.0,1,0.5,1,2.125,0,,,,,0,57,57,57,,,,,,,,,518.3863692920422,518.3863692920422,518.3863692920422,518.3863692920422,518.3863692920422,518.3863692920422,518.3863692920422,518.3863692920422,518.3119077916878,518.3863692920422,518.3863692920422,518.3863692920422,518.3119077916878,518.3863692920422,518.3863692920422,518.3863692920422,520.4926997920265,,518.3863692920422,518.3863692920422,523.5813559589442,518.3863692920422,518.3863692920422,518.3863692920422,518.3863692920422,518.8554089999525,519.8854072920512,518.8247398336573,,520.4926997920265,521.5247995420359,520.462515375639,,518.3863692920422,523.5813559589442,518.3863692920422,523.5813559589442,523.5813559589442,524.2398364590481,518.3863692920422,2,1,2.2014847069513053,reldom2_s032,001,2025-03-12_15h43.45.125,Aud-A-Scan_AC,2022.2.5,None,
44,First_Order,8.0,audwhat,stimulus/audwhat_stim/dummy.wav,stimulus/audwhat_stim/dummy.wav,stimulus/audwhat_stim/percussion mallet_low-pitch_Dtri_loud.wav,stimulus/audwhat_stim/percussion xylophone_high-pitch_F_loud.wav,stimulus/audwhat_stim/blank_white.png,stimulus/audwhat_stim/category_box.png,stimulus/audwhat_stim/category_yes.png,stimulus/audwhat_stim/category_no.png,None,Category,None,Category,1,0.0,0,5.125,0,5.125,0,5.125,0,0.0,0.625,0,0,0,0,0,0,0,0,0,0.0,0,0.0,1,0.5,1,2.125,0,,,,,0,58,58,58,,,,,,,,,524.4954429590143,524.4954429590143,524.4954429590143,524.4954429590143,524.4954429590143,524.4954429590143,524.4954429590143,524.4954429590143,524.4141220422772,524.4954429590143,524.4954429590143,524.4954429590143,524.4141220422772,524.4954429590143,524.4954429590143,524.4954429590143,526.5996972089633,,524.4954429590143,524.4954429590143,529.6443429590436,524.4954429590143,524.4954429590143,524.4954429590143,524.4954429590143,524.9633903750218,525.9932864999864,524.9329595416241,,526.5996972089633,527.6355080419453,526.5693207507177,527.6355080419453,524.4954429590143,529.6443429590436,524.4954429590143,529.6443429590436,529.6858730840031,530.3419593339786,524.4954429590143,1,1,0.4626579580362886,reldom2_s032,001,2025-03-12_15h43.45.125,Aud-A-Scan_AC,2022.2.5,None,
45,First_Order,8.0,audwhat,stimulus/audwhat_stim/dummy.wav,stimulus/audwhat_stim/dummy.wav,stimulus/audwhat_stim/string cello_high-pitch_Dtri_loud.wav,stimulus/audwhat_stim/percussion xylophone_high-pitch_Dtri_loud.wav,stimulus/audwhat_stim/blank_white.png,stimulus/audwhat_stim/category_box.png,stimulus/audwhat_stim/category_yes.png,stimulus/audwhat_stim/category_no.png,None,Category,None,Pitch,2,0.0,0,5.125,0,5.125,0,5.125,0,0.0,0.625,0,0,0,0,0,0,0,0,0,0.0,0,0.0,1,0.5,1,2.125,0,,,,,0,59,59,59,,,,,,,,,530.5977575839497,530.5977575839497,530.5977575839497,530.5977575839497,530.5977575839497,530.5977575839497,530.5977575839497,530.5977575839497,530.5163004172811,530.5977575839497,530.5977575839497,530.5977575839497,530.5163004172811,530.5977575839497,530.5977575839497,530.5977575839497,532.7034350000322,,530.5977575839497,530.5977575839497,535.7909761250485,530.5977575839497,530.5977575839497,530.5977575839497,530.5977575839497,531.0657819169573,532.0964473340428,531.0357708336708,,532.7034350000322,533.7368287920253,532.6730763756825,533.7368287920253,530.5977575839497,535.7909761250485,530.5977575839497,535.7909761250485,535.7909761250485,536.4492101250216,530.5977575839497,2,1,0.9420245829969645,reldom2_s032,001,2025-03-12_15h43.45.125,Aud-A-Scan_AC,2022.2.5,None,
46,First_Order,8.0,audwhat,stimulus/audwhat_stim/dummy.wav,stimulus/audwhat_stim/dummy.wav,stimulus/audwhat_stim/percussion mallet_low-pitch_Ftri_loud.wav,stimulus/audwhat_stim/percussion mallet_high-pitch_F_loud.wav,stimulus/audwhat_stim/blank_white.png,stimulus/audwhat_stim/category_box.png,stimulus/audwhat_stim/category_yes.png,stimulus/audwhat_stim/category_no.png,None,Category,None,Category,1,0.0,0,5.125,0,5.125,0,5.125,0,0.0,0.625,0,0,0,0,0,0,0,0,0,0.0,0,0.0,1,0.5,1,2.125,0,,,,,0,60,60,60,,,,,,,,,536.7051308749942,536.7051308749942,536.7051308749942,536.7051308749942,536.7051308749942,536.7051308749942,536.7051308749942,536.7051308749942,536.6239405423713,536.7051308749942,536.7051308749942,536.7051308749942,536.6239405423713,536.7051308749942,536.7051308749942,536.7051308749942,538.8098621249665,,536.7051308749942,536.7051308749942,541.8980856250273,536.7051308749942,536.7051308749942,536.7051308749942,536.7051308749942,537.1727667090017,538.2027674169512,537.1424537916357,,538.8098621249665,539.842729459051,538.7797350836374,,536.7051308749942,541.8980856250273,536.7051308749942,541.8980856250273,541.8980856250273,542.5550209999783,536.7051308749942,1,1,0.7299694990506396,reldom2_s032,001,2025-03-12_15h43.45.125,Aud-A-Scan_AC,2022.2.5,None,
0,0.0,None,fixation,stimulus/audwhere_stim/blank_white.png,stimulus/audwhere_stim/blank_white.png,stimulus/audwhat_stim/blank_white.png,stimulus/audwhat_stim/blank_white.png,stimulus/audwhere_stim/blank_white.png,stimulus/audwhere_stim/blank_white.png,stimulus/audwhere_stim/blank_white.png,stimulus/audwhere_stim/blank_white.png,0.0,0.0,0.0,0.0,0,0.0,0,0.0,0,0.0,0,0.0,0,0.0,0.0,0,0,0,0,0,0,0,0,0,0.0,0,0.0,0,0.0,0,0.0,8,,,,,0,61,61,61,,,,,,,,,542.8302375839557,542.8302375839557,542.8302375839557,542.8302375839557,542.8302375839557,542.8302375839557,542.8302375839557,542.8302375839557,542.7290309582914,542.8302375839557,542.8302375839557,542.8302375839557,542.7290309582914,542.8302375839557,542.8302375839557,542.8302375839557,542.8302375839557,542.8302375839557,542.8302375839557,542.8302375839557,542.8302375839557,542.8302375839557,542.8302375839557,542.8302375839557,542.8302375839557,542.8302375839557,542.8302375839557,542.7790309582914,542.8302375839557,542.8302375839557,542.8302375839557,542.7790309582914,542.8302375839557,542.8302375839557,542.8302375839557,542.8302375839557,542.8302375839557,548.0460356250405,548.0460356250405,550.9826636250364,None,0,,reldom2_s032,001,2025-03-12_15h43.45.125,Aud-A-Scan_AC,2022.2.5,None,
47,Second_Order,8.0,audwhat,stimulus/audwhat_stim/string cello_high-pitch_F_loud.wav,stimulus/audwhat_stim/string viola_low-pitch_D_loud.wav,stimulus/audwhat_stim/percussion mallet_low-pitch_Ftri_loud.wav,stimulus/audwhat_stim/percussion xylophone_high-pitch_F_loud.wav,stimulus/audwhere_stim/match_blank.png,stimulus/audwhat_stim/match_box.png,stimulus/audwhere_stim/match_yes.png,stimulus/audwhere_stim/match_no.png,1.0,Match,Category,Category,1,5.125,0,5.125,0,5.125,0,5.125,0,0.75,0.75,0,0,0,0,0,0,0,0,1,0.5,1,2.125,1,0.5,1,2.125,0,,,,,0,62,62,62,,,,,,,,,550.9826636250364,556.1047096670372,550.9826636250364,550.9826636250364,550.9826636250364,550.9826636250364,551.4290886250092,552.4161346249748,551.4432387506279,,553.0643912090454,554.0534680000274,553.0677530007126,,556.1047096670372,556.9562227500137,559.0091517920373,562.9457337500062,556.9562227500137,556.9562227500137,562.1316098750103,556.9562227500137,556.9562227500137,556.9562227500137,556.9562227500137,557.3770591249922,558.4508258750429,557.3465967917039,,559.0091517920373,560.0845954170218,558.979154666715,560.0378248749766,556.9562227500137,562.1316098750103,556.9562227500137,562.1316098750103,562.1316098750103,,556.9562227500137,1,1,1.8619751250371337,reldom2_s032,001,2025-03-12_15h43.45.125,Aud-A-Scan_AC,2022.2.5,None,
48,Second_Order,8.0,audwhat,stimulus/audwhat_stim/percussion mallet_high-pitch_Ftri_loud.wav,stimulus/audwhat_stim/percussion mallet_low-pitch_D_loud.wav,stimulus/audwhat_stim/string cello_high-pitch_Ftri_loud.wav,stimulus/audwhat_stim/percussion xylophone_high-pitch_Ftri_loud.wav,stimulus/audwhere_stim/match_blank.png,stimulus/audwhat_stim/match_box.png,stimulus/audwhere_stim/match_yes.png,stimulus/audwhere_stim/match_no.png,2.0,Match,Category,Pitch,2,5.125,0,5.125,0,5.125,0,5.125,0,0.625,0.625,0,0,0,0,0,0,0,0,1,0.5,1,2.125,1,0.5,1,2.125,0,,,,,0,63,63,63,,,,,,,,,562.9457337500062,568.0695122920442,562.9457337500062,562.9457337500062,562.9457337500062,562.9457337500062,563.4043564170133,564.3942654170096,563.4069615007068,564.3942654170096,565.0290982919978,566.0273116249591,565.0413626256088,,568.0695122920442,568.8018838750431,570.8488238339778,,568.8018838750431,568.8018838750431,573.967011583969,568.8018838750431,568.8018838750431,568.8018838750431,568.8018838750431,569.2215527920052,570.291642999975,569.1917107506345,,570.8488238339778,571.9203564999625,570.818551125649,571.8735620420193,568.8018838750431,573.967011583969,568.8018838750431,573.967011583969,573.967011583969,574.622825333965,568.8018838750431,2,1,1.4424337079981342,reldom2_s032,001,2025-03-12_15h43.45.125,Aud-A-Scan_AC,2022.2.5,None,
0,0.0,None,fixation,stimulus/audwhere_stim/blank_white.png,stimulus/audwhere_stim/blank_white.png,stimulus/audwhat_stim/blank_white.png,stimulus/audwhat_stim/blank_white.png,stimulus/audwhere_stim/blank_white.png,stimulus/audwhere_stim/blank_white.png,stimulus/audwhere_stim/blank_white.png,stimulus/audwhere_stim/blank_white.png,0.0,0.0,0.0,0.0,0,0.0,0,0.0,0,0.0,0,0.0,0,0.0,0.0,0,0,0,0,0,0,0,0,0,0.0,0,0.0,0,0.0,0,0.0,16,,,,,0,64,64,64,,,,,,,,,574.8992258750368,574.8992258750368,574.8992258750368,574.8992258750368,574.8992258750368,574.8992258750368,574.8992258750368,574.8992258750368,574.7969802082827,574.8992258750368,574.8992258750368,574.8992258750368,574.7969802082827,574.8992258750368,574.8992258750368,574.8992258750368,574.8992258750368,574.8992258750368,574.8992258750368,574.8992258750368,574.8992258750368,574.8992258750368,574.8992258750368,574.8992258750368,574.8992258750368,574.8992258750368,574.8992258750368,574.8469802082826,574.8992258750368,574.8992258750368,574.8992258750368,574.8469802082826,574.8992258750368,574.8992258750368,574.8992258750368,574.8992258750368,574.8992258750368,580.1086779170437,580.1086779170437,591.0396236670204,None,0,,reldom2_s032,001,2025-03-12_15h43.45.125,Aud-A-Scan_AC,2022.2.5,None,
