Trial,Order,Block,Type,Stimuli_File1,Stimuli_File2,Stimuli_File3,Stimuli_File4,Cue_File1,Cue_File2,Response_File_Yes,Response_File_No,Match,Cue_Dimension,Pair1_Dimension,Pair2_Dimension,Key,Cue1_Duration,Cue1_Onset,Cue2_Duration,Cue2_Onset,ResponseYes_Duration,ResponseYes_Onset,ResponseNo_Duration,ResponseNo_Onset,ITI_Within,ITI_Between,Image1_Duration,Image1_Onset,Image2_Duration,Image2_Onset,Image3_Duration,Image3_Onset,Image4_Duration,Image4_Onset,Sound1_Duration,Sound1_Onset,Sound2_Duration,Sound2_Onset,Sound3_Duration,Sound3_Onset,Sound4_Duration,Sound4_Onset,Fixation_Duration,trials_2.thisRepN,trials_2.thisTrialN,trials_2.thisN,trials_2.thisIndex,trials.thisRepN,trials.thisTrialN,trials.thisN,trials.thisIndex,text_start.started,key_resp_start.started,key_resp_start.keys,key_resp_start.rt,text2.started,key_resp_2.started,key_resp_2.keys,key_resp_2.rt,cue_file1.started,cue_file1.stopped,image_1.started,image_1.stopped,image_2.started,image_2.stopped,sound_icon1.started,sound_icon1.stopped,sound_1.started,sound_1.stopped,sound_icon2.started,sound_icon2.stopped,sound_2.started,sound_2.stopped,image_blank_1.started,image_blank_1.stopped,key_press.started,key_press.stopped,fixation_text.started,cue_file2.started,cue_file2.stopped,image_3.started,image_3.stopped,image_4.started,image_4.stopped,sound_icon3.started,sound_icon3.stopped,sound_3.started,sound_3.stopped,sound_icon4.started,sound_icon4.stopped,sound_4.started,sound_4.stopped,response_yes.started,response_yes.stopped,response_no.started,response_no.stopped,iti_blank.started,iti_blank.stopped,fixation_text.stopped,key_press.keys,key_press.corr,key_press.rt,participant,session,date,expName,psychopyVersion,frameRate,
,,,,,,,,,,,,,,,,,,,,,,,,,,,,,,,,,,,,,,,,,,,,,,,,,,,,7.701439791941084,7.701439791941084,2,1.2063114159973338,,,,,,,,,,,,,,,,,,,,,,,,,,,,,,,,,,,,,,,,,,,,,,,,reldom2_s032,001,2025-03-12_15h21.15.702,What-A-Scan_AC,2022.2.5,None,
,,,,,,,,,,,,,,,,,,,,,,,,,,,,,,,,,,,,,,,,,,,,0,0,0,0,,,,,,,,,8.944535874994472,8.944535874994472,5,40.31513037486002,,,,,,,,,,,,,,,,,,,,,,,,,,,,,,,,,,,,,,,,,,,,reldom2_s032,001,2025-03-12_15h21.15.702,What-A-Scan_AC,2022.2.5,None,
,,,,,,,,,,,,,,,,,,,,,,,,,,,,,,,,,,,,,,,,,,,,1,0,1,0,,,,,,,,,49.273821042035706,49.273821042035706,5,1.9848201250424609,,,,,,,,,,,,,,,,,,,,,,,,,,,,,,,,,,,,,,,,,,,,reldom2_s032,001,2025-03-12_15h21.15.702,What-A-Scan_AC,2022.2.5,None,
,,,,,,,,,,,,,,,,,,,,,,,,,,,,,,,,,,,,,,,,,,,,2,0,2,0,,,,,,,,,51.27484008297324,51.27484008297324,5,1.983256790903397,,,,,,,,,,,,,,,,,,,,,,,,,,,,,,,,,,,,,,,,,,,,reldom2_s032,001,2025-03-12_15h21.15.702,What-A-Scan_AC,2022.2.5,None,
,,,,,,,,,,,,,,,,,,,,,,,,,,,,,,,,,,,,,,,,,,,,3,0,3,0,,,,,,,,,53.275217000045814,53.275217000045814,5,1.9820772499078885,,,,,,,,,,,,,,,,,,,,,,,,,,,,,,,,,,,,,,,,,,,,reldom2_s032,001,2025-03-12_15h21.15.702,What-A-Scan_AC,2022.2.5,None,
0,0.0,None,fixation,stimulus/audwhat_stim/blank_white.png,stimulus/audwhat_stim/blank_white.png,stimulus/viswhat_stim/blank_white.png,stimulus/viswhat_stim/blank_white.png,stimulus/audwhat_stim/blank_white.png,stimulus/audwhat_stim/blank_white.png,stimulus/audwhat_stim/blank_white.png,stimulus/audwhat_stim/blank_white.png,0.0,0.0,0.0,0.0,0,0.0,0,0.0,0,0.0,0,0.0,0,0.0,0.0,0,0.0,0,0.0,0,0.0,0,0.0,0,0.0,0,0.0,0,0.0,0,0.0,16,,,,,0,0,0,0,,,,,,,,,55.47373808303382,55.47373808303382,55.47373808303382,55.47373808303382,55.47373808303382,55.47373808303382,55.47373808303382,55.47373808303382,55.37570224967009,55.47373808303382,55.47373808303382,55.47373808303382,55.37570224967009,55.47373808303382,55.47373808303382,55.47373808303382,55.47373808303382,55.47373808303382,55.47373808303382,55.47373808303382,55.47373808303382,55.47373808303382,55.47373808303382,55.47373808303382,55.47373808303382,55.47373808303382,55.47373808303382,55.42570224967009,55.47373808303382,55.47373808303382,55.47373808303382,55.42570224967009,55.47373808303382,55.47373808303382,55.47373808303382,55.47373808303382,55.47373808303382,60.660724916961044,60.660724916961044,71.71191650000401,None,0,,reldom2_s032,001,2025-03-12_15h21.15.702,What-A-Scan_AC,2022.2.5,None,
1,First_Order,1.0,audwhat,stimulus/audwhat_stim/dummy.wav,stimulus/audwhat_stim/dummy.wav,stimulus/audwhat_stim/percussion mallet_low-pitch_Dtri_loud.wav,stimulus/audwhat_stim/percussion xylophone_high-pitch_F_loud.wav,stimulus/audwhat_stim/blank_white.png,stimulus/audwhat_stim/pitch_box.png,stimulus/audwhat_stim/pitch_yes.png,stimulus/audwhat_stim/pitch_no.png,None,Pitch,None,Category,2,0.0,0,5.125,0,5.125,0,5.125,0,0.0,0.625,0,0.0,0,0.0,0,0.0,0,0.0,0,0.0,0,0.0,1,0.5,1,2.125,0,,,,,0,1,1,1,,,,,,,,,71.71191650000401,71.71191650000401,71.71191650000401,71.71191650000401,71.71191650000401,71.71191650000401,71.71191650000401,71.71191650000401,71.64184074997902,71.71191650000401,71.71191650000401,71.71191650000401,71.64184074997902,71.71191650000401,71.71191650000401,71.71191650000401,73.82065262494143,77.83171675004996,71.71191650000401,71.71191650000401,76.88999808300287,71.71191650000401,71.71191650000401,71.71191650000401,71.71191650000401,72.19567991700023,73.24865329195745,72.16836445866308,,73.82065262494143,74.87604566698428,73.79323704162768,74.83206966693979,71.71191650000401,76.88999808300287,71.71191650000401,76.88999808300287,76.92915508302394,77.58766974997707,71.71191650000401,2,1,2.0884235409321263,reldom2_s032,001,2025-03-12_15h21.15.702,What-A-Scan_AC,2022.2.5,None,
2,First_Order,1.0,audwhat,stimulus/audwhat_stim/dummy.wav,stimulus/audwhat_stim/dummy.wav,stimulus/audwhat_stim/percussion xylophone_high-pitch_Dtri_loud.wav,stimulus/audwhat_stim/percussion mallet_low-pitch_D_loud.wav,stimulus/audwhat_stim/blank_white.png,stimulus/audwhat_stim/pitch_box.png,stimulus/audwhat_stim/pitch_yes.png,stimulus/audwhat_stim/pitch_no.png,None,Pitch,None,Category,2,0.0,0,5.125,0,5.125,0,5.125,0,0.0,0.625,0,0.0,0,0.0,0,0.0,0,0.0,0,0.0,0,0.0,1,0.5,1,2.125,0,,,,,0,2,2,2,,,,,,,,,77.83171675004996,77.83171675004996,77.83171675004996,77.83171675004996,77.83171675004996,77.83171675004996,77.83171675004996,77.83171675004996,77.75952950029944,77.83171675004996,77.83171675004996,77.83171675004996,77.75952950029944,77.83171675004996,77.83171675004996,77.83171675004996,79.90255650004838,83.936809042003,77.83171675004996,77.83171675004996,82.99395983305294,77.83171675004996,77.83171675004996,77.83171675004996,77.83171675004996,78.31559041701257,79.37390041700564,78.2883443746871,79.32925837498624,79.90255650004838,80.9642686250154,79.87485545868209,,77.83171675004996,82.99395983305294,77.83171675004996,82.99395983305294,83.03319824999198,83.6959185829619,77.83171675004996,2,1,0.9306199579732493,reldom2_s032,001,2025-03-12_15h21.15.702,What-A-Scan_AC,2022.2.5,None,
3,First_Order,1.0,audwhat,stimulus/audwhat_stim/dummy.wav,stimulus/audwhat_stim/dummy.wav,stimulus/audwhat_stim/percussion mallet_low-pitch_F_loud.wav,stimulus/audwhat_stim/percussion xylophone_high-pitch_Ftri_loud.wav,stimulus/audwhat_stim/blank_white.png,stimulus/audwhat_stim/category_box.png,stimulus/audwhat_stim/category_yes.png,stimulus/audwhat_stim/category_no.png,None,Category,None,Category,1,0.0,0,5.125,0,5.125,0,5.125,0,0.0,0.625,0,0.0,0,0.0,0,0.0,0,0.0,0,0.0,0,0.0,1,0.5,1,2.125,0,,,,,0,3,3,3,,,,,,,,,83.936809042003,83.936809042003,83.936809042003,83.936809042003,83.936809042003,83.936809042003,83.936809042003,83.936809042003,83.86790966629826,83.936809042003,83.936809042003,83.936809042003,83.86790966629826,83.936809042003,83.936809042003,83.936809042003,86.02926708303858,90.0519599999534,83.936809042003,83.936809042003,89.10128791700117,83.936809042003,83.936809042003,83.936809042003,83.936809042003,84.42615375004243,85.49555458303075,84.39819999965063,,86.02926708303858,87.10032733296975,86.00129516661788,87.05582383298315,83.936809042003,89.10128791700117,83.936809042003,89.10128791700117,89.14065049996134,89.80705187504645,83.936809042003,1,1,0.9465779989259318,reldom2_s032,001,2025-03-12_15h21.15.702,What-A-Scan_AC,2022.2.5,None,
4,First_Order,1.0,audwhat,stimulus/audwhat_stim/dummy.wav,stimulus/audwhat_stim/dummy.wav,stimulus/audwhat_stim/percussion mallet_low-pitch_Dtri_loud.wav,stimulus/audwhat_stim/percussion mallet_high-pitch_F_loud.wav,stimulus/audwhat_stim/blank_white.png,stimulus/audwhat_stim/category_box.png,stimulus/audwhat_stim/category_yes.png,stimulus/audwhat_stim/category_no.png,None,Category,None,Category,1,0.0,0,5.125,0,5.125,0,5.125,0,0.0,0.625,0,0.0,0,0.0,0,0.0,0,0.0,0,0.0,0,0.0,1,0.5,1,2.125,0,,,,,0,4,4,4,,,,,,,,,90.0519599999534,90.0519599999534,90.0519599999534,90.0519599999534,90.0519599999534,90.0519599999534,90.0519599999534,90.0519599999534,89.97931183330559,90.0519599999534,90.0519599999534,90.0519599999534,89.97931183330559,90.0519599999534,90.0519599999534,90.0519599999534,92.14612891699653,,90.0519599999534,90.0519599999534,95.22868037503213,90.0519599999534,90.0519599999534,90.0519599999534,90.0519599999534,90.49776208295953,91.5675351669779,90.46973774960885,,92.14612891699653,93.17467445798684,92.11781424965399,,90.0519599999534,95.22868037503213,90.0519599999534,95.22868037503213,95.26942245801911,95.93638333294075,90.0519599999534,1,1,1.0270266658626497,reldom2_s032,001,2025-03-12_15h21.15.702,What-A-Scan_AC,2022.2.5,None,
0,0.0,None,fixation,stimulus/audwhat_stim/blank_white.png,stimulus/audwhat_stim/blank_white.png,stimulus/viswhat_stim/blank_white.png,stimulus/viswhat_stim/blank_white.png,stimulus/audwhat_stim/blank_white.png,stimulus/audwhat_stim/blank_white.png,stimulus/audwhat_stim/blank_white.png,stimulus/audwhat_stim/blank_white.png,0.0,0.0,0.0,0.0,0,0.0,0,0.0,0,0.0,0,0.0,0,0.0,0.0,0,0.0,0,0.0,0,0.0,0,0.0,0,0.0,0,0.0,0,0.0,0,0.0,10,,,,,0,5,5,5,,,,,,,,,96.15977154194843,96.15977154194843,96.15977154194843,96.15977154194843,96.15977154194843,96.15977154194843,96.15977154194843,96.15977154194843,96.06971666627408,96.15977154194843,96.15977154194843,96.15977154194843,96.06971666627408,96.15977154194843,96.15977154194843,96.15977154194843,96.15977154194843,96.15977154194843,96.15977154194843,96.15977154194843,96.15977154194843,96.15977154194843,96.15977154194843,96.15977154194843,96.15977154194843,96.15977154194843,96.15977154194843,96.11971666627409,96.15977154194843,96.15977154194843,96.15977154194843,96.11971666627409,96.15977154194843,96.15977154194843,96.15977154194843,96.15977154194843,96.15977154194843,101.38532833300997,101.38532833300997,106.3103185830405,None,0,,reldom2_s032,001,2025-03-12_15h21.15.702,What-A-Scan_AC,2022.2.5,None,
5,Second_Order,1.0,audwhat,stimulus/audwhat_stim/string cello_low-pitch_D_loud.wav,stimulus/audwhat_stim/string viola_high-pitch_Dtri_loud.wav,stimulus/audwhat_stim/percussion mallet_low-pitch_D_loud.wav,stimulus/audwhat_stim/string viola_low-pitch_D_loud.wav,stimulus/audwhat_stim/match_blank.png,stimulus/audwhat_stim/match_box.png,stimulus/audwhat_stim/match_yes.png,stimulus/audwhat_stim/match_no.png,2.0,Match,Category,Pitch,2,5.125,0,5.125,0,5.125,0,5.125,0,0.75,0.75,0,0.0,0,0.0,0,0.0,0,0.0,1,0.5,1,2.125,1,0.5,1,2.125,0,,,,,0,6,6,6,,,,,,,,,106.3103185830405,111.42268524994142,106.3103185830405,106.3103185830405,106.3103185830405,106.3103185830405,106.75910945795476,107.746764624957,106.77325349970876,,108.38187162496615,109.37988324998878,108.39420774969427,,111.42268524994142,112.27294966694899,114.3240593749797,,112.27294966694899,112.27294966694899,117.46175904199481,112.27294966694899,112.27294966694899,112.27294966694899,112.27294966694899,112.71835645800456,113.74524499999825,112.69026458362738,,114.3240593749797,115.35579458298162,114.29588424967757,,112.27294966694899,117.46175904199481,112.27294966694899,117.46175904199481,117.46175904199481,,112.27294966694899,2,1,1.0929274989757687,reldom2_s032,001,2025-03-12_15h21.15.702,What-A-Scan_AC,2022.2.5,None,
6,Second_Order,1.0,audwhat,stimulus/audwhat_stim/string cello_high-pitch_Dtri_loud.wav,stimulus/audwhat_stim/percussion mallet_high-pitch_Dtri_loud.wav,stimulus/audwhat_stim/percussion mallet_low-pitch_Ftri_loud.wav,stimulus/audwhat_stim/string cello_low-pitch_Ftri_loud.wav,stimulus/audwhat_stim/match_blank.png,stimulus/audwhat_stim/match_box.png,stimulus/audwhat_stim/match_yes.png,stimulus/audwhat_stim/match_no.png,1.0,Match,Pitch,Pitch,1,5.125,0,5.125,0,5.125,0,5.125,0,0.625,0.625,0,0.0,0,0.0,0,0.0,0,0.0,1,0.5,1,2.125,1,0.5,1,2.125,0,,,,,0,7,7,7,,,,,,,,,118.24746687500738,123.36620983295143,118.24746687500738,118.24746687500738,118.24746687500738,118.24746687500738,118.70387433294673,119.69040462502744,118.71784620866335,,120.32682933297474,121.32414920802694,120.33891491667988,,123.36620983295143,124.09923966694623,126.14547158300411,,124.09923966694623,124.09923966694623,129.2785616250476,124.09923966694623,124.09923966694623,124.09923966694623,124.09923966694623,124.54330012504943,125.61214962496888,124.51530062471672,,126.14547158300411,127.17367691698018,126.1172072496886,,124.09923966694623,129.2785616250476,124.09923966694623,129.2785616250476,129.2785616250476,129.94821974996012,124.09923966694623,2,0,2.0292526240227744,reldom2_s032,001,2025-03-12_15h21.15.702,What-A-Scan_AC,2022.2.5,None,
0,0.0,None,fixation,stimulus/audwhat_stim/blank_white.png,stimulus/audwhat_stim/blank_white.png,stimulus/viswhat_stim/blank_white.png,stimulus/viswhat_stim/blank_white.png,stimulus/audwhat_stim/blank_white.png,stimulus/audwhat_stim/blank_white.png,stimulus/audwhat_stim/blank_white.png,stimulus/audwhat_stim/blank_white.png,0.0,0.0,0.0,0.0,0,0.0,0,0.0,0,0.0,0,0.0,0,0.0,0.0,0,0.0,0,0.0,0,0.0,0,0.0,0,0.0,0,0.0,0,0.0,0,0.0,9,,,,,0,8,8,8,,,,,,,,,130.17302141699474,130.17302141699474,130.17302141699474,130.17302141699474,130.17302141699474,130.17302141699474,130.17302141699474,130.17302141699474,130.08155308329347,130.17302141699474,130.17302141699474,130.17302141699474,130.08155308329347,130.17302141699474,130.17302141699474,130.17302141699474,130.17302141699474,130.17302141699474,130.17302141699474,130.17302141699474,130.17302141699474,130.17302141699474,130.17302141699474,130.17302141699474,130.17302141699474,130.17302141699474,130.17302141699474,130.13155308329345,130.17302141699474,130.17302141699474,130.17302141699474,130.13155308329345,130.17302141699474,130.17302141699474,130.17302141699474,130.17302141699474,130.17302141699474,135.37952566694003,135.37952566694003,139.39111674996093,None,0,,reldom2_s032,001,2025-03-12_15h21.15.702,What-A-Scan_AC,2022.2.5,None,
7,First_Order,2.0,audwhat,stimulus/audwhat_stim/dummy.wav,stimulus/audwhat_stim/dummy.wav,stimulus/audwhat_stim/string cello_low-pitch_F_loud.wav,stimulus/audwhat_stim/percussion mallet_low-pitch_F_loud.wav,stimulus/audwhat_stim/blank_white.png,stimulus/audwhat_stim/pitch_box.png,stimulus/audwhat_stim/pitch_yes.png,stimulus/audwhat_stim/pitch_no.png,None,Pitch,None,Pitch,1,0.0,0,5.125,0,5.125,0,5.125,0,0.0,0.625,0,0.0,0,0.0,0,0.0,0,0.0,0,0.0,0,0.0,1,0.5,1,2.125,0,,,,,0,9,9,9,,,,,,,,,139.39111674996093,139.39111674996093,139.39111674996093,139.39111674996093,139.39111674996093,139.39111674996093,139.39111674996093,139.39111674996093,139.30574220800773,139.39111674996093,139.39111674996093,139.39111674996093,139.30574220800773,139.39111674996093,139.39111674996093,139.39111674996093,141.47720004199073,,139.39111674996093,139.39111674996093,144.5653025000356,139.39111674996093,139.39111674996093,139.39111674996093,139.39111674996093,139.84454191697296,140.88572591694538,139.81556274969287,,141.47720004199073,142.52205941698048,141.4483750416587,142.47649283299688,139.39111674996093,144.5653025000356,139.39111674996093,144.5653025000356,144.60565987497102,145.28555641695857,139.39111674996093,1,1,1.2950760419480503,reldom2_s032,001,2025-03-12_15h21.15.702,What-A-Scan_AC,2022.2.5,None,
8,First_Order,2.0,audwhat,stimulus/audwhat_stim/dummy.wav,stimulus/audwhat_stim/dummy.wav,stimulus/audwhat_stim/string cello_low-pitch_Dtri_loud.wav,stimulus/audwhat_stim/percussion mallet_low-pitch_Dtri_loud.wav,stimulus/audwhat_stim/blank_white.png,stimulus/audwhat_stim/category_box.png,stimulus/audwhat_stim/category_yes.png,stimulus/audwhat_stim/category_no.png,None,Category,None,Pitch,2,0.0,0,5.125,0,5.125,0,5.125,0,0.0,0.625,0,0.0,0,0.0,0,0.0,0,0.0,0,0.0,0,0.0,1,0.5,1,2.125,0,,,,,0,10,10,10,,,,,,,,,145.4971492079785,145.4971492079785,145.4971492079785,145.4971492079785,145.4971492079785,145.4971492079785,145.4971492079785,145.4971492079785,145.41888975029192,145.4971492079785,145.4971492079785,145.4971492079785,145.41888975029192,145.4971492079785,145.4971492079785,145.4971492079785,147.60180233302526,,145.4971492079785,145.4971492079785,150.66609166702256,145.4971492079785,145.4971492079785,145.4971492079785,145.4971492079785,145.9540599170141,147.00647054205183,145.92474591668386,,147.60180233302526,148.65127470798325,147.57224474969942,,145.4971492079785,150.66609166702256,145.4971492079785,150.66609166702256,150.7061879580142,151.39315837505274,145.4971492079785,1,0,1.3968836249550804,reldom2_s032,001,2025-03-12_15h21.15.702,What-A-Scan_AC,2022.2.5,None,
9,First_Order,2.0,audwhat,stimulus/audwhat_stim/dummy.wav,stimulus/audwhat_stim/dummy.wav,stimulus/audwhat_stim/string cello_high-pitch_F_loud.wav,stimulus/audwhat_stim/percussion mallet_high-pitch_F_loud.wav,stimulus/audwhat_stim/blank_white.png,stimulus/audwhat_stim/pitch_box.png,stimulus/audwhat_stim/pitch_yes.png,stimulus/audwhat_stim/pitch_no.png,None,Pitch,None,Pitch,1,0.0,0,5.125,0,5.125,0,5.125,0,0.0,0.625,0,0.0,0,0.0,0,0.0,0,0.0,0,0.0,0,0.0,1,0.5,1,2.125,0,,,,,0,11,11,11,,,,,,,,,151.60454812494572,151.60454812494572,151.60454812494572,151.60454812494572,151.60454812494572,151.60454812494572,151.60454812494572,151.60454812494572,151.5264917083861,151.60454812494572,151.60454812494572,151.60454812494572,151.5264917083861,151.60454812494572,151.60454812494572,151.60454812494572,153.70684958295897,,151.60454812494572,151.60454812494572,156.77059083303902,151.60454812494572,151.60454812494572,151.60454812494572,151.60454812494572,152.0605884999968,153.1106555419974,152.03097504162386,,153.70684958295897,154.75833812495694,153.6774002916102,,151.60454812494572,156.77059083303902,151.60454812494572,156.77059083303902,156.81078829197213,157.49711350002326,151.60454812494572,2,0,1.6663227078970522,reldom2_s032,001,2025-03-12_15h21.15.702,What-A-Scan_AC,2022.2.5,None,
10,First_Order,2.0,audwhat,stimulus/audwhat_stim/dummy.wav,stimulus/audwhat_stim/dummy.wav,stimulus/audwhat_stim/percussion xylophone_high-pitch_D_loud.wav,stimulus/audwhat_stim/string cello_high-pitch_D_loud.wav,stimulus/audwhat_stim/blank_white.png,stimulus/audwhat_stim/category_box.png,stimulus/audwhat_stim/category_yes.png,stimulus/audwhat_stim/category_no.png,None,Category,None,Pitch,2,0.0,0,5.125,0,5.125,0,5.125,0,0.0,0.625,0,0.0,0,0.0,0,0.0,0,0.0,0,0.0,0,0.0,1,0.5,1,2.125,0,,,,,0,12,12,12,,,,,,,,,157.70956858294085,157.70956858294085,157.70956858294085,157.70956858294085,157.70956858294085,157.70956858294085,157.70956858294085,157.70956858294085,157.63044683335661,157.70956858294085,157.70956858294085,157.70956858294085,157.63044683335661,157.70956858294085,157.70956858294085,157.70956858294085,159.82388154196087,,157.70956858294085,157.70956858294085,162.85829333297443,157.70956858294085,157.70956858294085,157.70956858294085,157.70956858294085,158.16713433305267,159.22432583302725,158.1376598337122,159.17839762498625,159.82388154196087,160.8817052920349,159.79454699968144,,157.70956858294085,162.85829333297443,157.70956858294085,162.85829333297443,162.89872266701423,163.5484119169414,157.70956858294085,2,1,1.4733453739900142,reldom2_s032,001,2025-03-12_15h21.15.702,What-A-Scan_AC,2022.2.5,None,
0,0.0,None,fixation,stimulus/audwhat_stim/blank_white.png,stimulus/audwhat_stim/blank_white.png,stimulus/viswhat_stim/blank_white.png,stimulus/viswhat_stim/blank_white.png,stimulus/audwhat_stim/blank_white.png,stimulus/audwhat_stim/blank_white.png,stimulus/audwhat_stim/blank_white.png,stimulus/audwhat_stim/blank_white.png,0.0,0.0,0.0,0.0,0,0.0,0,0.0,0,0.0,0,0.0,0,0.0,0.0,0,0.0,0,0.0,0,0.0,0,0.0,0,0.0,0,0.0,0,0.0,0,0.0,10,,,,,0,13,13,13,,,,,,,,,163.81803345796652,163.81803345796652,163.81803345796652,163.81803345796652,163.81803345796652,163.81803345796652,163.81803345796652,163.81803345796652,163.72232629129044,163.81803345796652,163.81803345796652,163.81803345796652,163.72232629129044,163.81803345796652,163.81803345796652,163.81803345796652,163.81803345796652,163.81803345796652,163.81803345796652,163.81803345796652,163.81803345796652,163.81803345796652,163.81803345796652,163.81803345796652,163.81803345796652,163.81803345796652,163.81803345796652,163.77232629129043,163.81803345796652,163.81803345796652,163.81803345796652,163.77232629129043,163.81803345796652,163.81803345796652,163.81803345796652,163.81803345796652,163.81803345796652,169.00568733294494,169.00568733294494,173.97936054202728,None,0,,reldom2_s032,001,2025-03-12_15h21.15.702,What-A-Scan_AC,2022.2.5,None,
11,Second_Order,2.0,audwhat,stimulus/audwhat_stim/string viola_high-pitch_D_loud.wav,stimulus/audwhat_stim/percussion xylophone_high-pitch_D_loud.wav,stimulus/audwhat_stim/percussion mallet_low-pitch_F_loud.wav,stimulus/audwhat_stim/string viola_low-pitch_F_loud.wav,stimulus/audwhat_stim/match_blank.png,stimulus/audwhat_stim/match_box.png,stimulus/audwhat_stim/match_yes.png,stimulus/audwhat_stim/match_no.png,1.0,Match,Pitch,Pitch,1,5.125,0,5.125,0,5.125,0,5.125,0,0.75,0.75,0,0.0,0,0.0,0,0.0,0,0.0,1,0.5,1,2.125,1,0.5,1,2.125,0,,,,,0,14,14,14,,,,,,,,,173.97936054202728,179.0958211249672,173.97936054202728,173.97936054202728,173.97936054202728,173.97936054202728,174.43251745798625,175.41927220800426,174.4465825416303,,176.05551595799625,177.0529169170186,176.0678682916953,177.05630316701718,179.0958211249672,179.9449783329619,181.99847995804157,,179.9449783329619,179.9449783329619,185.11485241702758,179.9449783329619,179.9449783329619,179.9449783329619,179.9449783329619,180.40088683296926,181.44943187502213,180.3717579167026,,181.99847995804157,183.05090783303604,181.96914349968236,,179.9449783329619,185.11485241702758,179.9449783329619,185.11485241702758,185.11485241702758,,179.9449783329619,1,1,1.0996849170187488,reldom2_s032,001,2025-03-12_15h21.15.702,What-A-Scan_AC,2022.2.5,None,
12,Second_Order,2.0,audwhat,stimulus/audwhat_stim/percussion mallet_high-pitch_Dtri_loud.wav,stimulus/audwhat_stim/string viola_high-pitch_Dtri_loud.wav,stimulus/audwhat_stim/string viola_low-pitch_Dtri_loud.wav,stimulus/audwhat_stim/percussion mallet_low-pitch_Dtri_loud.wav,stimulus/audwhat_stim/match_blank.png,stimulus/audwhat_stim/match_box.png,stimulus/audwhat_stim/match_yes.png,stimulus/audwhat_stim/match_no.png,1.0,Match,Pitch,Pitch,1,5.125,0,5.125,0,5.125,0,5.125,0,0.625,0.625,0,0.0,0,0.0,0,0.0,0,0.0,1,0.5,1,2.125,1,0.5,1,2.125,0,,,,,0,15,15,15,,,,,,,,,185.91641991701908,191.04002545797266,185.91641991701908,185.91641991701908,185.91641991701908,185.91641991701908,186.3784145419486,187.37644424999598,186.39132983371772,,187.9990638749441,188.99747666704934,188.01121541666024,,191.04002545797266,191.77304004202597,193.81522458302788,197.87321045796853,191.77304004202597,191.77304004202597,196.95951458299533,191.77304004202597,191.77304004202597,191.77304004202597,191.77304004202597,192.2242154580308,193.27193149994127,192.19531070866313,,193.81522458302788,194.8649840420112,193.7864625416153,,191.77304004202597,196.95951458299533,191.77304004202597,196.95951458299533,196.95951458299533,197.64310979202855,191.77304004202597,1,1,1.376426083035767,reldom2_s032,001,2025-03-12_15h21.15.702,What-A-Scan_AC,2022.2.5,None,
0,0.0,None,fixation,stimulus/audwhat_stim/blank_white.png,stimulus/audwhat_stim/blank_white.png,stimulus/viswhat_stim/blank_white.png,stimulus/viswhat_stim/blank_white.png,stimulus/audwhat_stim/blank_white.png,stimulus/audwhat_stim/blank_white.png,stimulus/audwhat_stim/blank_white.png,stimulus/audwhat_stim/blank_white.png,0.0,0.0,0.0,0.0,0,0.0,0,0.0,0,0.0,0,0.0,0,0.0,0.0,0,0.0,0,0.0,0,0.0,0,0.0,0,0.0,0,0.0,0,0.0,0,0.0,8,,,,,0,16,16,16,,,,,,,,,197.87321045796853,197.87321045796853,197.87321045796853,197.87321045796853,197.87321045796853,197.87321045796853,197.87321045796853,197.87321045796853,197.7764431253619,197.87321045796853,197.87321045796853,197.87321045796853,197.7764431253619,197.87321045796853,197.87321045796853,197.87321045796853,197.87321045796853,197.87321045796853,197.87321045796853,197.87321045796853,197.87321045796853,197.87321045796853,197.87321045796853,197.87321045796853,197.87321045796853,197.87321045796853,197.87321045796853,197.8264431253619,197.87321045796853,197.87321045796853,197.87321045796853,197.8264431253619,197.87321045796853,197.87321045796853,197.87321045796853,197.87321045796853,197.87321045796853,203.0669095000485,203.0669095000485,206.21907841705251,None,0,,reldom2_s032,001,2025-03-12_15h21.15.702,What-A-Scan_AC,2022.2.5,None,
13,First_Order,3.0,viswhat,stimulus/viswhat_stim/blank_white.png,stimulus/viswhat_stim/blank_white.png,stimulus/viswhat_stim/water_vehicle-cruiseship.png,stimulus/viswhat_stim/land_vehicle-pickuptruck.png,stimulus/viswhat_stim/blank_white.png,stimulus/viswhat_stim/type_box.png,stimulus/viswhat_stim/type_yes.png,stimulus/viswhat_stim/type_no.png,None,Type,None,Type,1,0.0,0,5.125,0,5.125,0,5.125,0,0.0,0.625,0,0.0,0,0.0,1,0.5,1,2.125,0,0.0,0,0.0,0,0.0,0,0.0,0,,,,,0,17,17,17,,,,,,,,,206.21907841705251,206.21907841705251,206.21907841705251,206.21907841705251,206.21907841705251,206.21907841705251,206.21907841705251,206.21907841705251,206.02612833368283,206.21907841705251,206.21907841705251,206.21907841705251,206.02612833368283,206.21907841705251,206.21907841705251,206.21907841705251,208.24218229204416,,206.21907841705251,206.21907841705251,211.42079970799387,206.6050142919412,207.76162266696338,208.24218229204416,209.398464292055,206.21907841705251,206.21907841705251,206.12612833368283,206.21907841705251,206.21907841705251,206.21907841705251,206.12612833368283,206.21907841705251,206.21907841705251,211.42079970799387,206.21907841705251,211.42079970799387,211.42079970799387,,206.21907841705251,1,1,2.170453832950443,reldom2_s032,001,2025-03-12_15h21.15.702,What-A-Scan_AC,2022.2.5,None,
14,First_Order,3.0,viswhat,stimulus/viswhat_stim/blank_white.png,stimulus/viswhat_stim/blank_white.png,stimulus/viswhat_stim/water_animal-lobster.png,stimulus/viswhat_stim/water_vehicle-cruiseship.png,stimulus/viswhat_stim/blank_white.png,stimulus/viswhat_stim/location_box.png,stimulus/viswhat_stim/location_yes.png,stimulus/viswhat_stim/location_no.png,None,Location,None,Location,1,0.0,0,5.125,0,5.125,0,5.125,0,0.0,0.625,0,0.0,0,0.0,1,0.5,1,2.125,0,0.0,0,0.0,0,0.0,0,0.0,0,,,,,0,18,18,18,,,,,,,,,212.6435145420255,212.6435145420255,212.6435145420255,212.6435145420255,212.6435145420255,212.6435145420255,212.6435145420255,212.6435145420255,212.1990797502765,212.6435145420255,212.6435145420255,212.6435145420255,212.1990797502765,212.6435145420255,212.6435145420255,212.6435145420255,214.62872162496205,,212.6435145420255,212.6435145420255,218.15843425004277,213.08568833302706,214.4083794170292,214.62872162496205,215.95418966701254,212.6435145420255,212.6435145420255,212.41574641694316,212.6435145420255,212.6435145420255,212.6435145420255,212.41574641694316,212.6435145420255,212.6435145420255,218.15843425004277,212.6435145420255,218.15843425004277,217.72429104195908,,212.6435145420255,1,1,1.4364633329678327,reldom2_s032,001,2025-03-12_15h21.15.702,What-A-Scan_AC,2022.2.5,None,
15,First_Order,3.0,viswhat,stimulus/viswhat_stim/blank_white.png,stimulus/viswhat_stim/blank_white.png,stimulus/viswhat_stim/water_vehicle-cruiseship.png,stimulus/viswhat_stim/land_vehicle-bus.png,stimulus/viswhat_stim/blank_white.png,stimulus/viswhat_stim/location_box.png,stimulus/viswhat_stim/location_yes.png,stimulus/viswhat_stim/location_no.png,None,Location,None,Type,2,0.0,0,5.125,0,5.125,0,5.125,0,0.0,0.625,0,0.0,0,0.0,1,0.5,1,2.125,0,0.0,0,0.0,0,0.0,0,0.0,0,,,,,0,19,19,19,,,,,,,,,218.83834254194517,218.83834254194517,218.83834254194517,218.83834254194517,218.83834254194517,218.83834254194517,218.83834254194517,218.83834254194517,218.64176758337612,218.83834254194517,218.83834254194517,218.83834254194517,218.64176758337612,218.83834254194517,218.83834254194517,218.83834254194517,220.8596932500368,,218.83834254194517,218.83834254194517,224.08834395802114,219.2427299170522,220.35577987495344,220.8596932500368,221.97048629203346,218.83834254194517,218.83834254194517,218.74176758337612,218.83834254194517,218.83834254194517,218.83834254194517,218.74176758337612,218.83834254194517,218.83834254194517,224.08834395802114,218.83834254194517,224.08834395802114,223.992718124995,,218.83834254194517,2,1,2.301546165952459,reldom2_s032,001,2025-03-12_15h21.15.702,What-A-Scan_AC,2022.2.5,None,
16,First_Order,3.0,viswhat,stimulus/viswhat_stim/blank_white.png,stimulus/viswhat_stim/blank_white.png,stimulus/viswhat_stim/land_vehicle-oldcar.png,stimulus/viswhat_stim/water_vehicle-pirateship.png,stimulus/viswhat_stim/blank_white.png,stimulus/viswhat_stim/type_box.png,stimulus/viswhat_stim/type_yes.png,stimulus/viswhat_stim/type_no.png,None,Type,None,Type,1,0.0,0,5.125,0,5.125,0,5.125,0,0.0,0.625,0,0.0,0,0.0,1,0.5,1,2.125,0,0.0,0,0.0,0,0.0,0,0.0,0,,,,,0,20,20,20,,,,,,,,,224.88183870795183,224.88183870795183,224.88183870795183,224.88183870795183,224.88183870795183,224.88183870795183,224.88183870795183,224.88183870795183,224.81311487499624,224.88183870795183,224.88183870795183,224.88183870795183,224.81311487499624,224.88183870795183,224.88183870795183,224.88183870795183,226.98215858300682,,224.88183870795183,224.88183870795183,230.02842854196206,225.35362962505314,226.3831412079744,226.98215858300682,228.01708895794582,224.88183870795183,224.88183870795183,224.8464482083296,224.88183870795183,224.88183870795183,224.88183870795183,224.8464482083296,224.88183870795183,224.88183870795183,230.02842854196206,224.88183870795183,230.02842854196206,230.10302383301314,230.7734798330348,224.88183870795183,1,1,1.861176999984309,reldom2_s032,001,2025-03-12_15h21.15.702,What-A-Scan_AC,2022.2.5,None,
0,0.0,None,fixation,stimulus/audwhat_stim/blank_white.png,stimulus/audwhat_stim/blank_white.png,stimulus/viswhat_stim/blank_white.png,stimulus/viswhat_stim/blank_white.png,stimulus/audwhat_stim/blank_white.png,stimulus/audwhat_stim/blank_white.png,stimulus/audwhat_stim/blank_white.png,stimulus/audwhat_stim/blank_white.png,0.0,0.0,0.0,0.0,0,0.0,0,0.0,0,0.0,0,0.0,0,0.0,0.0,0,0.0,0,0.0,0,0.0,0,0.0,0,0.0,0,0.0,0,0.0,0,0.0,9,,,,,0,21,21,21,,,,,,,,,231.00180616695434,231.00180616695434,231.00180616695434,231.00180616695434,231.00180616695434,231.00180616695434,231.00180616695434,231.00180616695434,230.90681316636815,231.00180616695434,231.00180616695434,231.00180616695434,230.90681316636815,231.00180616695434,231.00180616695434,231.00180616695434,231.00180616695434,231.00180616695434,231.00180616695434,231.00180616695434,231.00180616695434,231.00180616695434,231.00180616695434,231.00180616695434,231.00180616695434,231.00180616695434,231.00180616695434,230.95681316636814,231.00180616695434,231.00180616695434,231.00180616695434,230.95681316636814,231.00180616695434,231.00180616695434,231.00180616695434,231.00180616695434,231.00180616695434,236.22602895798627,236.22602895798627,240.1564599579433,None,0,,reldom2_s032,001,2025-03-12_15h21.15.702,What-A-Scan_AC,2022.2.5,None,
17,Second_Order,3.0,viswhat,stimulus/viswhat_stim/water_animal-shark.png,stimulus/viswhat_stim/water_vehicle-pirateship.png,stimulus/viswhat_stim/water_animal-squid.png,stimulus/viswhat_stim/land_animal-elephant.png,stimulus/audwhat_stim/match_blank.png,stimulus/audwhat_stim/match_box.png,stimulus/audwhat_stim/match_yes.png,stimulus/audwhat_stim/match_no.png,2.0,Match,Location,Type,2,5.125,0,5.125,0,5.125,0,5.125,0,0.75,0.75,1,0.5,1,2.125,1,0.5,1,2.125,0,0.0,0,0.0,0,0.0,0,0.0,0,,,,,0,22,22,22,,,,,,,,,240.1564599579433,245.2773969579721,240.6186088329414,241.60511320794467,242.2418375420384,243.2402546670055,240.1564599579433,240.1564599579433,240.16681325002574,240.1564599579433,240.1564599579433,240.1564599579433,240.16681325002574,240.1564599579433,245.2773969579721,246.1703467919724,248.23329170804936,,246.1703467919724,246.1703467919724,251.36520587501582,246.5676348330453,247.63428291701712,248.23329170804936,249.30222487496212,246.1703467919724,246.1703467919724,246.1121380829951,246.1703467919724,246.1703467919724,246.1703467919724,246.1121380829951,246.1703467919724,246.1703467919724,251.36520587501582,246.1703467919724,251.36520587501582,251.36520587501582,,246.1703467919724,2,1,1.6803402908844873,reldom2_s032,001,2025-03-12_15h21.15.702,What-A-Scan_AC,2022.2.5,None,
18,Second_Order,3.0,viswhat,stimulus/viswhat_stim/land_vehicle-pickuptruck.png,stimulus/viswhat_stim/water_vehicle-pirateship.png,stimulus/viswhat_stim/water_animal-jellyfish.png,stimulus/viswhat_stim/land_animal-snake.png,stimulus/audwhat_stim/match_blank.png,stimulus/audwhat_stim/match_box.png,stimulus/audwhat_stim/match_yes.png,stimulus/audwhat_stim/match_no.png,1.0,Match,Type,Type,1,5.125,0,5.125,0,5.125,0,5.125,0,0.625,0.625,1,0.5,1,2.125,1,0.5,1,2.125,0,0.0,0,0.0,0,0.0,0,0.0,0,,,,,0,23,23,23,,,,,,,,,252.11232654203195,257.22640812501777,252.59363891696557,253.58382299996447,254.21856395795476,255.2167908330448,252.11232654203195,252.11232654203195,252.12475654201117,252.11232654203195,252.11232654203195,252.11232654203195,252.12475654201117,252.11232654203195,257.22640812501777,257.91866758302785,260.0022792919772,,257.91866758302785,257.91866758302785,263.0533679999644,258.356704832986,259.3725119170267,260.0022792919772,261.0218340420397,257.91866758302785,257.91866758302785,257.88982545800974,257.91866758302785,257.91866758302785,257.91866758302785,257.88982545800974,257.91866758302785,257.91866758302785,263.0533679999644,257.91866758302785,263.0533679999644,263.09763583296444,263.73441362497397,257.91866758302785,1,1,0.6720294158440083,reldom2_s032,001,2025-03-12_15h21.15.702,What-A-Scan_AC,2022.2.5,None,
0,0.0,None,fixation,stimulus/audwhat_stim/blank_white.png,stimulus/audwhat_stim/blank_white.png,stimulus/viswhat_stim/blank_white.png,stimulus/viswhat_stim/blank_white.png,stimulus/audwhat_stim/blank_white.png,stimulus/audwhat_stim/blank_white.png,stimulus/audwhat_stim/blank_white.png,stimulus/audwhat_stim/blank_white.png,0.0,0.0,0.0,0.0,0,0.0,0,0.0,0,0.0,0,0.0,0,0.0,0.0,0,0.0,0,0.0,0,0.0,0,0.0,0,0.0,0,0.0,0,0.0,0,0.0,8,,,,,0,24,24,24,,,,,,,,,264.0194096249761,264.0194096249761,264.0194096249761,264.0194096249761,264.0194096249761,264.0194096249761,264.0194096249761,264.0194096249761,263.9213283750228,264.0194096249761,264.0194096249761,264.0194096249761,263.9213283750228,264.0194096249761,264.0194096249761,264.0194096249761,264.0194096249761,264.0194096249761,264.0194096249761,264.0194096249761,264.0194096249761,264.0194096249761,264.0194096249761,264.0194096249761,264.0194096249761,264.0194096249761,264.0194096249761,263.97132837502284,264.0194096249761,264.0194096249761,264.0194096249761,263.97132837502284,264.0194096249761,264.0194096249761,264.0194096249761,264.0194096249761,264.0194096249761,269.21405520802364,269.21405520802364,272.2367937079398,None,0,,reldom2_s032,001,2025-03-12_15h21.15.702,What-A-Scan_AC,2022.2.5,None,
19,First_Order,4.0,viswhat,stimulus/viswhat_stim/blank_white.png,stimulus/viswhat_stim/blank_white.png,stimulus/viswhat_stim/land_animal-wolf.png,stimulus/viswhat_stim/water_animal-squid.png,stimulus/viswhat_stim/blank_white.png,stimulus/viswhat_stim/location_box.png,stimulus/viswhat_stim/location_yes.png,stimulus/viswhat_stim/location_no.png,None,Location,None,Type,2,0.0,0,5.125,0,5.125,0,5.125,0,0.0,0.625,0,0.0,0,0.0,1,0.5,1,2.125,0,0.0,0,0.0,0,0.0,0,0.0,0,,,,,0,25,25,25,,,,,,,,,272.2367937079398,272.2367937079398,272.2367937079398,272.2367937079398,272.2367937079398,272.2367937079398,272.2367937079398,272.2367937079398,272.1943324586997,272.2367937079398,272.2367937079398,272.2367937079398,272.1943324586997,272.2367937079398,272.2367937079398,272.2367937079398,274.3356842499925,278.31977525004186,272.2367937079398,272.2367937079398,277.3847634580452,272.72314033296425,273.75954595801886,274.3356842499925,275.37768320797477,272.2367937079398,272.2367937079398,272.2109991253664,272.2367937079398,272.2367937079398,272.2367937079398,272.2109991253664,272.2367937079398,272.2367937079398,277.3847634580452,272.2367937079398,277.3847634580452,277.4594027920393,278.10178975004237,272.2367937079398,2,1,0.851644832873717,reldom2_s032,001,2025-03-12_15h21.15.702,What-A-Scan_AC,2022.2.5,None,
20,First_Order,4.0,viswhat,stimulus/viswhat_stim/blank_white.png,stimulus/viswhat_stim/blank_white.png,stimulus/viswhat_stim/water_animal-jellyfish.png,stimulus/viswhat_stim/water_vehicle-motorboatraft.png,stimulus/viswhat_stim/blank_white.png,stimulus/viswhat_stim/location_box.png,stimulus/viswhat_stim/location_yes.png,stimulus/viswhat_stim/location_no.png,None,Location,None,Location,1,0.0,0,5.125,0,5.125,0,5.125,0,0.0,0.625,0,0.0,0,0.0,1,0.5,1,2.125,0,0.0,0,0.0,0,0.0,0,0.0,0,,,,,0,26,26,26,,,,,,,,,278.31977525004186,278.31977525004186,278.31977525004186,278.31977525004186,278.31977525004186,278.31977525004186,278.31977525004186,278.31977525004186,278.2754698749864,278.31977525004186,278.31977525004186,278.31977525004186,278.2754698749864,278.31977525004186,278.31977525004186,278.31977525004186,280.41566195804626,284.4920605829684,278.31977525004186,278.31977525004186,283.4730342499679,278.78214858297724,279.8179237919394,280.41566195804626,281.42948812502436,278.31977525004186,278.31977525004186,278.2921365416531,278.31977525004186,278.31977525004186,278.31977525004186,278.2921365416531,278.31977525004186,278.31977525004186,283.4730342499679,278.31977525004186,283.4730342499679,283.53797220799606,284.18272420798894,278.31977525004186,1,1,1.9081304159481078,reldom2_s032,001,2025-03-12_15h21.15.702,What-A-Scan_AC,2022.2.5,None,
21,First_Order,4.0,viswhat,stimulus/viswhat_stim/blank_white.png,stimulus/viswhat_stim/blank_white.png,stimulus/viswhat_stim/land_animal-elephant.png,stimulus/viswhat_stim/land_vehicle-buldozer.png,stimulus/viswhat_stim/blank_white.png,stimulus/viswhat_stim/type_box.png,stimulus/viswhat_stim/type_yes.png,stimulus/viswhat_stim/type_no.png,None,Type,None,Location,2,0.0,0,5.125,0,5.125,0,5.125,0,0.0,0.625,0,0.0,0,0.0,1,0.5,1,2.125,0,0.0,0,0.0,0,0.0,0,0.0,0,,,,,0,27,27,27,,,,,,,,,284.4920605829684,284.4920605829684,284.4920605829684,284.4920605829684,284.4920605829684,284.4920605829684,284.4920605829684,284.4920605829684,284.36919387502127,284.4920605829684,284.4920605829684,284.4920605829684,284.36919387502127,284.4920605829684,284.4920605829684,284.4920605829684,286.5777383330278,290.6098202499561,284.4920605829684,284.4920605829684,289.7046391669428,284.9780287919566,286.0922230830183,286.5777383330278,287.6953790419502,284.4920605829684,284.4920605829684,284.43586054168793,284.4920605829684,284.4920605829684,284.4920605829684,284.43586054168793,284.4920605829684,284.4920605829684,289.7046391669428,284.4920605829684,289.7046391669428,289.7046391669428,290.6098202499561,284.4920605829684,2,1,0.6414654998807237,reldom2_s032,001,2025-03-12_15h21.15.702,What-A-Scan_AC,2022.2.5,None,
22,First_Order,4.0,viswhat,stimulus/viswhat_stim/blank_white.png,stimulus/viswhat_stim/blank_white.png,stimulus/viswhat_stim/water_animal-shark.png,stimulus/viswhat_stim/water_vehicle-cabincruiser.png,stimulus/viswhat_stim/blank_white.png,stimulus/viswhat_stim/type_box.png,stimulus/viswhat_stim/type_yes.png,stimulus/viswhat_stim/type_no.png,None,Type,None,Location,2,0.0,0,5.125,0,5.125,0,5.125,0,0.0,0.625,0,0.0,0,0.0,1,0.5,1,2.125,0,0.0,0,0.0,0,0.0,0,0.0,0,,,,,0,28,28,28,,,,,,,,,290.6098202499561,290.6098202499561,290.6098202499561,290.6098202499561,290.6098202499561,290.6098202499561,290.6098202499561,290.6098202499561,290.52649325037686,290.6098202499561,290.6098202499561,290.6098202499561,290.52649325037686,290.6098202499561,290.6098202499561,290.6098202499561,292.70432654197793,296.7520244580228,290.6098202499561,290.6098202499561,295.80128000001423,291.08496341702994,292.13430379203055,292.70432654197793,293.7555837499676,290.6098202499561,290.6098202499561,290.5764932503768,290.6098202499561,290.6098202499561,290.6098202499561,290.5764932503768,290.6098202499561,290.6098202499561,295.80128000001423,290.6098202499561,295.80128000001423,295.80128000001423,296.4713962080423,290.6098202499561,2,1,1.0849649999290705,reldom2_s032,001,2025-03-12_15h21.15.702,What-A-Scan_AC,2022.2.5,None,
0,0.0,None,fixation,stimulus/audwhat_stim/blank_white.png,stimulus/audwhat_stim/blank_white.png,stimulus/viswhat_stim/blank_white.png,stimulus/viswhat_stim/blank_white.png,stimulus/audwhat_stim/blank_white.png,stimulus/audwhat_stim/blank_white.png,stimulus/audwhat_stim/blank_white.png,stimulus/audwhat_stim/blank_white.png,0.0,0.0,0.0,0.0,0,0.0,0,0.0,0,0.0,0,0.0,0,0.0,0.0,0,0.0,0,0.0,0,0.0,0,0.0,0,0.0,0,0.0,0,0.0,0,0.0,9,,,,,0,29,29,29,,,,,,,,,296.7520244580228,296.7520244580228,296.7520244580228,296.7520244580228,296.7520244580228,296.7520244580228,296.7520244580228,296.7520244580228,296.64661304131926,296.7520244580228,296.7520244580228,296.7520244580228,296.64661304131926,296.7520244580228,296.7520244580228,296.7520244580228,296.7520244580228,296.7520244580228,296.7520244580228,296.7520244580228,296.7520244580228,296.7520244580228,296.7520244580228,296.7520244580228,296.7520244580228,296.7520244580228,296.7520244580228,296.7132797079859,296.7520244580228,296.7520244580228,296.7520244580228,296.7132797079859,296.7520244580228,296.7520244580228,296.7520244580228,296.7520244580228,296.7520244580228,301.9419568750309,301.9419568750309,305.8729585829424,None,0,,reldom2_s032,001,2025-03-12_15h21.15.702,What-A-Scan_AC,2022.2.5,None,
23,Second_Order,4.0,viswhat,stimulus/viswhat_stim/water_vehicle-canoe(1).png,stimulus/viswhat_stim/land_vehicle-vespa.png,stimulus/viswhat_stim/land_animal-dog.png,stimulus/viswhat_stim/water_animal-jellyfish.png,stimulus/audwhat_stim/match_blank.png,stimulus/audwhat_stim/match_box.png,stimulus/audwhat_stim/match_yes.png,stimulus/audwhat_stim/match_no.png,1.0,Match,Type,Type,1,5.125,0,5.125,0,5.125,0,5.125,0,0.75,0.75,1,0.5,1,2.125,1,0.5,1,2.125,0,0.0,0,0.0,0,0.0,0,0.0,0,,,,,0,30,30,30,,,,,,,,,305.8729585829424,310.9957044579787,306.33821337495465,307.32462874997873,307.95995566702913,308.9581986250123,305.8729585829424,305.8729585829424,305.8716866253254,305.8729585829424,305.8729585829424,305.8729585829424,305.8716866253254,305.8729585829424,310.9957044579787,311.810876042,313.89394266705494,317.7866179579869,311.810876042,311.810876042,316.9477671670029,312.26781287498306,313.29658029205166,313.89394266705494,314.9246615830343,311.810876042,311.810876042,311.78087658302394,311.810876042,311.810876042,311.810876042,311.78087658302394,311.810876042,311.810876042,316.9477671670029,311.810876042,316.9477671670029,316.993924499955,317.7866179579869,311.810876042,1,1,0.5526421249378473,reldom2_s032,001,2025-03-12_15h21.15.702,What-A-Scan_AC,2022.2.5,None,
24,Second_Order,4.0,viswhat,stimulus/viswhat_stim/land_vehicle-tank.png,stimulus/viswhat_stim/water_vehicle-canoe(1).png,stimulus/viswhat_stim/water_animal-orka.png,stimulus/viswhat_stim/water_vehicle-cabincruiser.png,stimulus/audwhat_stim/match_blank.png,stimulus/audwhat_stim/match_box.png,stimulus/audwhat_stim/match_yes.png,stimulus/audwhat_stim/match_no.png,2.0,Match,Type,Location,2,5.125,0,5.125,0,5.125,0,5.125,0,0.625,0.625,1,0.5,1,2.125,1,0.5,1,2.125,0,0.0,0,0.0,0,0.0,0,0.0,0,,,,,0,31,31,31,,,,,,,,,317.7866179579869,322.91296083305497,318.265409582993,319.2516324169701,319.88729708304163,320.8863202499924,317.7866179579869,317.7866179579869,317.79571070861226,317.7866179579869,317.7866179579869,317.7866179579869,317.79571070861226,317.7866179579869,322.91296083305497,323.7043695000466,325.7147199170431,,323.7043695000466,323.7043695000466,328.95699199999217,324.0891977499705,325.1723620829871,325.7147199170431,326.7975355000235,323.7043695000466,323.7043695000466,323.6413622916133,323.7043695000466,323.7043695000466,323.7043695000466,323.6413622916133,323.7043695000466,323.7043695000466,328.95699199999217,323.7043695000466,328.95699199999217,328.8850412919419,,323.7043695000466,2,1,0.6620643329806626,reldom2_s032,001,2025-03-12_15h21.15.702,What-A-Scan_AC,2022.2.5,None,
0,0.0,None,fixation,stimulus/audwhat_stim/blank_white.png,stimulus/audwhat_stim/blank_white.png,stimulus/viswhat_stim/blank_white.png,stimulus/viswhat_stim/blank_white.png,stimulus/audwhat_stim/blank_white.png,stimulus/audwhat_stim/blank_white.png,stimulus/audwhat_stim/blank_white.png,stimulus/audwhat_stim/blank_white.png,0.0,0.0,0.0,0.0,0,0.0,0,0.0,0,0.0,0,0.0,0,0.0,0.0,0,0.0,0,0.0,0,0.0,0,0.0,0,0.0,0,0.0,0,0.0,0,0.0,9,,,,,0,32,32,32,,,,,,,,,329.75948129198514,329.75948129198514,329.75948129198514,329.75948129198514,329.75948129198514,329.75948129198514,329.75948129198514,329.75948129198514,329.65892024994827,329.75948129198514,329.75948129198514,329.75948129198514,329.65892024994827,329.75948129198514,329.75948129198514,329.75948129198514,329.75948129198514,329.75948129198514,329.75948129198514,329.75948129198514,329.75948129198514,329.75948129198514,329.75948129198514,329.75948129198514,329.75948129198514,329.75948129198514,329.75948129198514,329.7089202499483,329.75948129198514,329.75948129198514,329.75948129198514,329.7089202499483,329.75948129198514,329.75948129198514,329.75948129198514,329.75948129198514,329.75948129198514,334.97329987504054,334.97329987504054,338.99439033295494,None,0,,reldom2_s032,001,2025-03-12_15h21.15.702,What-A-Scan_AC,2022.2.5,None,
25,First_Order,5.0,audwhat,stimulus/audwhat_stim/dummy.wav,stimulus/audwhat_stim/dummy.wav,stimulus/audwhat_stim/string cello_low-pitch_Dtri_loud.wav,stimulus/audwhat_stim/percussion mallet_low-pitch_Dtri_loud.wav,stimulus/audwhat_stim/blank_white.png,stimulus/audwhat_stim/pitch_box.png,stimulus/audwhat_stim/pitch_yes.png,stimulus/audwhat_stim/pitch_no.png,None,Pitch,None,Pitch,1,0.0,0,5.125,0,5.125,0,5.125,0,0.0,0.625,0,0.0,0,0.0,0,0.0,0,0.0,0,0.0,0,0.0,1,0.5,1,2.125,0,,,,,0,33,33,33,,,,,,,,,338.99439033295494,338.99439033295494,338.99439033295494,338.99439033295494,338.99439033295494,338.99439033295494,338.99439033295494,338.99439033295494,338.92132579166594,338.99439033295494,338.99439033295494,338.99439033295494,338.92132579166594,338.99439033295494,338.99439033295494,338.99439033295494,341.0784916250268,,338.99439033295494,338.99439033295494,344.1813175829593,338.99439033295494,338.99439033295494,338.99439033295494,338.99439033295494,339.45947858295403,340.5234816670418,339.4299416666074,,341.0784916250268,342.1463999579428,341.0485885836572,,338.99439033295494,344.1813175829593,338.99439033295494,344.1813175829593,344.222825792036,344.8781562920194,338.99439033295494,1,1,1.4048915829043835,reldom2_s032,001,2025-03-12_15h21.15.702,What-A-Scan_AC,2022.2.5,None,
26,First_Order,5.0,audwhat,stimulus/audwhat_stim/dummy.wav,stimulus/audwhat_stim/dummy.wav,stimulus/audwhat_stim/string cello_low-pitch_F_loud.wav,stimulus/audwhat_stim/percussion mallet_low-pitch_F_loud.wav,stimulus/audwhat_stim/blank_white.png,stimulus/audwhat_stim/pitch_box.png,stimulus/audwhat_stim/pitch_yes.png,stimulus/audwhat_stim/pitch_no.png,None,Pitch,None,Pitch,1,0.0,0,5.125,0,5.125,0,5.125,0,0.0,0.625,0,0.0,0,0.0,0,0.0,0,0.0,0,0.0,0,0.0,1,0.5,1,2.125,0,,,,,0,34,34,34,,,,,,,,,345.0911619999679,345.0911619999679,345.0911619999679,345.0911619999679,345.0911619999679,345.0911619999679,345.0911619999679,345.0911619999679,345.01148962535274,345.0911619999679,345.0911619999679,345.0911619999679,345.01148962535274,345.0911619999679,345.0911619999679,345.0911619999679,347.17839516699314,,345.0911619999679,345.0911619999679,350.2405941670295,345.0911619999679,345.0911619999679,345.0911619999679,345.0911619999679,345.5557976249838,346.62246854195837,345.5259311246375,,347.17839516699314,348.24663145805243,347.14838124969197,,345.0911619999679,350.2405941670295,345.0911619999679,350.2405941670295,350.28163291700184,350.9350837080274,345.0911619999679,1,1,1.0789584160083905,reldom2_s032,001,2025-03-12_15h21.15.702,What-A-Scan_AC,2022.2.5,None,
27,First_Order,5.0,audwhat,stimulus/audwhat_stim/dummy.wav,stimulus/audwhat_stim/dummy.wav,stimulus/audwhat_stim/string cello_high-pitch_D_loud.wav,stimulus/audwhat_stim/percussion mallet_high-pitch_D_loud.wav,stimulus/audwhat_stim/blank_white.png,stimulus/audwhat_stim/category_box.png,stimulus/audwhat_stim/category_yes.png,stimulus/audwhat_stim/category_no.png,None,Category,None,Pitch,2,0.0,0,5.125,0,5.125,0,5.125,0,0.0,0.625,0,0.0,0,0.0,0,0.0,0,0.0,0,0.0,0,0.0,1,0.5,1,2.125,0,,,,,0,35,35,35,,,,,,,,,351.19109916698653,351.19109916698653,351.19109916698653,351.19109916698653,351.19109916698653,351.19109916698653,351.19109916698653,351.19109916698653,351.1084227502889,351.19109916698653,351.19109916698653,351.19109916698653,351.1084227502889,351.19109916698653,351.19109916698653,351.19109916698653,353.2898631669814,357.3155658750329,351.19109916698653,351.19109916698653,356.3628609579755,351.19109916698653,351.19109916698653,351.19109916698653,351.19109916698653,351.6596282919636,352.7301563329529,351.62977741664895,,353.2898631669814,354.3194010000443,353.25861237472077,,351.19109916698653,356.3628609579755,351.19109916698653,356.3628609579755,356.40378666704055,357.05829187494237,351.19109916698653,2,1,0.9463372079189867,reldom2_s032,001,2025-03-12_15h21.15.702,What-A-Scan_AC,2022.2.5,None,
28,First_Order,5.0,audwhat,stimulus/audwhat_stim/dummy.wav,stimulus/audwhat_stim/dummy.wav,stimulus/audwhat_stim/percussion mallet_low-pitch_Ftri_loud.wav,stimulus/audwhat_stim/percussion mallet_high-pitch_F_loud.wav,stimulus/audwhat_stim/blank_white.png,stimulus/audwhat_stim/category_box.png,stimulus/audwhat_stim/category_yes.png,stimulus/audwhat_stim/category_no.png,None,Category,None,Category,1,0.0,0,5.125,0,5.125,0,5.125,0,0.0,0.625,0,0.0,0,0.0,0,0.0,0,0.0,0,0.0,0,0.0,1,0.5,1,2.125,0,,,,,0,36,36,36,,,,,,,,,357.3155658750329,357.3155658750329,357.3155658750329,357.3155658750329,357.3155658750329,357.3155658750329,357.3155658750329,357.3155658750329,357.23271795831,357.3155658750329,357.3155658750329,357.3155658750329,357.23271795831,357.3155658750329,357.3155658750329,357.3155658750329,359.4105640830239,,357.3155658750329,357.3155658750329,362.49337679194286,357.3155658750329,357.3155658750329,357.3155658750329,357.3155658750329,357.7800935419509,358.84986991703045,357.7502154586293,,359.4105640830239,360.4435042080004,359.38057041663365,,357.3155658750329,362.49337679194286,357.3155658750329,362.49337679194286,362.53468404198065,363.19167791702785,357.3155658750329,1,1,0.7758992499439046,reldom2_s032,001,2025-03-12_15h21.15.702,What-A-Scan_AC,2022.2.5,None,
0,0.0,None,fixation,stimulus/audwhat_stim/blank_white.png,stimulus/audwhat_stim/blank_white.png,stimulus/viswhat_stim/blank_white.png,stimulus/viswhat_stim/blank_white.png,stimulus/audwhat_stim/blank_white.png,stimulus/audwhat_stim/blank_white.png,stimulus/audwhat_stim/blank_white.png,stimulus/audwhat_stim/blank_white.png,0.0,0.0,0.0,0.0,0,0.0,0,0.0,0,0.0,0,0.0,0,0.0,0.0,0,0.0,0,0.0,0,0.0,0,0.0,0,0.0,0,0.0,0,0.0,0,0.0,8,,,,,0,37,37,37,,,,,,,,,363.4274954580469,363.4274954580469,363.4274954580469,363.4274954580469,363.4274954580469,363.4274954580469,363.4274954580469,363.4274954580469,363.3250112503612,363.4274954580469,363.4274954580469,363.4274954580469,363.3250112503612,363.4274954580469,363.4274954580469,363.4274954580469,363.4274954580469,363.4274954580469,363.4274954580469,363.4274954580469,363.4274954580469,363.4274954580469,363.4274954580469,363.4274954580469,363.4274954580469,363.4274954580469,363.4274954580469,363.3750112503612,363.4274954580469,363.4274954580469,363.4274954580469,363.3750112503612,363.4274954580469,363.4274954580469,363.4274954580469,363.4274954580469,363.4274954580469,368.63797020795755,368.63797020795755,371.5759321670048,None,0,,reldom2_s032,001,2025-03-12_15h21.15.702,What-A-Scan_AC,2022.2.5,None,
29,Second_Order,5.0,audwhat,stimulus/audwhat_stim/percussion xylophone_high-pitch_Dtri_loud.wav,stimulus/audwhat_stim/percussion mallet_low-pitch_Ftri_loud.wav,stimulus/audwhat_stim/string viola_high-pitch_Ftri_loud.wav,stimulus/audwhat_stim/string viola_low-pitch_Dtri_loud.wav,stimulus/audwhat_stim/match_blank.png,stimulus/audwhat_stim/match_box.png,stimulus/audwhat_stim/match_yes.png,stimulus/audwhat_stim/match_no.png,1.0,Match,Category,Category,1,5.125,0,5.125,0,5.125,0,5.125,0,0.75,0.75,0,0.0,0,0.0,0,0.0,0,0.0,1,0.5,1,2.125,1,0.5,1,2.125,0,,,,,0,38,38,38,,,,,,,,,371.5759321670048,376.69742191699333,371.5759321670048,371.5759321670048,371.5759321670048,371.5759321670048,372.02372233301867,373.02236629195977,372.0368773746925,373.02590925002005,373.6571114170365,374.6466237499844,373.6606805417143,,376.69742191699333,377.5522693330422,379.5934022079455,,377.5522693330422,377.5522693330422,382.74575195799116,377.5522693330422,377.5522693330422,377.5522693330422,377.5522693330422,377.9696124580223,379.03579895803705,377.93971045868625,,379.5934022079455,380.66395695798565,379.5634034586294,,377.5522693330422,382.74575195799116,377.5522693330422,382.74575195799116,382.74575195799116,,377.5522693330422,1,1,0.6615320419659838,reldom2_s032,001,2025-03-12_15h21.15.702,What-A-Scan_AC,2022.2.5,None,
30,Second_Order,5.0,audwhat,stimulus/audwhat_stim/percussion mallet_low-pitch_F_loud.wav,stimulus/audwhat_stim/percussion mallet_high-pitch_Ftri_loud.wav,stimulus/audwhat_stim/string viola_low-pitch_F_loud.wav,stimulus/audwhat_stim/string viola_high-pitch_Ftri_loud.wav,stimulus/audwhat_stim/match_blank.png,stimulus/audwhat_stim/match_box.png,stimulus/audwhat_stim/match_yes.png,stimulus/audwhat_stim/match_no.png,1.0,Match,Category,Category,1,5.125,0,5.125,0,5.125,0,5.125,0,0.625,0.625,0,0.0,0,0.0,0,0.0,0,0.0,1,0.5,1,2.125,1,0.5,1,2.125,0,,,,,0,39,39,39,,,,,,,,,383.5203121670056,388.64222437504213,383.5203121670056,383.5203121670056,383.5203121670056,383.5203121670056,383.96663408295717,384.9542797500035,383.98056408361685,,385.60138629202265,386.59039333299734,385.60500391672053,,388.64222437504213,389.38000629201997,391.455094291945,395.48044062498957,389.38000629201997,389.38000629201997,394.5544667500071,389.38000629201997,389.38000629201997,389.38000629201997,389.38000629201997,389.7938754169736,390.8527944580419,389.7643467497003,,391.455094291945,392.52205475000665,391.42548133369223,,389.38000629201997,394.5544667500071,389.38000629201997,394.5544667500071,394.5544667500071,395.20588699996006,389.38000629201997,1,1,0.5951513330219314,reldom2_s032,001,2025-03-12_15h21.15.702,What-A-Scan_AC,2022.2.5,None,
0,0.0,None,fixation,stimulus/audwhat_stim/blank_white.png,stimulus/audwhat_stim/blank_white.png,stimulus/viswhat_stim/blank_white.png,stimulus/viswhat_stim/blank_white.png,stimulus/audwhat_stim/blank_white.png,stimulus/audwhat_stim/blank_white.png,stimulus/audwhat_stim/blank_white.png,stimulus/audwhat_stim/blank_white.png,0.0,0.0,0.0,0.0,0,0.0,0,0.0,0,0.0,0,0.0,0,0.0,0.0,0,0.0,0,0.0,0,0.0,0,0.0,0,0.0,0,0.0,0,0.0,0,0.0,9,,,,,0,40,40,40,,,,,,,,,395.48044062498957,395.48044062498957,395.48044062498957,395.48044062498957,395.48044062498957,395.48044062498957,395.48044062498957,395.48044062498957,395.3800474163455,395.48044062498957,395.48044062498957,395.48044062498957,395.3800474163455,395.48044062498957,395.48044062498957,395.48044062498957,395.48044062498957,395.48044062498957,395.48044062498957,395.48044062498957,395.48044062498957,395.48044062498957,395.48044062498957,395.48044062498957,395.48044062498957,395.48044062498957,395.48044062498957,395.43004741634553,395.48044062498957,395.48044062498957,395.48044062498957,395.43004741634553,395.48044062498957,395.48044062498957,395.48044062498957,395.48044062498957,395.48044062498957,400.6623149169609,400.6623149169609,404.7478836249793,None,0,,reldom2_s032,001,2025-03-12_15h21.15.702,What-A-Scan_AC,2022.2.5,None,
31,First_Order,6.0,audwhat,stimulus/audwhat_stim/dummy.wav,stimulus/audwhat_stim/dummy.wav,stimulus/audwhat_stim/string viola_high-pitch_F_loud.wav,stimulus/audwhat_stim/percussion xylophone_high-pitch_F_loud.wav,stimulus/audwhat_stim/blank_white.png,stimulus/audwhat_stim/category_box.png,stimulus/audwhat_stim/category_yes.png,stimulus/audwhat_stim/category_no.png,None,Category,None,Pitch,2,0.0,0,5.125,0,5.125,0,5.125,0,0.0,0.625,0,0.0,0,0.0,0,0.0,0,0.0,0,0.0,0,0.0,1,0.5,1,2.125,0,,,,,0,41,41,41,,,,,,,,,404.7478836249793,404.7478836249793,404.7478836249793,404.7478836249793,404.7478836249793,404.7478836249793,404.7478836249793,404.7478836249793,404.67392658364645,404.7478836249793,404.7478836249793,404.7478836249793,404.67392658364645,404.7478836249793,404.7478836249793,404.7478836249793,406.8447497499874,410.8709950830089,404.7478836249793,404.7478836249793,409.9207111670403,404.7478836249793,404.7478836249793,404.7478836249793,404.7478836249793,405.2136913749855,406.286377124954,405.1840993746339,,406.8447497499874,407.9198889579857,406.8149908336966,407.8731446249876,404.7478836249793,409.9207111670403,404.7478836249793,409.9207111670403,409.96223974996246,410.6176462919684,404.7478836249793,2,1,2.6300379999447614,reldom2_s032,001,2025-03-12_15h21.15.702,What-A-Scan_AC,2022.2.5,None,
32,First_Order,6.0,audwhat,stimulus/audwhat_stim/dummy.wav,stimulus/audwhat_stim/dummy.wav,stimulus/audwhat_stim/percussion mallet_high-pitch_F_loud.wav,stimulus/audwhat_stim/percussion mallet_low-pitch_D_loud.wav,stimulus/audwhat_stim/blank_white.png,stimulus/audwhat_stim/pitch_box.png,stimulus/audwhat_stim/pitch_yes.png,stimulus/audwhat_stim/pitch_no.png,None,Pitch,None,Category,2,0.0,0,5.125,0,5.125,0,5.125,0,0.0,0.625,0,0.0,0,0.0,0,0.0,0,0.0,0,0.0,0,0.0,1,0.5,1,2.125,0,,,,,0,42,42,42,,,,,,,,,410.8709950830089,410.8709950830089,410.8709950830089,410.8709950830089,410.8709950830089,410.8709950830089,410.8709950830089,410.8709950830089,410.7916968753872,410.8709950830089,410.8709950830089,410.8709950830089,410.7916968753872,410.8709950830089,410.8709950830089,410.8709950830089,412.9603710420197,,410.8709950830089,410.8709950830089,416.0282780829584,410.8709950830089,410.8709950830089,410.8709950830089,410.8709950830089,411.3373564579524,412.40402537502814,411.30721599964113,,412.9603710420197,414.0338523329701,412.9303058336411,,410.8709950830089,416.0282780829584,410.8709950830089,416.0282780829584,416.0693809579825,416.7227800829569,410.8709950830089,2,1,0.8389973749872297,reldom2_s032,001,2025-03-12_15h21.15.702,What-A-Scan_AC,2022.2.5,None,
33,First_Order,6.0,audwhat,stimulus/audwhat_stim/dummy.wav,stimulus/audwhat_stim/dummy.wav,stimulus/audwhat_stim/string cello_high-pitch_D_loud.wav,stimulus/audwhat_stim/string cello_low-pitch_Dtri_loud.wav,stimulus/audwhat_stim/blank_white.png,stimulus/audwhat_stim/category_box.png,stimulus/audwhat_stim/category_yes.png,stimulus/audwhat_stim/category_no.png,None,Category,None,Category,1,0.0,0,5.125,0,5.125,0,5.125,0,0.0,0.625,0,0.0,0,0.0,0,0.0,0,0.0,0,0.0,0,0.0,1,0.5,1,2.125,0,,,,,0,43,43,43,,,,,,,,,416.9773010419449,416.9773010419449,416.9773010419449,416.9773010419449,416.9773010419449,416.9773010419449,416.9773010419449,416.9773010419449,416.89690054129653,416.9773010419449,416.9773010419449,416.9773010419449,416.89690054129653,416.9773010419449,416.9773010419449,416.9773010419449,419.0799963750178,,416.9773010419449,416.9773010419449,422.1655782919843,416.9773010419449,416.9773010419449,416.9773010419449,416.9773010419449,417.4483686670428,418.5203252079664,417.41829983360753,,419.0799963750178,420.1119643750135,419.0499422496107,,416.9773010419449,422.1655782919843,416.9773010419449,422.1655782919843,422.20670995803084,422.8625179999508,416.9773010419449,1,1,0.9388240829575807,reldom2_s032,001,2025-03-12_15h21.15.702,What-A-Scan_AC,2022.2.5,None,
34,First_Order,6.0,audwhat,stimulus/audwhat_stim/dummy.wav,stimulus/audwhat_stim/dummy.wav,stimulus/audwhat_stim/string cello_high-pitch_F_loud.wav,stimulus/audwhat_stim/string viola_low-pitch_Ftri_loud.wav,stimulus/audwhat_stim/blank_white.png,stimulus/audwhat_stim/pitch_box.png,stimulus/audwhat_stim/pitch_yes.png,stimulus/audwhat_stim/pitch_no.png,None,Pitch,None,Category,2,0.0,0,5.125,0,5.125,0,5.125,0,0.0,0.625,0,0.0,0,0.0,0,0.0,0,0.0,0,0.0,0,0.0,1,0.5,1,2.125,0,,,,,0,44,44,44,,,,,,,,,423.0775580420159,423.0775580420159,423.0775580420159,423.0775580420159,423.0775580420159,423.0775580420159,423.0775580420159,423.0775580420159,422.9958513332841,423.0775580420159,423.0775580420159,423.0775580420159,422.9958513332841,423.0775580420159,423.0775580420159,423.0775580420159,425.16884537495207,,423.0775580420159,423.0775580420159,428.23641320795286,423.0775580420159,423.0775580420159,423.0775580420159,423.0775580420159,423.54440291703213,424.61178675002884,423.514554458616,,425.16884537495207,426.24011024995707,425.1388195416114,,423.0775580420159,428.23641320795286,423.0775580420159,428.23641320795286,428.277203332982,428.9310425419826,423.0775580420159,2,1,1.7877292078919709,reldom2_s032,001,2025-03-12_15h21.15.702,What-A-Scan_AC,2022.2.5,None,
0,0.0,None,fixation,stimulus/audwhat_stim/blank_white.png,stimulus/audwhat_stim/blank_white.png,stimulus/viswhat_stim/blank_white.png,stimulus/viswhat_stim/blank_white.png,stimulus/audwhat_stim/blank_white.png,stimulus/audwhat_stim/blank_white.png,stimulus/audwhat_stim/blank_white.png,stimulus/audwhat_stim/blank_white.png,0.0,0.0,0.0,0.0,0,0.0,0,0.0,0,0.0,0,0.0,0,0.0,0.0,0,0.0,0,0.0,0,0.0,0,0.0,0,0.0,0,0.0,0,0.0,0,0.0,10,,,,,0,45,45,45,,,,,,,,,429.20551995805,429.20551995805,429.20551995805,429.20551995805,429.20551995805,429.20551995805,429.20551995805,429.20551995805,429.10488195836854,429.20551995805,429.20551995805,429.20551995805,429.10488195836854,429.20551995805,429.20551995805,429.20551995805,429.20551995805,429.20551995805,429.20551995805,429.20551995805,429.20551995805,429.20551995805,429.20551995805,429.20551995805,429.20551995805,429.20551995805,429.20551995805,429.15488195836855,429.20551995805,429.20551995805,429.20551995805,429.15488195836855,429.20551995805,429.20551995805,429.20551995805,429.20551995805,429.20551995805,434.40957404195797,434.40957404195797,439.3358739579562,None,0,,reldom2_s032,001,2025-03-12_15h21.15.702,What-A-Scan_AC,2022.2.5,None,
35,Second_Order,6.0,audwhat,stimulus/audwhat_stim/percussion xylophone_high-pitch_D_loud.wav,stimulus/audwhat_stim/string viola_high-pitch_D_loud.wav,stimulus/audwhat_stim/percussion mallet_high-pitch_Dtri_loud.wav,stimulus/audwhat_stim/percussion mallet_low-pitch_D_loud.wav,stimulus/audwhat_stim/match_blank.png,stimulus/audwhat_stim/match_box.png,stimulus/audwhat_stim/match_yes.png,stimulus/audwhat_stim/match_no.png,2.0,Match,Pitch,Category,2,5.125,0,5.125,0,5.125,0,5.125,0,0.75,0.75,0,0.0,0,0.0,0,0.0,0,0.0,1,0.5,1,2.125,1,0.5,1,2.125,0,,,,,0,46,46,46,,,,,,,,,439.3358739579562,444.4587392079411,439.3358739579562,439.3358739579562,439.3358739579562,439.3358739579562,439.79276016703807,440.78315733303316,439.79544649966215,440.78315733303316,441.41972295800224,442.4157042920124,441.4307005416524,,444.4587392079411,445.3106027500471,447.35114883305505,,445.3106027500471,445.3106027500471,450.4620630829595,445.3106027500471,445.3106027500471,445.3106027500471,445.3106027500471,445.7272706669755,446.7939712499501,445.69752416661163,,447.35114883305505,448.4231149170082,447.3209618746225,,445.3106027500471,450.4620630829595,445.3106027500471,450.4620630829595,450.50292954198085,,445.3106027500471,2,1,0.802266874932684,reldom2_s032,001,2025-03-12_15h21.15.702,What-A-Scan_AC,2022.2.5,None,
36,Second_Order,6.0,audwhat,stimulus/audwhat_stim/percussion mallet_high-pitch_Dtri_loud.wav,stimulus/audwhat_stim/string viola_high-pitch_Dtri_loud.wav,stimulus/audwhat_stim/string cello_high-pitch_Dtri_loud.wav,stimulus/audwhat_stim/string viola_low-pitch_F_loud.wav,stimulus/audwhat_stim/match_blank.png,stimulus/audwhat_stim/match_box.png,stimulus/audwhat_stim/match_yes.png,stimulus/audwhat_stim/match_no.png,2.0,Match,Pitch,Category,2,5.125,0,5.125,0,5.125,0,5.125,0,0.625,0.625,0,0.0,0,0.0,0,0.0,0,0.0,1,0.5,1,2.125,1,0.5,1,2.125,0,,,,,0,47,47,47,,,,,,,,,451.2766602500342,456.3983121670317,451.2766602500342,451.2766602500342,451.2766602500342,451.2766602500342,451.7231288329931,452.71093516703695,451.7373391666372,,453.358253082959,454.3482545829611,453.36287649971587,,456.3983121670317,457.13285420800094,459.20862633304205,463.24101291701663,457.13285420800094,457.13285420800094,462.31399037502706,457.13285420800094,457.13285420800094,457.13285420800094,457.13285420800094,457.5485200419789,458.60835216694977,457.51898908365206,,459.20862633304205,460.27828129194677,459.1791352916664,,457.13285420800094,462.31399037502706,457.13285420800094,462.31399037502706,462.31399037502706,462.96681583300233,457.13285420800094,2,1,1.0490980829345062,reldom2_s032,001,2025-03-12_15h21.15.702,What-A-Scan_AC,2022.2.5,None,
0,0.0,None,fixation,stimulus/audwhat_stim/blank_white.png,stimulus/audwhat_stim/blank_white.png,stimulus/viswhat_stim/blank_white.png,stimulus/viswhat_stim/blank_white.png,stimulus/audwhat_stim/blank_white.png,stimulus/audwhat_stim/blank_white.png,stimulus/audwhat_stim/blank_white.png,stimulus/audwhat_stim/blank_white.png,0.0,0.0,0.0,0.0,0,0.0,0,0.0,0,0.0,0,0.0,0,0.0,0.0,0,0.0,0,0.0,0,0.0,0,0.0,0,0.0,0,0.0,0,0.0,0,0.0,8,,,,,0,48,48,48,,,,,,,,,463.24101291701663,463.24101291701663,463.24101291701663,463.24101291701663,463.24101291701663,463.24101291701663,463.24101291701663,463.24101291701663,463.1402026253364,463.24101291701663,463.24101291701663,463.24101291701663,463.1402026253364,463.24101291701663,463.24101291701663,463.24101291701663,463.24101291701663,463.24101291701663,463.24101291701663,463.24101291701663,463.24101291701663,463.24101291701663,463.24101291701663,463.24101291701663,463.24101291701663,463.24101291701663,463.24101291701663,463.19020262533644,463.24101291701663,463.24101291701663,463.24101291701663,463.19020262533644,463.24101291701663,463.24101291701663,463.24101291701663,463.24101291701663,463.24101291701663,468.47424675000366,468.47424675000366,471.47340679203626,None,0,,reldom2_s032,001,2025-03-12_15h21.15.702,What-A-Scan_AC,2022.2.5,None,
37,First_Order,7.0,viswhat,stimulus/viswhat_stim/blank_white.png,stimulus/viswhat_stim/blank_white.png,stimulus/viswhat_stim/land_animal-zebra.png,stimulus/viswhat_stim/water_animal-squid.png,stimulus/viswhat_stim/blank_white.png,stimulus/viswhat_stim/type_box.png,stimulus/viswhat_stim/type_yes.png,stimulus/viswhat_stim/type_no.png,None,Type,None,Type,1,0.0,0,5.125,0,5.125,0,5.125,0,0.0,0.625,0,0.0,0,0.0,1,0.5,1,2.125,0,0.0,0,0.0,0,0.0,0,0.0,0,,,,,0,49,49,49,,,,,,,,,471.47340679203626,471.47340679203626,471.47340679203626,471.47340679203626,471.47340679203626,471.47340679203626,471.47340679203626,471.47340679203626,471.4248495836897,471.47340679203626,471.47340679203626,471.47340679203626,471.4248495836897,471.47340679203626,471.47340679203626,471.47340679203626,473.56736558303237,477.79927983297966,471.47340679203626,471.47340679203626,476.62545262498315,471.9570441249525,472.9869583749678,473.56736558303237,474.600539291976,471.47340679203626,471.47340679203626,471.4415162503564,471.47340679203626,471.47340679203626,471.47340679203626,471.4415162503564,471.47340679203626,471.47340679203626,476.62545262498315,471.47340679203626,476.62545262498315,476.6792372500058,477.3206870419672,471.47340679203626,1,1,3.0408413750119507,reldom2_s032,001,2025-03-12_15h21.15.702,What-A-Scan_AC,2022.2.5,None,
38,First_Order,7.0,viswhat,stimulus/viswhat_stim/blank_white.png,stimulus/viswhat_stim/blank_white.png,stimulus/viswhat_stim/water_vehicle-submarine.png,stimulus/viswhat_stim/water_animal-lobster.png,stimulus/viswhat_stim/blank_white.png,stimulus/viswhat_stim/location_box.png,stimulus/viswhat_stim/location_yes.png,stimulus/viswhat_stim/location_no.png,None,Location,None,Location,1,0.0,0,5.125,0,5.125,0,5.125,0,0.0,0.625,0,0.0,0,0.0,1,0.5,1,2.125,0,0.0,0,0.0,0,0.0,0,0.0,0,,,,,0,50,50,50,,,,,,,,,477.79927983297966,477.79927983297966,477.79927983297966,477.79927983297966,477.79927983297966,477.79927983297966,477.79927983297966,477.79927983297966,477.5178672916644,477.79927983297966,477.79927983297966,477.79927983297966,477.5178672916644,477.79927983297966,477.79927983297966,477.79927983297966,479.9089119170094,,477.79927983297966,477.79927983297966,483.07056141702924,478.251448957948,479.45733783300966,479.9089119170094,481.11483383295126,477.79927983297966,477.79927983297966,477.6512006249977,477.79927983297966,477.79927983297966,477.79927983297966,477.6512006249977,477.79927983297966,477.79927983297966,483.07056141702924,477.79927983297966,483.07056141702924,482.92537995800376,,477.79927983297966,1,1,1.3408449169946834,reldom2_s032,001,2025-03-12_15h21.15.702,What-A-Scan_AC,2022.2.5,None,
39,First_Order,7.0,viswhat,stimulus/viswhat_stim/blank_white.png,stimulus/viswhat_stim/blank_white.png,stimulus/viswhat_stim/land_vehicle-vespa.png,stimulus/viswhat_stim/water_vehicle-yacht.png,stimulus/viswhat_stim/blank_white.png,stimulus/viswhat_stim/location_box.png,stimulus/viswhat_stim/location_yes.png,stimulus/viswhat_stim/location_no.png,None,Location,None,Type,2,0.0,0,5.125,0,5.125,0,5.125,0,0.0,0.625,0,0.0,0,0.0,1,0.5,1,2.125,0,0.0,0,0.0,0,0.0,0,0.0,0,,,,,0,51,51,51,,,,,,,,,483.7773340420099,483.7773340420099,483.7773340420099,483.7773340420099,483.7773340420099,483.7773340420099,483.7773340420099,483.7773340420099,483.71105283303183,483.7773340420099,483.7773340420099,483.7773340420099,483.71105283303183,483.7773340420099,483.7773340420099,483.7773340420099,485.8770356250461,,483.7773340420099,483.7773340420099,488.94563929201104,484.2390332079958,485.29049237503204,485.8770356250461,486.9315149169415,483.7773340420099,483.7773340420099,483.7443861663652,483.7773340420099,483.7773340420099,483.7773340420099,483.7443861663652,483.7773340420099,483.7773340420099,488.94563929201104,483.7773340420099,488.94563929201104,488.9820632080082,489.63583762501366,483.7773340420099,2,1,0.9079333329573274,reldom2_s032,001,2025-03-12_15h21.15.702,What-A-Scan_AC,2022.2.5,None,
40,First_Order,7.0,viswhat,stimulus/viswhat_stim/blank_white.png,stimulus/viswhat_stim/blank_white.png,stimulus/viswhat_stim/water_vehicle-canoe.png,stimulus/viswhat_stim/water_animal-whale (1).png,stimulus/viswhat_stim/blank_white.png,stimulus/viswhat_stim/location_box.png,stimulus/viswhat_stim/location_yes.png,stimulus/viswhat_stim/location_no.png,None,Location,None,Location,1,0.0,0,5.125,0,5.125,0,5.125,0,0.0,0.625,0,0.0,0,0.0,1,0.5,1,2.125,0,0.0,0,0.0,0,0.0,0,0.0,0,,,,,0,52,52,52,,,,,,,,,489.8437574999407,489.8437574999407,489.8437574999407,489.8437574999407,489.8437574999407,489.8437574999407,489.8437574999407,489.8437574999407,489.8050504162985,489.8437574999407,489.8437574999407,489.8437574999407,489.8050504162985,489.8437574999407,489.8437574999407,489.8437574999407,491.955330458004,495.99021275003906,489.8437574999407,489.8437574999407,494.98180895799305,490.31322491704486,491.3413587079849,491.955330458004,492.9871474580141,489.8437574999407,489.8437574999407,489.82171708296516,489.8437574999407,489.8437574999407,489.8437574999407,489.82171708296516,489.8437574999407,489.8437574999407,494.98180895799305,489.8437574999407,494.98180895799305,495.05273204203695,495.69212150003295,489.8437574999407,1,1,1.9318660829449072,reldom2_s032,001,2025-03-12_15h21.15.702,What-A-Scan_AC,2022.2.5,None,
0,0.0,None,fixation,stimulus/audwhat_stim/blank_white.png,stimulus/audwhat_stim/blank_white.png,stimulus/viswhat_stim/blank_white.png,stimulus/viswhat_stim/blank_white.png,stimulus/audwhat_stim/blank_white.png,stimulus/audwhat_stim/blank_white.png,stimulus/audwhat_stim/blank_white.png,stimulus/audwhat_stim/blank_white.png,0.0,0.0,0.0,0.0,0,0.0,0,0.0,0,0.0,0,0.0,0,0.0,0.0,0,0.0,0,0.0,0,0.0,0,0.0,0,0.0,0,0.0,0,0.0,0,0.0,10,,,,,0,53,53,53,,,,,,,,,495.99021275003906,495.99021275003906,495.99021275003906,495.99021275003906,495.99021275003906,495.99021275003906,495.99021275003906,495.99021275003906,495.88612287493885,495.99021275003906,495.99021275003906,495.99021275003906,495.88612287493885,495.99021275003906,495.99021275003906,495.99021275003906,495.99021275003906,495.99021275003906,495.99021275003906,495.99021275003906,495.99021275003906,495.99021275003906,495.99021275003906,495.99021275003906,495.99021275003906,495.99021275003906,495.99021275003906,495.93612287493886,495.99021275003906,495.99021275003906,495.99021275003906,495.93612287493886,495.99021275003906,495.99021275003906,495.99021275003906,495.99021275003906,495.99021275003906,501.2049697500188,501.2049697500188,506.1612341669388,None,0,,reldom2_s032,001,2025-03-12_15h21.15.702,What-A-Scan_AC,2022.2.5,None,
41,Second_Order,7.0,viswhat,stimulus/viswhat_stim/water_vehicle-cruiser.png,stimulus/viswhat_stim/land_vehicle-bus.png,stimulus/viswhat_stim/land_animal-fox.png,stimulus/viswhat_stim/water_animal-dolphin.png,stimulus/audwhat_stim/match_blank.png,stimulus/audwhat_stim/match_box.png,stimulus/audwhat_stim/match_yes.png,stimulus/audwhat_stim/match_no.png,1.0,Match,Type,Type,1,5.125,0,5.125,0,5.125,0,5.125,0,0.75,0.75,1,0.5,1,2.125,1,0.5,1,2.125,0,0.0,0,0.0,0,0.0,0,0.0,0,,,,,0,54,54,54,,,,,,,,,506.1612341669388,511.2803706249688,506.5829928750172,507.569103042013,508.2056782080326,509.2038064580411,506.1612341669388,506.1612341669388,506.17242141636865,506.1612341669388,506.1612341669388,506.1612341669388,506.17242141636865,506.1612341669388,511.2803706249688,512.0911812080303,514.1654333330225,518.078912707977,512.0911812080303,512.0911812080303,517.2451109579997,512.5382967080222,513.5644042500062,514.1654333330225,515.1963643749477,512.0911812080303,512.0911812080303,512.0638562920037,512.0911812080303,512.0911812080303,512.0911812080303,512.0638562920037,512.0911812080303,512.0911812080303,517.2451109579997,512.0911812080303,517.2451109579997,517.2876400420209,,512.0911812080303,1,1,0.5810941669624299,reldom2_s032,001,2025-03-12_15h21.15.702,What-A-Scan_AC,2022.2.5,None,
42,Second_Order,7.0,viswhat,stimulus/viswhat_stim/water_animal-whale.png,stimulus/viswhat_stim/water_vehicle-ferryboat.png,stimulus/viswhat_stim/land_vehicle-tank.png,stimulus/viswhat_stim/land_animal-wolf.png,stimulus/audwhat_stim/match_blank.png,stimulus/audwhat_stim/match_box.png,stimulus/audwhat_stim/match_yes.png,stimulus/audwhat_stim/match_no.png,1.0,Match,Location,Location,1,5.125,0,5.125,0,5.125,0,5.125,0,0.625,0.625,1,0.5,1,2.125,1,0.5,1,2.125,0,0.0,0,0.0,0,0.0,0,0.0,0,,,,,0,55,55,55,,,,,,,,,518.078912707977,523.2028785829898,518.5442437919555,519.531274292036,520.1667750000488,521.164537500008,518.078912707977,518.078912707977,518.0938450833395,518.078912707977,518.078912707977,518.078912707977,518.0938450833395,518.078912707977,523.2028785829898,523.8832823749399,525.9552509579808,530.0093024580274,523.8832823749399,523.8832823749399,529.0254998749588,524.328631500015,525.3440456249518,525.9552509579808,526.9756406249944,523.8832823749399,523.8832823749399,523.8542375833572,523.8832823749399,523.8832823749399,523.8832823749399,523.8542375833572,523.8832823749399,523.8832823749399,529.0254998749588,523.8832823749399,529.0254998749588,529.072051874944,529.7027633750113,523.8832823749399,1,1,0.6500728749670088,reldom2_s032,001,2025-03-12_15h21.15.702,What-A-Scan_AC,2022.2.5,None,
0,0.0,None,fixation,stimulus/audwhat_stim/blank_white.png,stimulus/audwhat_stim/blank_white.png,stimulus/viswhat_stim/blank_white.png,stimulus/viswhat_stim/blank_white.png,stimulus/audwhat_stim/blank_white.png,stimulus/audwhat_stim/blank_white.png,stimulus/audwhat_stim/blank_white.png,stimulus/audwhat_stim/blank_white.png,0.0,0.0,0.0,0.0,0,0.0,0,0.0,0,0.0,0,0.0,0,0.0,0.0,0,0.0,0,0.0,0,0.0,0,0.0,0,0.0,0,0.0,0,0.0,0,0.0,9,,,,,0,56,56,56,,,,,,,,,530.0093024580274,530.0093024580274,530.0093024580274,530.0093024580274,530.0093024580274,530.0093024580274,530.0093024580274,530.0093024580274,529.9033493753135,530.0093024580274,530.0093024580274,530.0093024580274,529.9033493753135,530.0093024580274,530.0093024580274,530.0093024580274,530.0093024580274,530.0093024580274,530.0093024580274,530.0093024580274,530.0093024580274,530.0093024580274,530.0093024580274,530.0093024580274,530.0093024580274,530.0093024580274,530.0093024580274,529.9700160419801,530.0093024580274,530.0093024580274,530.0093024580274,529.9700160419801,530.0093024580274,530.0093024580274,530.0093024580274,530.0093024580274,530.0093024580274,535.1986284579616,535.1986284579616,539.2182667499874,None,0,,reldom2_s032,001,2025-03-12_15h21.15.702,What-A-Scan_AC,2022.2.5,None,
43,First_Order,8.0,viswhat,stimulus/viswhat_stim/blank_white.png,stimulus/viswhat_stim/blank_white.png,stimulus/viswhat_stim/water_vehicle-canoe.png,stimulus/viswhat_stim/water_animal-octopus.png,stimulus/viswhat_stim/blank_white.png,stimulus/viswhat_stim/type_box.png,stimulus/viswhat_stim/type_yes.png,stimulus/viswhat_stim/type_no.png,None,Type,None,Location,2,0.0,0,5.125,0,5.125,0,5.125,0,0.0,0.625,0,0.0,0,0.0,1,0.5,1,2.125,0,0.0,0,0.0,0,0.0,0,0.0,0,,,,,0,57,57,57,,,,,,,,,539.2182667499874,539.2182667499874,539.2182667499874,539.2182667499874,539.2182667499874,539.2182667499874,539.2182667499874,539.2182667499874,539.1670833746126,539.2182667499874,539.2182667499874,539.2182667499874,539.1670833746126,539.2182667499874,539.2182667499874,539.2182667499874,541.2990663750097,545.3007805829402,539.2182667499874,539.2182667499874,544.3698112079874,539.6988322499674,540.7197729579639,541.2990663750097,542.3251982500078,539.2182667499874,539.2182667499874,539.1837500412793,539.2182667499874,539.2182667499874,539.2182667499874,539.1837500412793,539.2182667499874,539.2182667499874,544.3698112079874,539.2182667499874,544.3698112079874,544.4268411250087,545.0847376249731,539.2182667499874,2,1,3.1571688329568133,reldom2_s032,001,2025-03-12_15h21.15.702,What-A-Scan_AC,2022.2.5,None,
44,First_Order,8.0,viswhat,stimulus/viswhat_stim/blank_white.png,stimulus/viswhat_stim/blank_white.png,stimulus/viswhat_stim/water_animal-octopus.png,stimulus/viswhat_stim/land_animal-snake.png,stimulus/viswhat_stim/blank_white.png,stimulus/viswhat_stim/type_box.png,stimulus/viswhat_stim/type_yes.png,stimulus/viswhat_stim/type_no.png,None,Type,None,Type,1,0.0,0,5.125,0,5.125,0,5.125,0,0.0,0.625,0,0.0,0,0.0,1,0.5,1,2.125,0,0.0,0,0.0,0,0.0,0,0.0,0,,,,,0,58,58,58,,,,,,,,,545.3007805829402,545.3007805829402,545.3007805829402,545.3007805829402,545.3007805829402,545.3007805829402,545.3007805829402,545.3007805829402,545.258247833668,545.3007805829402,545.3007805829402,545.3007805829402,545.258247833668,545.3007805829402,545.3007805829402,545.3007805829402,547.3855858750176,551.3786372919567,545.3007805829402,545.3007805829402,550.4418514999561,545.7673211670481,546.7928186249919,547.3855858750176,548.4185624580132,545.3007805829402,545.3007805829402,545.2749145003346,545.3007805829402,545.3007805829402,545.3007805829402,545.2749145003346,545.3007805829402,545.3007805829402,550.4418514999561,545.3007805829402,550.4418514999561,550.5186065830057,551.1558719580062,545.3007805829402,1,1,1.3988944999873638,reldom2_s032,001,2025-03-12_15h21.15.702,What-A-Scan_AC,2022.2.5,None,
45,First_Order,8.0,viswhat,stimulus/viswhat_stim/blank_white.png,stimulus/viswhat_stim/blank_white.png,stimulus/viswhat_stim/land_vehicle-schoolbus.png,stimulus/viswhat_stim/land_animal-pig.png,stimulus/viswhat_stim/blank_white.png,stimulus/viswhat_stim/type_box.png,stimulus/viswhat_stim/type_yes.png,stimulus/viswhat_stim/type_no.png,None,Type,None,Location,2,0.0,0,5.125,0,5.125,0,5.125,0,0.0,0.625,0,0.0,0,0.0,1,0.5,1,2.125,0,0.0,0,0.0,0,0.0,0,0.0,0,,,,,0,59,59,59,,,,,,,,,551.3786372919567,551.3786372919567,551.3786372919567,551.3786372919567,551.3786372919567,551.3786372919567,551.3786372919567,551.3786372919567,551.3321178750135,551.3786372919567,551.3786372919567,551.3786372919567,551.3321178750135,551.3786372919567,551.3786372919567,551.3786372919567,553.46966195805,557.492480957997,551.3786372919567,551.3786372919567,556.5169599170331,551.8536877080332,552.8860164580401,553.46966195805,554.50434808305,551.3786372919567,551.3786372919567,551.3654512083468,551.3786372919567,551.3786372919567,551.3786372919567,551.3654512083468,551.3786372919567,551.3786372919567,556.5169599170331,551.3786372919567,556.5169599170331,556.6007706669625,557.2432341669919,551.3786372919567,2,1,1.726680124993436,reldom2_s032,001,2025-03-12_15h21.15.702,What-A-Scan_AC,2022.2.5,None,
46,First_Order,8.0,viswhat,stimulus/viswhat_stim/blank_white.png,stimulus/viswhat_stim/blank_white.png,stimulus/viswhat_stim/land_vehicle-oldcar.png,stimulus/viswhat_stim/water_vehicle-powercruiser.png,stimulus/viswhat_stim/blank_white.png,stimulus/viswhat_stim/location_box.png,stimulus/viswhat_stim/location_yes.png,stimulus/viswhat_stim/location_no.png,None,Location,None,Type,2,0.0,0,5.125,0,5.125,0,5.125,0,0.0,0.625,0,0.0,0,0.0,1,0.5,1,2.125,0,0.0,0,0.0,0,0.0,0,0.0,0,,,,,0,60,60,60,,,,,,,,,557.492480957997,557.492480957997,557.492480957997,557.492480957997,557.492480957997,557.492480957997,557.492480957997,557.492480957997,557.4283962080023,557.492480957997,557.492480957997,557.492480957997,557.4283962080023,557.492480957997,557.492480957997,557.492480957997,559.5939132920466,563.6311048329808,557.492480957997,557.492480957997,562.6526290420443,557.9452405419433,558.9746770829661,559.5939132920466,560.6308650419815,557.492480957997,557.492480957997,557.4617295413356,557.492480957997,557.492480957997,557.492480957997,557.4617295413356,557.492480957997,557.492480957997,562.6526290420443,557.492480957997,562.6526290420443,562.6883222919423,563.3320928330068,557.492480957997,2,1,0.744294042000547,reldom2_s032,001,2025-03-12_15h21.15.702,What-A-Scan_AC,2022.2.5,None,
0,0.0,None,fixation,stimulus/audwhat_stim/blank_white.png,stimulus/audwhat_stim/blank_white.png,stimulus/viswhat_stim/blank_white.png,stimulus/viswhat_stim/blank_white.png,stimulus/audwhat_stim/blank_white.png,stimulus/audwhat_stim/blank_white.png,stimulus/audwhat_stim/blank_white.png,stimulus/audwhat_stim/blank_white.png,0.0,0.0,0.0,0.0,0,0.0,0,0.0,0,0.0,0,0.0,0,0.0,0.0,0,0.0,0,0.0,0,0.0,0,0.0,0,0.0,0,0.0,0,0.0,0,0.0,9,,,,,0,61,61,61,,,,,,,,,563.6311048329808,563.6311048329808,563.6311048329808,563.6311048329808,563.6311048329808,563.6311048329808,563.6311048329808,563.6311048329808,563.5372787503603,563.6311048329808,563.6311048329808,563.6311048329808,563.5372787503603,563.6311048329808,563.6311048329808,563.6311048329808,563.6311048329808,563.6311048329808,563.6311048329808,563.6311048329808,563.6311048329808,563.6311048329808,563.6311048329808,563.6311048329808,563.6311048329808,563.6311048329808,563.6311048329808,563.5872787503603,563.6311048329808,563.6311048329808,563.6311048329808,563.5872787503603,563.6311048329808,563.6311048329808,563.6311048329808,563.6311048329808,563.6311048329808,568.8375724999933,568.8375724999933,572.8521990419831,None,0,,reldom2_s032,001,2025-03-12_15h21.15.702,What-A-Scan_AC,2022.2.5,None,
47,Second_Order,8.0,viswhat,stimulus/viswhat_stim/water_animal-dolphin.png,stimulus/viswhat_stim/water_vehicle-cruiseship.png,stimulus/viswhat_stim/land_vehicle-oldcar.png,stimulus/viswhat_stim/land_animal-giraffe.png,stimulus/audwhat_stim/match_blank.png,stimulus/audwhat_stim/match_box.png,stimulus/audwhat_stim/match_yes.png,stimulus/audwhat_stim/match_no.png,1.0,Match,Location,Location,1,5.125,0,5.125,0,5.125,0,5.125,0,0.75,0.75,1,0.5,1,2.125,1,0.5,1,2.125,0,0.0,0,0.0,0,0.0,0,0.0,0,,,,,0,62,62,62,,,,,,,,,572.8521990419831,577.9680635000113,573.2535118750529,574.2417431670474,574.8782875420293,575.8746432920452,572.8521990419831,572.8521990419831,572.8662879166582,572.8521990419831,572.8521990419831,572.8521990419831,572.8662879166582,572.8521990419831,577.9680635000113,578.8619968750281,580.921233125031,,578.8619968750281,578.8619968750281,584.0484949169913,579.2627088750014,580.3239210000029,580.921233125031,581.9904965419555,578.8619968750281,578.8619968750281,578.8013045829954,578.8619968750281,578.8619968750281,578.8619968750281,578.8013045829954,578.8619968750281,578.8619968750281,584.0484949169913,578.8619968750281,584.0484949169913,584.0484949169913,,578.8619968750281,1,1,0.782190041965805,reldom2_s032,001,2025-03-12_15h21.15.702,What-A-Scan_AC,2022.2.5,None,
48,Second_Order,8.0,viswhat,stimulus/viswhat_stim/land_animal-ostrich.png,stimulus/viswhat_stim/water_animal-shark.png,stimulus/viswhat_stim/water_animal-whale.png,stimulus/viswhat_stim/water_vehicle-cargoboat.png,stimulus/audwhat_stim/match_blank.png,stimulus/audwhat_stim/match_box.png,stimulus/audwhat_stim/match_yes.png,stimulus/audwhat_stim/match_no.png,2.0,Match,Type,Location,2,5.125,0,5.125,0,5.125,0,5.125,0,0.625,0.625,1,0.5,1,2.125,1,0.5,1,2.125,0,0.0,0,0.0,0,0.0,0,0.0,0,,,,,0,63,63,63,,,,,,,,,584.8079707500292,589.9287467920221,585.267219124944,586.2650096670259,586.8891879579751,587.885410042014,584.8079707500292,584.8079707500292,584.8220931666825,584.8079707500292,584.8079707500292,584.8079707500292,584.8220931666825,584.8079707500292,589.9287467920221,590.6186993749579,592.6915642500389,596.7413600420114,590.6186993749579,590.6186993749579,595.7622274169698,591.0734131670324,592.0900090419455,592.6915642500389,593.7018868329469,590.6186993749579,590.6186993749579,590.591691499995,590.6186993749579,590.6186993749579,590.6186993749579,590.591691499995,590.6186993749579,590.6186993749579,595.7622274169698,590.6186993749579,595.7622274169698,595.8041209169896,596.4325942499563,590.6186993749579,2,1,0.6188361659878865,reldom2_s032,001,2025-03-12_15h21.15.702,What-A-Scan_AC,2022.2.5,None,
0,0.0,None,fixation,stimulus/audwhat_stim/blank_white.png,stimulus/audwhat_stim/blank_white.png,stimulus/viswhat_stim/blank_white.png,stimulus/viswhat_stim/blank_white.png,stimulus/audwhat_stim/blank_white.png,stimulus/audwhat_stim/blank_white.png,stimulus/audwhat_stim/blank_white.png,stimulus/audwhat_stim/blank_white.png,0.0,0.0,0.0,0.0,0,0.0,0,0.0,0,0.0,0,0.0,0,0.0,0.0,0,0.0,0,0.0,0,0.0,0,0.0,0,0.0,0,0.0,0,0.0,0,0.0,16,,,,,0,64,64,64,,,,,,,,,596.7413600420114,596.7413600420114,596.7413600420114,596.7413600420114,596.7413600420114,596.7413600420114,596.7413600420114,596.7413600420114,596.6376785419649,596.7413600420114,596.7413600420114,596.7413600420114,596.6376785419649,596.7413600420114,596.7413600420114,596.7413600420114,596.7413600420114,596.7413600420114,596.7413600420114,596.7413600420114,596.7413600420114,596.7413600420114,596.7413600420114,596.7413600420114,596.7413600420114,596.7413600420114,596.7413600420114,596.6876785419648,596.7413600420114,596.7413600420114,596.7413600420114,596.6876785419648,596.7413600420114,596.7413600420114,596.7413600420114,596.7413600420114,596.7413600420114,601.9283385829767,601.9283385829767,612.9078659579391,None,0,,reldom2_s032,001,2025-03-12_15h21.15.702,What-A-Scan_AC,2022.2.5,None,
