Trial,Order,Block,Type,Stimuli_File1,Stimuli_File2,Stimuli_File3,Stimuli_File4,Cue_File1,Cue_File2,Response_File_Yes,Response_File_No,Match,Cue_Dimension,Pair1_Dimension,Pair2_Dimension,Key,Cue1_Duration,Cue1_Onset,Cue2_Duration,Cue2_Onset,ResponseYes_Duration,ResponseYes_Onset,ResponseNo_Duration,ResponseNo_Onset,ITI_Within,ITI_Between,Image1_Duration,Image1_Onset,Image2_Duration,Image2_Onset,Image3_Duration,Image3_Onset,Image4_Duration,Image4_Onset,Sound1_Duration,Sound1_Onset,Sound2_Duration,Sound2_Onset,Sound3_Duration,Sound3_Onset,Sound4_Duration,Sound4_Onset,Fixation_Duration,trials_2.thisRepN,trials_2.thisTrialN,trials_2.thisN,trials_2.thisIndex,trials.thisRepN,trials.thisTrialN,trials.thisN,trials.thisIndex,text_start.started,key_resp_start.started,key_resp_start.keys,key_resp_start.rt,cue_file1.started,cue_file1.stopped,image_1.started,image_1.stopped,image_2.started,image_2.stopped,sound_icon1.started,sound_icon1.stopped,sound_1.started,sound_1.stopped,sound_icon2.started,sound_icon2.stopped,sound_2.started,sound_2.stopped,image_blank_1.started,image_blank_1.stopped,key_press.started,key_press.stopped,fixation_text.started,cue_file2.started,cue_file2.stopped,image_3.started,image_3.stopped,image_4.started,image_4.stopped,sound_icon3.started,sound_icon3.stopped,sound_3.started,sound_3.stopped,sound_icon4.started,sound_icon4.stopped,sound_4.started,sound_4.stopped,response_yes.started,response_yes.stopped,response_no.started,response_no.stopped,iti_blank.started,iti_blank.stopped,fixation_text.stopped,key_press.keys,key_press.corr,key_press.rt,text_score.started,participant,session,date,expName,psychopyVersion,frameRate,
,,,,,,,,,,,,,,,,,,,,,,,,,,,,,,,,,,,,,,,,,,,,,,,,,,,,9.08106212504208,9.08106212504208,2,4.105215789866634,,,,,,,,,,,,,,,,,,,,,,,,,,,,,,,,,,,,,,,,,,,,,reldom2_s032,001,2025-03-12_14h52.20.922,practice_test1_AC,2022.2.5,None,
,,,,,,,,,,,,,,,,,,,,,,,,,,,,,,,,,,,,,,,,,,,,0,0,0,0,,,,,,,,,,,,,,,,,,,,,,,,,,,,,,,,,,,,,,,,,,,,,,,,,,,,,reldom2_s032,001,2025-03-12_14h52.20.922,practice_test1_AC,2022.2.5,None,
,,,,,,,,,,,,,,,,,,,,,,,,,,,,,,,,,,,,,,,,,,,,1,0,1,0,,,,,,,,,,,,,,,,,,,,,,,,,,,,,,,,,,,,,,,,,,,,,,,,,,,,,reldom2_s032,001,2025-03-12_14h52.20.922,practice_test1_AC,2022.2.5,None,
,,,,,,,,,,,,,,,,,,,,,,,,,,,,,,,,,,,,,,,,,,,,2,0,2,0,,,,,,,,,,,,,,,,,,,,,,,,,,,,,,,,,,,,,,,,,,,,,,,,,,,,,reldom2_s032,001,2025-03-12_14h52.20.922,practice_test1_AC,2022.2.5,None,
,,,,,,,,,,,,,,,,,,,,,,,,,,,,,,,,,,,,,,,,,,,,3,0,3,0,,,,,,,,,,,,,,,,,,,,,,,,,,,,,,,,,,,,,,,,,,,,,,,,,,,,,reldom2_s032,001,2025-03-12_14h52.20.922,practice_test1_AC,2022.2.5,None,
0,0.0,None,fixation,stimulus/viswhere_stim/blank_white.png,stimulus/viswhere_stim/blank_white.png,stimulus/audwhere_stim/blank_white.png,stimulus/audwhere_stim/blank_white.png,stimulus/viswhere_stim/blank_white.png,stimulus/viswhere_stim/blank_white.png,stimulus/viswhere_stim/blank_white.png,stimulus/viswhere_stim/blank_white.png,0.0,0.0,0.0,0.0,0,0.0,0,0.0,0,0.0,0,0.0,0,0.0,0.0,0,0.0,0,0.0,0,0.0,0,0.0,0,0.0,0,0.0,0,0.0,0,0.0,6,,,,,0,0,0,0,,,,,13.421094333054498,13.421094333054498,13.421094333054498,13.421094333054498,13.421094333054498,13.421094333054498,13.421094333054498,13.421094333054498,13.307266291665535,13.421094333054498,13.421094333054498,13.421094333054498,13.307266291665535,13.421094333054498,13.421094333054498,13.421094333054498,13.421094333054498,13.421094333054498,13.421094333054498,13.421094333054498,13.421094333054498,13.421094333054498,13.421094333054498,13.421094333054498,13.421094333054498,13.421094333054498,13.421094333054498,13.373932958332201,13.421094333054498,13.421094333054498,13.421094333054498,13.373932958332201,13.421094333054498,13.421094333054498,13.421094333054498,13.421094333054498,13.421094333054498,18.627582875080407,18.627582875080407,19.59428104199469,None,0,,,reldom2_s032,001,2025-03-12_14h52.20.922,practice_test1_AC,2022.2.5,None,
1,First_Order,1.0,viswhere,stimulus/viswhere_stim/blank_white.png,stimulus/viswhere_stim/blank_white.png,stimulus/viswhere_stim/90-deg_dot-right_peru.png,stimulus/viswhere_stim/120-deg_dot-right_slateblue.png,stimulus/viswhere_stim/blank_white.png,stimulus/viswhere_stim/dot_box.png,stimulus/viswhere_stim/dot_yes.png,stimulus/viswhere_stim/dot_no.png,None,Dot,None,Dot,1,0.0,0,5.25,0,5.25,0,5.25,0,0.0,0.75,0,0.0,0,0.0,1,0.5,1,2.125,0,0.0,0,0.0,0,0.0,0,0.0,0,,,,,0,1,1,1,,,,,19.59428104199469,19.59428104199469,19.59428104199469,19.59428104199469,19.59428104199469,19.59428104199469,19.59428104199469,19.59428104199469,19.56953304200433,19.59428104199469,19.59428104199469,19.59428104199469,19.56953304200433,19.59428104199469,19.59428104199469,19.59428104199469,21.688699042075314,25.56817158299964,19.59428104199469,19.59428104199469,24.858771958039142,20.081406875047833,21.099046875024214,21.688699042075314,22.707953042001463,19.59428104199469,19.59428104199469,19.586199708670996,19.59428104199469,19.59428104199469,19.59428104199469,19.586199708670996,19.59428104199469,19.59428104199469,24.858771958039142,19.59428104199469,24.858771958039142,24.820680542034097,25.674464000039734,19.59428104199469,1,1,1.760879957000725,,reldom2_s032,001,2025-03-12_14h52.20.922,practice_test1_AC,2022.2.5,None,
2,First_Order,1.0,viswhere,stimulus/viswhere_stim/blank_white.png,stimulus/viswhere_stim/blank_white.png,stimulus/viswhere_stim/30-deg_dot-right_turquoise.png,stimulus/viswhere_stim/60-deg_dot-right_seagreen.png,stimulus/viswhere_stim/blank_white.png,stimulus/viswhere_stim/line_box.png,stimulus/viswhere_stim/line_yes.png,stimulus/viswhere_stim/line_no.png,None,Line,None,Dot,2,0.0,0,5.25,0,5.25,0,5.25,0,0.0,0.75,0,0.0,0,0.0,1,0.5,1,2.125,0,0.0,0,0.0,0,0.0,0,0.0,0,,,,,0,2,2,2,,,,,25.674464000039734,25.674464000039734,25.674464000039734,25.674464000039734,25.674464000039734,25.674464000039734,25.674464000039734,25.674464000039734,25.65150491633297,25.674464000039734,25.674464000039734,25.674464000039734,25.65150491633297,25.674464000039734,25.674464000039734,25.674464000039734,27.77000825002324,31.65212920808699,25.674464000039734,25.674464000039734,30.927323332987726,26.161954708048142,27.177995417034253,27.77000825002324,28.791406458010897,25.674464000039734,25.674464000039734,25.65150491633297,25.674464000039734,25.674464000039734,25.674464000039734,25.65150491633297,25.674464000039734,25.674464000039734,30.927323332987726,25.674464000039734,30.927323332987726,30.91134608304128,31.755581417004578,25.674464000039734,2,1,2.654317373991944,,reldom2_s032,001,2025-03-12_14h52.20.922,practice_test1_AC,2022.2.5,None,
3,First_Order,1.0,viswhere,stimulus/viswhere_stim/blank_white.png,stimulus/viswhere_stim/blank_white.png,stimulus/viswhere_stim/120-deg_dot-left_goldenrod.png,stimulus/viswhere_stim/90-deg_dot-left_seagreen.png,stimulus/viswhere_stim/blank_white.png,stimulus/viswhere_stim/line_box.png,stimulus/viswhere_stim/line_yes.png,stimulus/viswhere_stim/line_no.png,None,Line,None,Dot,2,0.0,0,5.25,0,5.25,0,5.25,0,0.0,0.75,0,0.0,0,0.0,1,0.5,1,2.125,0,0.0,0,0.0,0,0.0,0,0.0,0,,,,,0,3,3,3,,,,,31.755581417004578,31.755581417004578,31.755581417004578,31.755581417004578,31.755581417004578,31.755581417004578,31.755581417004578,31.755581417004578,31.735462541420322,31.755581417004578,31.755581417004578,31.755581417004578,31.735462541420322,31.755581417004578,31.755581417004578,31.755581417004578,33.85300412506331,37.82021704199724,31.755581417004578,31.755581417004578,37.02050966699608,32.24300691706594,33.26050425006542,33.85300412506331,34.880441250046715,31.755581417004578,31.755581417004578,31.735462541420322,31.755581417004578,31.755581417004578,31.755581417004578,31.735462541420322,31.755581417004578,31.755581417004578,37.02050966699608,31.755581417004578,37.02050966699608,36.98226604203228,37.82021704199724,31.755581417004578,2,1,0.9362918318947777,,reldom2_s032,001,2025-03-12_14h52.20.922,practice_test1_AC,2022.2.5,None,
4,First_Order,1.0,viswhere,stimulus/viswhere_stim/blank_white.png,stimulus/viswhere_stim/blank_white.png,stimulus/viswhere_stim/150-deg_dot-right_royalblue.png,stimulus/viswhere_stim/150-deg_dot-left_slateblue.png,stimulus/viswhere_stim/blank_white.png,stimulus/viswhere_stim/dot_box.png,stimulus/viswhere_stim/dot_yes.png,stimulus/viswhere_stim/dot_no.png,None,Dot,None,Line,2,0.0,0,5.25,0,5.25,0,5.25,0,0.0,0.75,0,0.0,0,0.0,1,0.5,1,2.125,0,0.0,0,0.0,0,0.0,0,0.0,0,,,,,0,4,4,4,,,,,37.82021704199724,37.82021704199724,37.82021704199724,37.82021704199724,37.82021704199724,37.82021704199724,37.82021704199724,37.82021704199724,37.80032104133473,37.82021704199724,37.82021704199724,37.82021704199724,37.80032104133473,37.82021704199724,37.82021704199724,37.82021704199724,39.92478991707321,43.79301275010221,37.82021704199724,37.82021704199724,43.07667554204818,38.31262462504674,39.322089125053026,39.92478991707321,40.940776083036326,37.82021704199724,37.82021704199724,37.80032104133473,37.82021704199724,37.82021704199724,37.82021704199724,37.80032104133473,37.82021704199724,37.82021704199724,43.07667554204818,37.82021704199724,43.07667554204818,43.060354833025485,43.97045329201501,37.82021704199724,2,1,0.831302331876941,,reldom2_s032,001,2025-03-12_14h52.20.922,practice_test1_AC,2022.2.5,None,
0,0.0,None,fixation,stimulus/viswhere_stim/blank_white.png,stimulus/viswhere_stim/blank_white.png,stimulus/audwhere_stim/blank_white.png,stimulus/audwhere_stim/blank_white.png,stimulus/viswhere_stim/blank_white.png,stimulus/viswhere_stim/blank_white.png,stimulus/viswhere_stim/blank_white.png,stimulus/viswhere_stim/blank_white.png,0.0,0.0,0.0,0.0,0,0.0,0,0.0,0,0.0,0,0.0,0,0.0,0.0,0,0.0,0,0.0,0,0.0,0,0.0,0,0.0,0,0.0,0,0.0,0,0.0,5,,,,,0,5,5,5,,,,,43.97045329201501,43.97045329201501,43.97045329201501,43.97045329201501,43.97045329201501,43.97045329201501,43.97045329201501,43.97045329201501,43.87634608343554,43.97045329201501,43.97045329201501,43.97045329201501,43.87634608343554,43.97045329201501,43.97045329201501,43.97045329201501,43.97045329201501,43.97045329201501,43.97045329201501,43.97045329201501,43.97045329201501,43.97045329201501,43.97045329201501,43.97045329201501,43.97045329201501,43.97045329201501,43.97045329201501,43.92634608343554,43.97045329201501,43.97045329201501,43.97045329201501,43.92634608343554,43.97045329201501,43.97045329201501,43.97045329201501,43.97045329201501,43.97045329201501,49.23161404207349,49.23161404207349,49.0075012500165,None,0,,,reldom2_s032,001,2025-03-12_14h52.20.922,practice_test1_AC,2022.2.5,None,
5,Second_Order,1.0,viswhere,stimulus/viswhere_stim/150-deg_dot-right_slateblue.png,stimulus/viswhere_stim/150-deg_dot-left_turquoise.png,stimulus/viswhere_stim/90-deg_dot-left_mediumslateblue.png,stimulus/viswhere_stim/90-deg_dot-right_peru.png,stimulus/viswhere_stim/match_blank.png,stimulus/viswhere_stim/match_box.png,stimulus/viswhere_stim/match_yes.png,stimulus/viswhere_stim/match_no.png,1.0,Match,Line,Line,1,5.25,0,5.25,0,5.25,0,5.25,0,0.75,0.75,1,0.5,1,2.125,1,0.5,1,2.125,0,0.0,0,0.0,0,0.0,0,0.0,0,,,,,0,6,6,6,,,,,49.23161404207349,54.4843505830504,49.70979066705331,50.70924179209396,51.33056033309549,52.32728325005155,49.23161404207349,49.23161404207349,49.23102037465821,49.23161404207349,49.23161404207349,49.23161404207349,49.23102037465821,49.23161404207349,54.4843505830504,55.28949195810128,57.35340216709301,61.22340579202864,55.28949195810128,55.28949195810128,60.54952333308756,55.72866950009484,56.74708354205359,57.35340216709301,58.35856812505517,55.28949195810128,55.28949195810128,55.2710225421004,55.28949195810128,55.28949195810128,55.28949195810128,55.2710225421004,55.28949195810128,55.28949195810128,60.54952333308756,55.28949195810128,60.54952333308756,60.48500900005456,61.26346366701182,55.28949195810128,1,1,0.8462725399294868,,reldom2_s032,001,2025-03-12_14h52.20.922,practice_test1_AC,2022.2.5,None,
6,Second_Order,1.0,viswhere,stimulus/viswhere_stim/150-deg_dot-right_mediumslateblue.png,stimulus/viswhere_stim/30-deg_dot-right_salmon.png,stimulus/viswhere_stim/120-deg_dot-right_royalblue.png,stimulus/viswhere_stim/120-deg_dot-left_salmon.png,stimulus/viswhere_stim/match_blank.png,stimulus/viswhere_stim/match_box.png,stimulus/viswhere_stim/match_yes.png,stimulus/viswhere_stim/match_no.png,2.0,Match,Dot,Line,2,5.25,0,5.25,0,5.25,0,5.25,0,0.75,0.75,1,0.5,1,2.125,1,0.5,1,2.125,0,0.0,0,0.0,0,0.0,0,0.0,0,,,,,0,7,7,7,,,,,61.26346366701182,66.50422658305615,61.7429712919984,62.739345833077095,63.36960479209665,64.37171075004153,61.26346366701182,61.26346366701182,61.27340579202864,61.26346366701182,61.26346366701182,61.26346366701182,61.27340579202864,61.26346366701182,66.50422658305615,67.30667983309831,69.39250100008212,73.24590370804071,67.30667983309831,67.30667983309831,72.56085608305875,67.77155158307869,68.78504725010134,69.39250100008212,70.4153060830431,67.30667983309831,67.30667983309831,67.27721941634857,67.30667983309831,67.30667983309831,67.30667983309831,67.27721941634857,67.30667983309831,67.30667983309831,72.56085608305875,67.30667983309831,72.56085608305875,72.5218679580139,73.44250991707668,67.30667983309831,2,1,1.087151831947267,,reldom2_s032,001,2025-03-12_14h52.20.922,practice_test1_AC,2022.2.5,None,
0,0.0,None,fixation,stimulus/viswhere_stim/blank_white.png,stimulus/viswhere_stim/blank_white.png,stimulus/audwhere_stim/blank_white.png,stimulus/audwhere_stim/blank_white.png,stimulus/viswhere_stim/blank_white.png,stimulus/viswhere_stim/blank_white.png,stimulus/viswhere_stim/blank_white.png,stimulus/viswhere_stim/blank_white.png,0.0,0.0,0.0,0.0,0,0.0,0,0.0,0,0.0,0,0.0,0,0.0,0.0,0,0.0,0,0.0,0,0.0,0,0.0,0,0.0,0,0.0,0,0.0,0,0.0,7,,,,,0,8,8,8,,,,,73.44250991707668,73.44250991707668,73.44250991707668,73.44250991707668,73.44250991707668,73.44250991707668,73.44250991707668,73.44250991707668,73.345010416427,73.44250991707668,73.44250991707668,73.44250991707668,73.345010416427,73.44250991707668,73.44250991707668,73.44250991707668,73.44250991707668,73.44250991707668,73.44250991707668,73.44250991707668,73.44250991707668,73.44250991707668,73.44250991707668,73.44250991707668,73.44250991707668,73.44250991707668,73.44250991707668,73.395010416427,73.44250991707668,73.44250991707668,73.44250991707668,73.395010416427,73.44250991707668,73.44250991707668,73.44250991707668,73.44250991707668,73.44250991707668,78.63553900003899,78.63553900003899,80.71836633305065,None,0,,,reldom2_s032,001,2025-03-12_14h52.20.922,practice_test1_AC,2022.2.5,None,
7,First_Order,2.0,audwhere,stimulus/audwhere_stim/dummy.wav,stimulus/audwhere_stim/dummy.wav,stimulus/audwhere_stim/left_toward_270h.wav,stimulus/audwhere_stim/right_toward_270h.wav,stimulus/audwhere_stim/blank_white.png,stimulus/audwhere_stim/direction_box.png,stimulus/audwhere_stim/direction_yes.png,stimulus/audwhere_stim/direction_no.png,None,Direction,None,Direction,1,0.0,0,5.25,0,5.25,0,5.25,0,0.0,0.75,0,0.0,0,0.0,0,0.0,0,0.0,0,0.0,0,0.0,1,0.5,1,2.125,0,,,,,0,9,9,9,,,,,80.71836633305065,80.71836633305065,80.71836633305065,80.71836633305065,80.71836633305065,80.71836633305065,80.71836633305065,80.71836633305065,80.6452510416663,80.71836633305065,80.71836633305065,80.71836633305065,80.6452510416663,80.71836633305065,80.71836633305065,80.71836633305065,82.82786079205107,86.6614880830748,80.71836633305065,80.71836633305065,86.01821845804807,80.71836633305065,80.71836633305065,80.71836633305065,80.71836633305065,81.20991483307444,82.28975825000089,81.17681416665825,,82.82786079205107,83.90720545803197,82.79519483371793,,80.71836633305065,86.01821845804807,80.71836633305065,86.01821845804807,85.92617937503383,86.8752092079958,80.71836633305065,1,1,1.947769415914081,,reldom2_s032,001,2025-03-12_14h52.20.922,practice_test1_AC,2022.2.5,None,
8,First_Order,2.0,audwhere,stimulus/audwhere_stim/dummy.wav,stimulus/audwhere_stim/dummy.wav,stimulus/audwhere_stim/right_away_280h.wav,stimulus/audwhere_stim/right_toward_290h.wav,stimulus/audwhere_stim/blank_white.png,stimulus/audwhere_stim/side_box.png,stimulus/audwhere_stim/side_yes.png,stimulus/audwhere_stim/side_no.png,None,Side,None,Side,1,0.0,0,5.25,0,5.25,0,5.25,0,0.0,0.75,0,0.0,0,0.0,0,0.0,0,0.0,0,0.0,0,0.0,1,0.5,1,2.125,0,,,,,0,10,10,10,,,,,86.8752092079958,86.8752092079958,86.8752092079958,86.8752092079958,86.8752092079958,86.8752092079958,86.8752092079958,86.8752092079958,86.79482141640813,86.8752092079958,86.8752092079958,86.8752092079958,86.79482141640813,86.8752092079958,86.8752092079958,86.8752092079958,88.97833987500053,92.81530562508851,86.8752092079958,86.8752092079958,92.17072562500834,86.8752092079958,86.8752092079958,86.8752092079958,86.8752092079958,87.36602616705932,88.4408219170291,87.33372837474259,,88.97833987500053,90.05590200005099,88.94554837473358,,86.8752092079958,92.17072562500834,86.8752092079958,92.17072562500834,92.07907420804258,93.02791508298833,86.8752092079958,1,1,1.9206079159630463,,reldom2_s032,001,2025-03-12_14h52.20.922,practice_test1_AC,2022.2.5,None,
9,First_Order,2.0,audwhere,stimulus/audwhere_stim/dummy.wav,stimulus/audwhere_stim/dummy.wav,stimulus/audwhere_stim/right_away_270h.wav,stimulus/audwhere_stim/right_toward_300h.wav,stimulus/audwhere_stim/blank_white.png,stimulus/audwhere_stim/side_box.png,stimulus/audwhere_stim/side_yes.png,stimulus/audwhere_stim/side_no.png,None,Side,None,Side,1,0.0,0,5.25,0,5.25,0,5.25,0,0.0,0.75,0,0.0,0,0.0,0,0.0,0,0.0,0,0.0,0,0.0,1,0.5,1,2.125,0,,,,,0,11,11,11,,,,,93.02791508298833,93.02791508298833,93.02791508298833,93.02791508298833,93.02791508298833,93.02791508298833,93.02791508298833,93.02791508298833,92.94863895842184,93.02791508298833,93.02791508298833,93.02791508298833,92.94863895842184,93.02791508298833,93.02791508298833,93.02791508298833,95.14033287507482,98.9781446250854,93.02791508298833,93.02791508298833,98.33437666704413,93.02791508298833,93.02791508298833,93.02791508298833,93.02791508298833,93.5195994580863,94.55108745803591,93.4870302917591,,95.14033287507482,96.17444104200695,95.10821829172006,,93.02791508298833,98.33437666704413,93.02791508298833,98.33437666704413,98.24186087504495,99.19266875006724,93.02791508298833,1,1,1.8461108319461346,,reldom2_s032,001,2025-03-12_14h52.20.922,practice_test1_AC,2022.2.5,None,
10,First_Order,2.0,audwhere,stimulus/audwhere_stim/dummy.wav,stimulus/audwhere_stim/dummy.wav,stimulus/audwhere_stim/right_toward_300h.wav,stimulus/audwhere_stim/right_away_290h.wav,stimulus/audwhere_stim/blank_white.png,stimulus/audwhere_stim/direction_box.png,stimulus/audwhere_stim/direction_yes.png,stimulus/audwhere_stim/direction_no.png,None,Direction,None,Side,2,0.0,0,5.25,0,5.25,0,5.25,0,0.0,0.75,0,0.0,0,0.0,0,0.0,0,0.0,0,0.0,0,0.0,1,0.5,1,2.125,0,,,,,0,12,12,12,,,,,99.19266875006724,99.19266875006724,99.19266875006724,99.19266875006724,99.19266875006724,99.19266875006724,99.19266875006724,99.19266875006724,99.11147795841873,99.19266875006724,99.19266875006724,99.19266875006724,99.11147795841873,99.19266875006724,99.19266875006724,99.19266875006724,101.27906254201662,105.14436550007667,99.19266875006724,99.19266875006724,104.49718562501948,99.19266875006724,99.19266875006724,99.19266875006724,99.19266875006724,99.63762312498875,100.68234312499408,99.6050390836938,,101.27906254201662,102.32086054200772,101.24611087475593,,99.19266875006724,104.49718562501948,99.19266875006724,104.49718562501948,104.4041926250793,105.37947150005493,99.19266875006724,2,1,1.9489350409712642,,reldom2_s032,001,2025-03-12_14h52.20.922,practice_test1_AC,2022.2.5,None,
0,0.0,None,fixation,stimulus/viswhere_stim/blank_white.png,stimulus/viswhere_stim/blank_white.png,stimulus/audwhere_stim/blank_white.png,stimulus/audwhere_stim/blank_white.png,stimulus/viswhere_stim/blank_white.png,stimulus/viswhere_stim/blank_white.png,stimulus/viswhere_stim/blank_white.png,stimulus/viswhere_stim/blank_white.png,0.0,0.0,0.0,0.0,0,0.0,0,0.0,0,0.0,0,0.0,0,0.0,0.0,0,0.0,0,0.0,0,0.0,0,0.0,0,0.0,0,0.0,0,0.0,0,0.0,5,,,,,0,13,13,13,,,,,105.37947150005493,105.37947150005493,105.37947150005493,105.37947150005493,105.37947150005493,105.37947150005493,105.37947150005493,105.37947150005493,105.27769883341,105.37947150005493,105.37947150005493,105.37947150005493,105.27769883341,105.37947150005493,105.37947150005493,105.37947150005493,105.37947150005493,105.37947150005493,105.37947150005493,105.37947150005493,105.37947150005493,105.37947150005493,105.37947150005493,105.37947150005493,105.37947150005493,105.37947150005493,105.37947150005493,105.32769883341001,105.37947150005493,105.37947150005493,105.37947150005493,105.32769883341001,105.37947150005493,105.37947150005493,105.37947150005493,105.37947150005493,105.37947150005493,110.6675334169995,110.6675334169995,110.46596500009764,None,0,,,reldom2_s032,001,2025-03-12_14h52.20.922,practice_test1_AC,2022.2.5,None,
11,Second_Order,2.0,audwhere,stimulus/audwhere_stim/right_toward_270h.wav,stimulus/audwhere_stim/left_toward_290h.wav,stimulus/audwhere_stim/left_away_270h.wav,stimulus/audwhere_stim/left_toward_290h.wav,stimulus/viswhere_stim/match_blank.png,stimulus/viswhere_stim/match_box.png,stimulus/viswhere_stim/match_yes.png,stimulus/viswhere_stim/match_no.png,2.0,Match,Direction,Side,2,5.25,0,5.25,0,5.25,0,5.25,0,0.75,0.75,0,0.0,0,0.0,0,0.0,0,0.0,1,0.5,1,2.125,1,0.5,1,2.125,0,,,,,0,14,14,14,,,,,110.6675334169995,115.90836883301381,110.6675334169995,110.6675334169995,110.6675334169995,110.6675334169995,111.1170866250759,112.10727362509351,111.12577404169521,,112.74290708301123,113.73434875009116,112.7516884167601,,115.90836883301381,116.76506500004325,118.84413733310066,122.70548075006809,116.76506500004325,116.76506500004325,122.05547379201744,116.76506500004325,116.76506500004325,116.76506500004325,116.76506500004325,117.2157547500683,118.25338741706219,117.18233424966844,,118.84413733310066,119.88071379205212,118.81131529173969,,116.76506500004325,122.05547379201744,116.76506500004325,122.05547379201744,121.96092537499499,122.82817275007255,116.76506500004325,2,1,1.3050381659995764,,reldom2_s032,001,2025-03-12_14h52.20.922,practice_test1_AC,2022.2.5,None,
12,Second_Order,2.0,audwhere,stimulus/audwhere_stim/left_toward_270h.wav,stimulus/audwhere_stim/right_toward_300h.wav,stimulus/audwhere_stim/right_toward_300h.wav,stimulus/audwhere_stim/right_away_270h.wav,stimulus/viswhere_stim/match_blank.png,stimulus/viswhere_stim/match_box.png,stimulus/viswhere_stim/match_yes.png,stimulus/viswhere_stim/match_no.png,2.0,Match,Direction,Side,2,5.25,0,5.25,0,5.25,0,5.25,0,0.75,0.75,0,0.0,0,0.0,0,0.0,0,0.0,1,0.5,1,2.125,1,0.5,1,2.125,0,,,,,0,15,15,15,,,,,122.82817275007255,128.07374766701832,122.82817275007255,122.82817275007255,122.82817275007255,122.82817275007255,123.27984837500844,124.27634641702753,123.28863829170974,,124.90098641708028,125.89308200008236,124.90896499966426,,128.07374766701832,128.9458792920923,130.99766329210252,134.87060441705398,128.9458792920923,128.9458792920923,134.22169141704217,128.9458792920923,128.9458792920923,128.9458792920923,128.9458792920923,129.39837958302815,130.44887562503573,129.36389720876858,,130.99766329210252,132.03678075002972,130.96414912474964,,128.9458792920923,134.22169141704217,128.9458792920923,134.22169141704217,134.12797208304983,135.1046198750846,128.9458792920923,2,1,1.154658165993169,,reldom2_s032,001,2025-03-12_14h52.20.922,practice_test1_AC,2022.2.5,None,
0,0.0,None,fixation,stimulus/viswhere_stim/blank_white.png,stimulus/viswhere_stim/blank_white.png,stimulus/audwhere_stim/blank_white.png,stimulus/audwhere_stim/blank_white.png,stimulus/viswhere_stim/blank_white.png,stimulus/viswhere_stim/blank_white.png,stimulus/viswhere_stim/blank_white.png,stimulus/viswhere_stim/blank_white.png,0.0,0.0,0.0,0.0,0,0.0,0,0.0,0,0.0,0,0.0,0,0.0,0.0,0,0.0,0,0.0,0,0.0,0,0.0,0,0.0,0,0.0,0,0.0,0,0.0,5,,,,,0,16,16,16,,,,,135.1046198750846,135.1046198750846,135.1046198750846,135.1046198750846,135.1046198750846,135.1046198750846,135.1046198750846,135.1046198750846,135.00393775038734,135.1046198750846,135.1046198750846,135.1046198750846,135.00393775038734,135.1046198750846,135.1046198750846,135.1046198750846,135.1046198750846,135.1046198750846,135.1046198750846,135.1046198750846,135.1046198750846,135.1046198750846,135.1046198750846,135.1046198750846,135.1046198750846,135.1046198750846,135.1046198750846,135.05393775038732,135.1046198750846,135.1046198750846,135.1046198750846,135.05393775038732,135.1046198750846,135.1046198750846,135.1046198750846,135.1046198750846,135.1046198750846,140.45899454201572,140.45899454201572,140.1477952080313,None,0,,,reldom2_s032,001,2025-03-12_14h52.20.922,practice_test1_AC,2022.2.5,None,
13,First_Order,3.0,viswhat,stimulus/viswhat_stim/blank_white.png,stimulus/viswhat_stim/blank_white.png,stimulus/viswhat_stim/land_animal-ostrich.png,stimulus/viswhat_stim/land_vehicle-trolley.png,stimulus/viswhat_stim/blank_white.png,stimulus/viswhat_stim/location_box.png,stimulus/viswhat_stim/location_yes.png,stimulus/viswhat_stim/location_no.png,None,Location,None,Location,1,0.0,0,5.25,0,5.25,0,5.25,0,0.0,0.75,0,0.0,0,0.0,1,0.5,1,2.125,0,0.0,0,0.0,0,0.0,0,0.0,0,,,,,0,17,17,17,,,,,140.45899454201572,140.45899454201572,140.45899454201572,140.45899454201572,140.45899454201572,140.45899454201572,140.45899454201572,140.45899454201572,140.42553570870467,140.45899454201572,140.45899454201572,140.45899454201572,140.42553570870467,140.45899454201572,140.45899454201572,140.45899454201572,142.54978666699026,146.4287696670508,140.45899454201572,140.45899454201572,145.72774674999528,140.93187704205047,141.96771154203452,142.54978666699026,143.5868871670682,140.45899454201572,140.45899454201572,140.44220237537132,140.45899454201572,140.45899454201572,140.45899454201572,140.44220237537132,140.45899454201572,140.45899454201572,145.72774674999528,140.45899454201572,145.72774674999528,145.6776567500783,146.6457290831022,140.45899454201572,1,1,1.8400628740200773,,reldom2_s032,001,2025-03-12_14h52.20.922,practice_test1_AC,2022.2.5,None,
14,First_Order,3.0,viswhat,stimulus/viswhat_stim/blank_white.png,stimulus/viswhat_stim/blank_white.png,stimulus/viswhat_stim/water_vehicle-cruiser.png,stimulus/viswhat_stim/water_animal-stingray.png,stimulus/viswhat_stim/blank_white.png,stimulus/viswhat_stim/location_box.png,stimulus/viswhat_stim/location_yes.png,stimulus/viswhat_stim/location_no.png,None,Location,None,Location,1,0.0,0,5.25,0,5.25,0,5.25,0,0.0,0.75,0,0.0,0,0.0,1,0.5,1,2.125,0,0.0,0,0.0,0,0.0,0,0.0,0,,,,,0,18,18,18,,,,,146.6457290831022,146.6457290831022,146.6457290831022,146.6457290831022,146.6457290831022,146.6457290831022,146.6457290831022,146.6457290831022,146.52876966705082,146.6457290831022,146.6457290831022,146.6457290831022,146.52876966705082,146.6457290831022,146.6457290831022,146.6457290831022,148.74930750008207,152.6079534169985,146.6457290831022,146.6457290831022,151.9946117080981,147.123348458088,148.20769066701178,148.74930750008207,149.83537558303215,146.6457290831022,146.6457290831022,146.5787696670508,146.6457290831022,146.6457290831022,146.6457290831022,146.5787696670508,146.6457290831022,146.6457290831022,151.9946117080981,146.6457290831022,151.9946117080981,151.8650353330886,152.8330464171013,146.6457290831022,1,1,1.0688347909599543,,reldom2_s032,001,2025-03-12_14h52.20.922,practice_test1_AC,2022.2.5,None,
15,First_Order,3.0,viswhat,stimulus/viswhat_stim/blank_white.png,stimulus/viswhat_stim/blank_white.png,stimulus/viswhat_stim/water_vehicle-cargoboat.png,stimulus/viswhat_stim/water_animal-squid.png,stimulus/viswhat_stim/blank_white.png,stimulus/viswhat_stim/type_box.png,stimulus/viswhat_stim/type_yes.png,stimulus/viswhat_stim/type_no.png,None,Type,None,Location,2,0.0,0,5.25,0,5.25,0,5.25,0,0.0,0.75,0,0.0,0,0.0,1,0.5,1,2.125,0,0.0,0,0.0,0,0.0,0,0.0,0,,,,,0,19,19,19,,,,,152.8330464171013,152.8330464171013,152.8330464171013,152.8330464171013,152.8330464171013,152.8330464171013,152.8330464171013,152.8330464171013,152.77462008366518,152.8330464171013,152.8330464171013,152.8330464171013,152.77462008366518,152.8330464171013,152.8330464171013,152.8330464171013,154.91567237500567,158.8001270419918,152.8330464171013,152.8330464171013,158.12453020806424,153.32036366709508,154.3638239580905,154.91567237500567,155.95635958306957,152.8330464171013,152.8330464171013,152.80795341699852,152.8330464171013,152.8330464171013,152.8330464171013,152.80795341699852,152.8330464171013,152.8330464171013,158.12453020806424,152.8330464171013,158.12453020806424,158.06204929202795,158.96169245801866,152.8330464171013,2,1,1.634888373897411,,reldom2_s032,001,2025-03-12_14h52.20.922,practice_test1_AC,2022.2.5,None,
16,First_Order,3.0,viswhat,stimulus/viswhat_stim/blank_white.png,stimulus/viswhat_stim/blank_white.png,stimulus/viswhat_stim/water_vehicle-ferryboat.png,stimulus/viswhat_stim/water_animal-seaturtle.png,stimulus/viswhat_stim/blank_white.png,stimulus/viswhat_stim/type_box.png,stimulus/viswhat_stim/type_yes.png,stimulus/viswhat_stim/type_no.png,None,Type,None,Location,2,0.0,0,5.25,0,5.25,0,5.25,0,0.0,0.75,0,0.0,0,0.0,1,0.5,1,2.125,0,0.0,0,0.0,0,0.0,0,0.0,0,,,,,0,20,20,20,,,,,158.96169245801866,158.96169245801866,158.96169245801866,158.96169245801866,158.96169245801866,158.96169245801866,158.96169245801866,158.96169245801866,158.90012704199182,158.96169245801866,158.96169245801866,158.96169245801866,158.90012704199182,158.96169245801866,158.96169245801866,158.96169245801866,161.07069791702088,164.9180853330763,158.96169245801866,158.96169245801866,164.2261315420037,159.448770374991,160.46971270802896,161.07069791702088,162.09277329209726,158.96169245801866,158.96169245801866,158.93346037532515,158.96169245801866,158.96169245801866,158.96169245801866,158.93346037532515,158.96169245801866,158.96169245801866,164.2261315420037,158.96169245801866,164.2261315420037,164.1947269170778,165.16430808301084,158.96169245801866,2,1,0.6991977069992572,,reldom2_s032,001,2025-03-12_14h52.20.922,practice_test1_AC,2022.2.5,None,
0,0.0,None,fixation,stimulus/viswhat_stim/blank_white.png,stimulus/viswhat_stim/blank_white.png,stimulus/audwhat_stim/blank_white.png,stimulus/audwhat_stim/blank_white.png,stimulus/viswhat_stim/blank_white.png,stimulus/viswhat_stim/blank_white.png,stimulus/viswhere_stim/blank_white.png,stimulus/viswhere_stim/blank_white.png,0.0,0.0,0.0,0.0,0,0.0,0,0.0,0,0.0,0,0.0,0,0.0,0.0,0,0.0,0,0.0,0,0.0,0,0.0,0,0.0,0,0.0,0,0.0,0,0.0,5,,,,,0,21,21,21,,,,,165.16430808301084,165.16430808301084,165.16430808301084,165.16430808301084,165.16430808301084,165.16430808301084,165.16430808301084,165.16430808301084,165.06588854171957,165.16430808301084,165.16430808301084,165.16430808301084,165.06588854171957,165.16430808301084,165.16430808301084,165.16430808301084,165.16430808301084,165.16430808301084,165.16430808301084,165.16430808301084,165.16430808301084,165.16430808301084,165.16430808301084,165.16430808301084,165.16430808301084,165.16430808301084,165.16430808301084,165.11588854171958,165.16430808301084,165.16430808301084,165.16430808301084,165.11588854171958,165.16430808301084,165.16430808301084,165.16430808301084,165.16430808301084,165.16430808301084,170.44796362507623,170.44796362507623,170.2578828750411,None,0,,,reldom2_s032,001,2025-03-12_14h52.20.922,practice_test1_AC,2022.2.5,None,
17,Second_Order,3.0,viswhat,stimulus/viswhat_stim/land_vehicle-motorcycle.png,stimulus/viswhat_stim/land_animal-dog.png,stimulus/viswhat_stim/water_animal-seahorse.png,stimulus/viswhat_stim/water_vehicle-cargoboat.png,stimulus/viswhere_stim/match_blank.png,stimulus/viswhere_stim/match_box.png,stimulus/viswhere_stim/match_yes.png,stimulus/viswhere_stim/match_no.png,1.0,Match,Location,Location,1,5.25,0,5.25,0,5.25,0,5.25,0,0.75,0.75,1,0.5,1,2.125,1,0.5,1,2.125,0,0.0,0,0.0,0,0.0,0,0.0,0,,,,,0,22,22,22,,,,,170.44796362507623,175.6942362920381,170.90963995805942,171.89872966706753,172.5347371250391,173.5298417500453,170.44796362507623,170.44796362507623,170.44598283342398,170.44796362507623,170.44796362507623,170.44796362507623,170.44598283342398,170.44796362507623,175.6942362920381,176.50807079207152,178.59243366704322,182.45342687505763,176.50807079207152,176.50807079207152,181.78145545802545,176.94357533298898,177.95756545802578,178.59243366704322,179.61361875000875,176.50807079207152,176.50807079207152,176.48095125001856,176.50807079207152,176.50807079207152,176.50807079207152,176.48095125001856,176.50807079207152,176.50807079207152,181.78145545802545,176.50807079207152,181.78145545802545,181.70758712501265,182.51382295798976,176.50807079207152,1,1,0.7833762069931254,,reldom2_s032,001,2025-03-12_14h52.20.922,practice_test1_AC,2022.2.5,None,
18,Second_Order,3.0,viswhat,stimulus/viswhat_stim/water_animal-squid.png,stimulus/viswhat_stim/land_animal-snake.png,stimulus/viswhat_stim/land_animal-fox.png,stimulus/viswhat_stim/land_vehicle-oldcar.png,stimulus/viswhere_stim/match_blank.png,stimulus/viswhere_stim/match_box.png,stimulus/viswhere_stim/match_yes.png,stimulus/viswhere_stim/match_no.png,2.0,Match,Type,Location,2,5.25,0,5.25,0,5.25,0,5.25,0,0.75,0.75,1,0.5,1,2.125,1,0.5,1,2.125,0,0.0,0,0.0,0,0.0,0,0.0,0,,,,,0,23,23,23,,,,,182.51382295798976,187.76016649999656,182.98399445798714,183.97942841704935,184.6065190830268,185.6004935830133,182.51382295798976,182.51382295798976,182.52009354172432,182.51382295798976,182.51382295798976,182.51382295798976,182.52009354172432,182.51382295798976,187.76016649999656,188.61531433300115,190.67261137499008,194.54798716702498,188.61531433300115,188.61531433300115,193.91976070799865,189.0733524580719,190.12631845800206,190.67261137499008,191.7291685830569,188.61531433300115,188.61531433300115,188.5670594166887,188.61531433300115,188.61531433300115,188.61531433300115,188.5670594166887,188.61531433300115,188.61531433300115,193.91976070799865,188.61531433300115,193.91976070799865,193.78892104199622,194.77871779201087,188.61531433300115,2,1,0.7085987068712711,,reldom2_s032,001,2025-03-12_14h52.20.922,practice_test1_AC,2022.2.5,None,
0,0.0,None,fixation,stimulus/viswhat_stim/blank_white.png,stimulus/viswhat_stim/blank_white.png,stimulus/audwhat_stim/blank_white.png,stimulus/audwhat_stim/blank_white.png,stimulus/viswhat_stim/blank_white.png,stimulus/viswhat_stim/blank_white.png,stimulus/viswhere_stim/blank_white.png,stimulus/viswhere_stim/blank_white.png,0.0,0.0,0.0,0.0,0,0.0,0,0.0,0,0.0,0,0.0,0,0.0,0.0,0,0.0,0,0.0,0,0.0,0,0.0,0,0.0,0,0.0,0,0.0,0,0.0,6,,,,,0,24,24,24,,,,,194.77871779201087,194.77871779201087,194.77871779201087,194.77871779201087,194.77871779201087,194.77871779201087,194.77871779201087,194.77871779201087,194.68132050035834,194.77871779201087,194.77871779201087,194.77871779201087,194.68132050035834,194.77871779201087,194.77871779201087,194.77871779201087,194.77871779201087,194.77871779201087,194.77871779201087,194.77871779201087,194.77871779201087,194.77871779201087,194.77871779201087,194.77871779201087,194.77871779201087,194.77871779201087,194.77871779201087,194.73132050035832,194.77871779201087,194.77871779201087,194.77871779201087,194.73132050035832,194.77871779201087,194.77871779201087,194.77871779201087,194.77871779201087,194.77871779201087,199.97601225005928,199.97601225005928,201.05950441700406,None,0,,,reldom2_s032,001,2025-03-12_14h52.20.922,practice_test1_AC,2022.2.5,None,
19,First_Order,4.0,audwhat,stimulus/audwhat_stim/dummy.wav,stimulus/audwhat_stim/dummy.wav,stimulus/audwhat_stim/percussion xylophone_high-pitch_D_loud.wav,stimulus/audwhat_stim/string viola_high-pitch_D_loud.wav,stimulus/audwhat_stim/blank_white.png,stimulus/audwhat_stim/pitch_box.png,stimulus/audwhat_stim/pitch_yes.png,stimulus/audwhat_stim/pitch_no.png,None,Pitch,None,Pitch,1,0.0,0,5.25,0,5.25,0,5.25,0,0.0,0.75,0,0.0,0,0.0,0,0.0,0,0.0,0,0.0,0,0.0,1,0.5,1,2.125,0,,,,,0,25,25,25,,,,,201.05950441700406,201.05950441700406,201.05950441700406,201.05950441700406,201.05950441700406,201.05950441700406,201.05950441700406,201.05950441700406,200.98247091673937,201.05950441700406,201.05950441700406,201.05950441700406,200.98247091673937,201.05950441700406,201.05950441700406,201.05950441700406,203.16132912505418,207.01807879202534,201.05950441700406,201.05950441700406,206.36239333299454,201.05950441700406,201.05950441700406,201.05950441700406,201.05950441700406,201.51242454210296,202.56157537503168,201.47905874968663,202.51174683310091,203.16132912505418,204.2135972500546,203.12769637472618,,201.05950441700406,206.36239333299454,201.05950441700406,206.36239333299454,206.2682576670777,207.2370705420617,201.05950441700406,1,1,2.623272164957598,,reldom2_s032,001,2025-03-12_14h52.20.922,practice_test1_AC,2022.2.5,None,
20,First_Order,4.0,audwhat,stimulus/audwhat_stim/dummy.wav,stimulus/audwhat_stim/dummy.wav,stimulus/audwhat_stim/string cello_high-pitch_Ftri_loud.wav,stimulus/audwhat_stim/string viola_low-pitch_F_loud.wav,stimulus/audwhat_stim/blank_white.png,stimulus/audwhat_stim/pitch_box.png,stimulus/audwhat_stim/pitch_yes.png,stimulus/audwhat_stim/pitch_no.png,None,Pitch,None,Category,2,0.0,0,5.25,0,5.25,0,5.25,0,0.0,0.75,0,0.0,0,0.0,0,0.0,0,0.0,0,0.0,0,0.0,1,0.5,1,2.125,0,,,,,0,26,26,26,,,,,207.2370705420617,207.2370705420617,207.2370705420617,207.2370705420617,207.2370705420617,207.2370705420617,207.2370705420617,207.2370705420617,207.1514121253587,207.2370705420617,207.2370705420617,207.2370705420617,207.1514121253587,207.2370705420617,207.2370705420617,207.2370705420617,209.3364724580897,213.18887137505226,207.2370705420617,207.2370705420617,212.53113466699142,207.2370705420617,207.2370705420617,207.2370705420617,207.2370705420617,207.6863563330844,208.73566804209258,207.65342262474977,,209.3364724580897,210.3861199170351,209.30282824970007,,207.2370705420617,212.53113466699142,207.2370705420617,212.53113466699142,212.43665958300699,213.4041377500398,207.2370705420617,1,0,1.6257859569741413,,reldom2_s032,001,2025-03-12_14h52.20.922,practice_test1_AC,2022.2.5,None,
21,First_Order,4.0,audwhat,stimulus/audwhat_stim/dummy.wav,stimulus/audwhat_stim/dummy.wav,stimulus/audwhat_stim/string viola_high-pitch_D_loud.wav,stimulus/audwhat_stim/percussion xylophone_high-pitch_D_loud.wav,stimulus/audwhat_stim/blank_white.png,stimulus/audwhat_stim/pitch_box.png,stimulus/audwhat_stim/pitch_yes.png,stimulus/audwhat_stim/pitch_no.png,None,Pitch,None,Pitch,1,0.0,0,5.25,0,5.25,0,5.25,0,0.0,0.75,0,0.0,0,0.0,0,0.0,0,0.0,0,0.0,0,0.0,1,0.5,1,2.125,0,,,,,0,27,27,27,,,,,213.4041377500398,213.4041377500398,213.4041377500398,213.4041377500398,213.4041377500398,213.4041377500398,213.4041377500398,213.4041377500398,213.3222047083856,213.4041377500398,213.4041377500398,213.4041377500398,213.3222047083856,213.4041377500398,213.4041377500398,213.4041377500398,215.50304341700394,219.35440920805559,213.4041377500398,213.4041377500398,218.6972881250549,213.4041377500398,213.4041377500398,213.4041377500398,213.4041377500398,213.85578383307438,214.90251662500668,213.82227649976656,,215.50304341700394,216.55545575008728,215.46950520872295,216.50518333306536,213.4041377500398,218.6972881250549,213.4041377500398,218.6972881250549,218.6036345830653,219.57535229204223,213.4041377500398,2,0,0.8760541660012677,,reldom2_s032,001,2025-03-12_14h52.20.922,practice_test1_AC,2022.2.5,None,
22,First_Order,4.0,audwhat,stimulus/audwhat_stim/dummy.wav,stimulus/audwhat_stim/dummy.wav,stimulus/audwhat_stim/string cello_low-pitch_F_loud.wav,stimulus/audwhat_stim/string viola_high-pitch_Ftri_loud.wav,stimulus/audwhat_stim/blank_white.png,stimulus/audwhat_stim/category_box.png,stimulus/audwhat_stim/category_yes.png,stimulus/audwhat_stim/category_no.png,None,Category,None,Category,1,0.0,0,5.25,0,5.25,0,5.25,0,0.0,0.75,0,0.0,0,0.0,0,0.0,0,0.0,0,0.0,0,0.0,1,0.5,1,2.125,0,,,,,0,28,28,28,,,,,219.57535229204223,219.57535229204223,219.57535229204223,219.57535229204223,219.57535229204223,219.57535229204223,219.57535229204223,219.57535229204223,219.48774254138894,219.57535229204223,219.57535229204223,219.57535229204223,219.48774254138894,219.57535229204223,219.57535229204223,219.57535229204223,221.64657408301719,225.5265425000107,219.57535229204223,219.57535229204223,224.86745791707654,219.57535229204223,219.57535229204223,219.57535229204223,219.57535229204223,220.03638175001834,221.09295258310158,220.0029249586553,,221.64657408301719,222.70559645805042,221.61306474969413,,219.57535229204223,224.86745791707654,219.57535229204223,224.86745791707654,224.7730217500357,225.76173645805102,219.57535229204223,1,1,1.0772682069800794,,reldom2_s032,001,2025-03-12_14h52.20.922,practice_test1_AC,2022.2.5,None,
0,0.0,None,fixation,stimulus/viswhat_stim/blank_white.png,stimulus/viswhat_stim/blank_white.png,stimulus/audwhat_stim/blank_white.png,stimulus/audwhat_stim/blank_white.png,stimulus/viswhat_stim/blank_white.png,stimulus/viswhat_stim/blank_white.png,stimulus/viswhere_stim/blank_white.png,stimulus/viswhere_stim/blank_white.png,0.0,0.0,0.0,0.0,0,0.0,0,0.0,0,0.0,0,0.0,0,0.0,0.0,0,0.0,0,0.0,0,0.0,0,0.0,0,0.0,0,0.0,0,0.0,0,0.0,5,,,,,0,29,29,29,,,,,225.76173645805102,225.76173645805102,225.76173645805102,225.76173645805102,225.76173645805102,225.76173645805102,225.76173645805102,225.76173645805102,225.65987583334405,225.76173645805102,225.76173645805102,225.76173645805102,225.65987583334405,225.76173645805102,225.76173645805102,225.76173645805102,225.76173645805102,225.76173645805102,225.76173645805102,225.76173645805102,225.76173645805102,225.76173645805102,225.76173645805102,225.76173645805102,225.76173645805102,225.76173645805102,225.76173645805102,225.70987583334403,225.76173645805102,225.76173645805102,225.76173645805102,225.70987583334403,225.76173645805102,225.76173645805102,225.76173645805102,225.76173645805102,225.76173645805102,231.0891878750408,231.0891878750408,230.8258393330034,None,0,,,reldom2_s032,001,2025-03-12_14h52.20.922,practice_test1_AC,2022.2.5,None,
23,Second_Order,4.0,audwhat,stimulus/audwhat_stim/percussion mallet_high-pitch_D_loud.wav,stimulus/audwhat_stim/string cello_high-pitch_D_loud.wav,stimulus/audwhat_stim/percussion mallet_low-pitch_F_loud.wav,stimulus/audwhat_stim/percussion xylophone_high-pitch_Ftri_loud.wav,stimulus/viswhere_stim/match_blank.png,stimulus/viswhere_stim/match_box.png,stimulus/viswhere_stim/match_yes.png,stimulus/viswhere_stim/match_no.png,2.0,Match,Pitch,Category,2,5.25,0,5.25,0,5.25,0,5.25,0,0.75,0.75,0,0.0,0,0.0,0,0.0,0,0.0,1,0.5,1,2.125,1,0.5,1,2.125,0,,,,,0,30,30,30,,,,,231.0891878750408,236.32952804199886,231.0891878750408,231.0891878750408,231.0891878750408,231.0891878750408,231.5333897920791,232.52562441700138,231.54211720865376,,233.16146500001196,234.15281008300371,233.17114620871533,,236.32952804199886,237.1903113750741,239.2494744580472,243.1289258330362,237.1903113750741,237.1903113750741,242.46787429205142,237.1903113750741,237.1903113750741,237.1903113750741,237.1903113750741,237.6472739171004,238.69837345799897,237.61304508365382,,239.2494744580472,240.29849466704763,239.21591895871487,240.24877225002274,237.1903113750741,242.46787429205142,237.1903113750741,242.46787429205142,242.37403829209507,243.25294308306184,237.1903113750741,2,1,3.340995582868345,,reldom2_s032,001,2025-03-12_14h52.20.922,practice_test1_AC,2022.2.5,None,
24,Second_Order,4.0,audwhat,stimulus/audwhat_stim/percussion mallet_low-pitch_Ftri_loud.wav,stimulus/audwhat_stim/percussion xylophone_high-pitch_F_loud.wav,stimulus/audwhat_stim/string cello_low-pitch_F_loud.wav,stimulus/audwhat_stim/string cello_high-pitch_Ftri_loud.wav,stimulus/viswhere_stim/match_blank.png,stimulus/viswhere_stim/match_box.png,stimulus/viswhere_stim/match_yes.png,stimulus/viswhere_stim/match_no.png,1.0,Match,Category,Category,1,5.25,0,5.25,0,5.25,0,5.25,0,0.75,0.75,0,0.0,0,0.0,0,0.0,0,0.0,1,0.5,1,2.125,1,0.5,1,2.125,0,,,,,0,31,31,31,,,,,243.25294308306184,248.50043316709343,243.25294308306184,243.25294308306184,243.25294308306184,243.25294308306184,243.7059845830081,244.70086166705005,243.71389716671936,,245.33016775001306,246.32631633302663,245.3382962917133,246.33347929199226,248.50043316709343,249.36931479210034,251.42203458305448,255.28832358308136,249.36931479210034,249.36931479210034,254.6753439171007,249.36931479210034,249.36931479210034,249.36931479210034,249.36931479210034,249.82382129202597,250.87306487502065,249.79067716672242,,251.42203458305448,252.4743735830998,251.38858808373723,,249.36931479210034,254.6753439171007,249.36931479210034,254.6753439171007,254.53045908303466,255.52307216706686,249.36931479210034,1,1,0.772319957963191,,reldom2_s032,001,2025-03-12_14h52.20.922,practice_test1_AC,2022.2.5,None,
0,0.0,None,fixation,stimulus/viswhat_stim/blank_white.png,stimulus/viswhat_stim/blank_white.png,stimulus/audwhat_stim/blank_white.png,stimulus/audwhat_stim/blank_white.png,stimulus/viswhat_stim/blank_white.png,stimulus/viswhat_stim/blank_white.png,stimulus/viswhere_stim/blank_white.png,stimulus/viswhere_stim/blank_white.png,0.0,0.0,0.0,0.0,0,0.0,0,0.0,0,0.0,0,0.0,0,0.0,0.0,0,0.0,0,0.0,0,0.0,0,0.0,0,0.0,0,0.0,0,0.0,0,0.0,5,,,,,0,32,32,32,,,,,255.52307216706686,255.52307216706686,255.52307216706686,255.52307216706686,255.52307216706686,255.52307216706686,255.52307216706686,255.52307216706686,255.42165691641472,255.52307216706686,255.52307216706686,255.52307216706686,255.42165691641472,255.52307216706686,255.52307216706686,255.52307216706686,255.52307216706686,255.52307216706686,255.52307216706686,255.52307216706686,255.52307216706686,255.52307216706686,255.52307216706686,255.52307216706686,255.52307216706686,255.52307216706686,255.52307216706686,255.4716569164147,255.52307216706686,255.52307216706686,255.52307216706686,255.4716569164147,255.52307216706686,255.52307216706686,255.52307216706686,255.52307216706686,255.52307216706686,260.830044250004,260.830044250004,260.5803022499895,None,0,,,reldom2_s032,001,2025-03-12_14h52.20.922,practice_test1_AC,2022.2.5,None,
,,,,,,,,,,,,,,,,,,,,,,,,,,,,,,,,,,,,,,,,,,,,,,,,,,,,,,,,,,,,,,,,,,,,,,,,,,,,,,,,,,,,,,,,,,,,,,,,,,,260.830044250004,,,,,,,
