Trial,Order,Block,Type,Stimuli_File1,Stimuli_File2,Stimuli_File3,Stimuli_File4,Cue_File1,Cue_File2,Response_File_Yes,Response_File_No,Match,Cue_Dimension,Pair1_Dimension,Pair2_Dimension,Key,Cue1_Duration,Cue1_Onset,Cue2_Duration,Cue2_Onset,ResponseYes_Duration,ResponseYes_Onset,ResponseNo_Duration,ResponseNo_Onset,ITI_Within,ITI_Between,Image1_Duration,Image1_Onset,Image2_Duration,Image2_Onset,Image3_Duration,Image3_Onset,Image4_Duration,Image4_Onset,Sound1_Duration,Sound1_Onset,Sound2_Duration,Sound2_Onset,Sound3_Duration,Sound3_Onset,Sound4_Duration,Sound4_Onset,Fixation_Duration,trials_2.thisRepN,trials_2.thisTrialN,trials_2.thisN,trials_2.thisIndex,trials.thisRepN,trials.thisTrialN,trials.thisN,trials.thisIndex,text_start.started,key_resp_start.started,key_resp_start.keys,key_resp_start.rt,text2.started,key_resp_2.started,key_resp_2.keys,key_resp_2.rt,cue_file1.started,cue_file1.stopped,image_1.started,image_1.stopped,image_2.started,image_2.stopped,sound_icon1.started,sound_icon1.stopped,sound_1.started,sound_1.stopped,sound_icon2.started,sound_icon2.stopped,sound_2.started,sound_2.stopped,image_blank_1.started,image_blank_1.stopped,key_press.started,key_press.stopped,fixation_text.started,cue_file2.started,cue_file2.stopped,image_3.started,image_3.stopped,image_4.started,image_4.stopped,sound_icon3.started,sound_icon3.stopped,sound_3.started,sound_3.stopped,sound_icon4.started,sound_icon4.stopped,sound_4.started,sound_4.stopped,response_yes.started,response_yes.stopped,response_no.started,response_no.stopped,iti_blank.started,iti_blank.stopped,fixation_text.stopped,key_press.keys,key_press.corr,key_press.rt,participant,session,date,expName,psychopyVersion,frameRate,
,,,,,,,,,,,,,,,,,,,,,,,,,,,,,,,,,,,,,,,,,,,,,,,,,,,,11.95514745800756,11.95514745800756,2,1.2590030829887837,,,,,,,,,,,,,,,,,,,,,,,,,,,,,,,,,,,,,,,,,,,,,,,,reldom2_s032,001,2025-03-12_15h55.03.719,Vis-A-Scan_AC,2022.2.5,None,
,,,,,,,,,,,,,,,,,,,,,,,,,,,,,,,,,,,,,,,,,,,,0,0,0,0,,,,,,,,,13.249177791061811,13.249177791061811,5,18.151375124929473,,,,,,,,,,,,,,,,,,,,,,,,,,,,,,,,,,,,,,,,,,,,reldom2_s032,001,2025-03-12_15h55.03.719,Vis-A-Scan_AC,2022.2.5,None,
,,,,,,,,,,,,,,,,,,,,,,,,,,,,,,,,,,,,,,,,,,,,1,0,1,0,,,,,,,,,31.40597779105883,31.40597779105883,5,1.9942119169281796,,,,,,,,,,,,,,,,,,,,,,,,,,,,,,,,,,,,,,,,,,,,reldom2_s032,001,2025-03-12_15h55.03.719,Vis-A-Scan_AC,2022.2.5,None,
,,,,,,,,,,,,,,,,,,,,,,,,,,,,,,,,,,,,,,,,,,,,2,0,2,0,,,,,,,,,33.42720062506851,33.42720062506851,5,1.9730074169347063,,,,,,,,,,,,,,,,,,,,,,,,,,,,,,,,,,,,,,,,,,,,reldom2_s032,001,2025-03-12_15h55.03.719,Vis-A-Scan_AC,2022.2.5,None,
,,,,,,,,,,,,,,,,,,,,,,,,,,,,,,,,,,,,,,,,,,,,3,0,3,0,,,,,,,,,35.42049795796629,35.42049795796629,5,1.9820620418759063,,,,,,,,,,,,,,,,,,,,,,,,,,,,,,,,,,,,,,,,,,,,reldom2_s032,001,2025-03-12_15h55.03.719,Vis-A-Scan_AC,2022.2.5,None,
0,0.0,None,fixation,stimulus/viswhat_stim/blank_white.png,stimulus/viswhat_stim/blank_white.png,stimulus/viswhere_stim/blank_white.png,stimulus/viswhere_stim/blank_white.png,stimulus/viswhat_stim/blank_white.png,stimulus/viswhat_stim/blank_white.png,stimulus/viswhat_stim/blank_white.png,stimulus/viswhat_stim/blank_white.png,0.0,0.0,0.0,0.0,0,0.0,0,0.0,0,0.0,0,0.0,0,0.0,0.0,0,0.0,0,0.0,0,0.0,0,0.0,0,0,0,0,0,0,0,0,16,,,,,0,0,0,0,,,,,,,,,37.61694025003817,37.61694025003817,37.61694025003817,37.61694025003817,37.61694025003817,37.61694025003817,37.61694025003817,37.61694025003817,37.52152033263507,37.61694025003817,37.61694025003817,37.61694025003817,37.52152033263507,37.61694025003817,37.61694025003817,37.61694025003817,37.61694025003817,37.61694025003817,37.61694025003817,37.61694025003817,37.61694025003817,37.61694025003817,37.61694025003817,37.61694025003817,37.61694025003817,37.61694025003817,37.61694025003817,37.57152033263507,37.61694025003817,37.61694025003817,37.61694025003817,37.57152033263507,37.61694025003817,37.61694025003817,37.61694025003817,37.61694025003817,37.61694025003817,42.79164962505456,42.79164962505456,53.880333416047506,None,0,,reldom2_s032,001,2025-03-12_15h55.03.719,Vis-A-Scan_AC,2022.2.5,None,
1,First_Order,1.0,viswhat,stimulus/viswhat_stim/blank_white.png,stimulus/viswhat_stim/blank_white.png,stimulus/viswhat_stim/land_animal-moose.png,stimulus/viswhat_stim/water_animal-seaturtle.png,stimulus/viswhat_stim/blank_white.png,stimulus/viswhat_stim/type_box.png,stimulus/viswhat_stim/type_yes.png,stimulus/viswhat_stim/type_no.png,None,Type,None,Type,1,0.0,0,5.125,0,5.125,0,5.125,0,0.0,0.625,0,0.0,0,0.0,1,0.5,1,2.125,0,0,0,0,0,0,0,0,0,,,,,0,1,1,1,,,,,,,,,53.880333416047506,53.880333416047506,53.880333416047506,53.880333416047506,53.880333416047506,53.880333416047506,53.880333416047506,53.880333416047506,53.777745458041316,53.880333416047506,53.880333416047506,53.880333416047506,53.777745458041316,53.880333416047506,53.880333416047506,53.880333416047506,55.977587040979415,59.95271974999923,53.880333416047506,53.880333416047506,59.076994833070785,54.342968750046566,55.39144383301027,55.977587040979415,57.033756499993615,53.880333416047506,53.880333416047506,53.82774545804131,53.880333416047506,53.880333416047506,53.880333416047506,53.82774545804131,53.880333416047506,53.880333416047506,59.076994833070785,53.880333416047506,59.076994833070785,59.076994833070785,59.753973708022386,53.880333416047506,1,1,0.801055165939033,reldom2_s032,001,2025-03-12_15h55.03.719,Vis-A-Scan_AC,2022.2.5,None,
2,First_Order,1.0,viswhat,stimulus/viswhat_stim/blank_white.png,stimulus/viswhat_stim/blank_white.png,stimulus/viswhat_stim/water_vehicle-submarine.png,stimulus/viswhat_stim/land_vehicle-firetruck.png,stimulus/viswhat_stim/blank_white.png,stimulus/viswhat_stim/type_box.png,stimulus/viswhat_stim/type_yes.png,stimulus/viswhat_stim/type_no.png,None,Type,None,Type,1,0.0,0,5.125,0,5.125,0,5.125,0,0.0,0.625,0,0.0,0,0.0,1,0.5,1,2.125,0,0,0,0,0,0,0,0,0,,,,,0,2,2,2,,,,,,,,,59.95271974999923,59.95271974999923,59.95271974999923,59.95271974999923,59.95271974999923,59.95271974999923,59.95271974999923,59.95271974999923,59.92064037468905,59.95271974999923,59.95271974999923,59.95271974999923,59.92064037468905,59.95271974999923,59.95271974999923,59.95271974999923,62.060710999998264,66.06278629100416,59.95271974999923,59.95271974999923,65.09778933296911,60.43939199997112,61.46923629101366,62.060710999998264,63.09211645799223,59.95271974999923,59.95271974999923,59.937307041355716,59.95271974999923,59.95271974999923,59.95271974999923,59.937307041355716,59.95271974999923,59.95271974999923,65.09778933296911,59.95271974999923,65.09778933296911,65.17888112505898,65.80812358297408,59.95271974999923,1,1,1.3019647079054266,reldom2_s032,001,2025-03-12_15h55.03.719,Vis-A-Scan_AC,2022.2.5,None,
3,First_Order,1.0,viswhat,stimulus/viswhat_stim/blank_white.png,stimulus/viswhat_stim/blank_white.png,stimulus/viswhat_stim/water_vehicle-kayak.png,stimulus/viswhat_stim/land_vehicle-vespa.png,stimulus/viswhat_stim/blank_white.png,stimulus/viswhat_stim/location_box.png,stimulus/viswhat_stim/location_yes.png,stimulus/viswhat_stim/location_no.png,None,Location,None,Type,2,0.0,0,5.125,0,5.125,0,5.125,0,0.0,0.625,0,0.0,0,0.0,1,0.5,1,2.125,0,0,0,0,0,0,0,0,0,,,,,0,3,3,3,,,,,,,,,66.06278629100416,66.06278629100416,66.06278629100416,66.06278629100416,66.06278629100416,66.06278629100416,66.06278629100416,66.06278629100416,66.00851283306255,66.06278629100416,66.06278629100416,66.06278629100416,66.00851283306255,66.06278629100416,66.06278629100416,66.06278629100416,68.15985695796553,,66.06278629100416,66.06278629100416,71.22094387502875,66.53991758299526,67.57153974997345,68.15985695796553,69.1957311660517,66.06278629100416,66.06278629100416,66.04184616639589,66.06278629100416,66.06278629100416,66.06278629100416,66.04184616639589,66.06278629100416,66.06278629100416,71.22094387502875,66.06278629100416,71.22094387502875,71.28341875004116,71.93909474997781,66.06278629100416,2,1,0.6734652919694781,reldom2_s032,001,2025-03-12_15h55.03.719,Vis-A-Scan_AC,2022.2.5,None,
4,First_Order,1.0,viswhat,stimulus/viswhat_stim/blank_white.png,stimulus/viswhat_stim/blank_white.png,stimulus/viswhat_stim/water_vehicle-pirateship.png,stimulus/viswhat_stim/land_vehicle-buldozer.png,stimulus/viswhat_stim/blank_white.png,stimulus/viswhat_stim/location_box.png,stimulus/viswhat_stim/location_yes.png,stimulus/viswhat_stim/location_no.png,None,Location,None,Type,2,0.0,0,5.125,0,5.125,0,5.125,0,0.0,0.625,0,0.0,0,0.0,1,0.5,1,2.125,0,0,0,0,0,0,0,0,0,,,,,0,4,4,4,,,,,,,,,72.14097004104406,72.14097004104406,72.14097004104406,72.14097004104406,72.14097004104406,72.14097004104406,72.14097004104406,72.14097004104406,72.08706783267358,72.14097004104406,72.14097004104406,72.14097004104406,72.08706783267358,72.14097004104406,72.14097004104406,72.14097004104406,74.24050287506543,,72.14097004104406,72.14097004104406,77.30907929106615,72.62200658302754,73.65774229099043,74.24050287506543,75.27985041600186,72.14097004104406,72.14097004104406,72.12040116600693,72.14097004104406,72.14097004104406,72.14097004104406,72.12040116600693,72.14097004104406,72.14097004104406,77.30907929106615,72.14097004104406,77.30907929106615,77.36665550002363,78.00276412500534,72.14097004104406,2,1,0.7436170419678092,reldom2_s032,001,2025-03-12_15h55.03.719,Vis-A-Scan_AC,2022.2.5,None,
0,0.0,None,fixation,stimulus/viswhat_stim/blank_white.png,stimulus/viswhat_stim/blank_white.png,stimulus/viswhere_stim/blank_white.png,stimulus/viswhere_stim/blank_white.png,stimulus/viswhat_stim/blank_white.png,stimulus/viswhat_stim/blank_white.png,stimulus/viswhat_stim/blank_white.png,stimulus/viswhat_stim/blank_white.png,0.0,0.0,0.0,0.0,0,0.0,0,0.0,0,0.0,0,0.0,0,0.0,0.0,0,0.0,0,0.0,0,0.0,0,0.0,0,0,0,0,0,0,0,0,9,,,,,0,5,5,5,,,,,,,,,78.27165916597005,78.27165916597005,78.27165916597005,78.27165916597005,78.27165916597005,78.27165916597005,78.27165916597005,78.27165916597005,78.17671112468621,78.27165916597005,78.27165916597005,78.27165916597005,78.17671112468621,78.27165916597005,78.27165916597005,78.27165916597005,78.27165916597005,78.27165916597005,78.27165916597005,78.27165916597005,78.27165916597005,78.27165916597005,78.27165916597005,78.27165916597005,78.27165916597005,78.27165916597005,78.27165916597005,78.22671112468622,78.27165916597005,78.27165916597005,78.27165916597005,78.22671112468622,78.27165916597005,78.27165916597005,78.27165916597005,78.27165916597005,78.27165916597005,83.49101225007325,83.49101225007325,87.44296458305325,None,0,,reldom2_s032,001,2025-03-12_15h55.03.719,Vis-A-Scan_AC,2022.2.5,None,
5,Second_Order,1.0,viswhat,stimulus/viswhat_stim/water_vehicle-cruiser.png,stimulus/viswhat_stim/land_vehicle-pickuptruck.png,stimulus/viswhat_stim/land_animal-snake.png,stimulus/viswhat_stim/land_vehicle-trolley.png,stimulus/viswhat_stim/match_blank.png,stimulus/viswhat_stim/match_box.png,stimulus/viswhat_stim/match_yes.png,stimulus/viswhat_stim/match_no.png,2.0,Match,Type,Location,2,5.125,0,5.125,0,5.125,0,5.125,0,0.75,0.75,1,0.5,1,2.125,1,0.5,1,2.125,0,0,0,0,0,0,0,0,0,,,,,0,6,6,6,,,,,,,,,87.44296458305325,92.56689620797988,87.86905354098417,88.85618787503336,89.4915611250326,90.4897543330444,87.44296458305325,87.44296458305325,87.45324091635024,87.44296458305325,87.44296458305325,87.44296458305325,87.45324091635024,87.44296458305325,92.56689620797988,93.36706062499434,95.44919112499338,99.34093795798253,93.36706062499434,93.36706062499434,98.51001979096327,93.82227775000501,94.83969858300406,95.44919112499338,96.47372554102913,93.36706062499434,93.36706062499434,93.34928475001361,93.36706062499434,93.36706062499434,93.36706062499434,93.34928475001361,93.36706062499434,93.36706062499434,98.51001979096327,93.36706062499434,98.51001979096327,98.56137250002939,,93.36706062499434,2,1,0.5185563749400899,reldom2_s032,001,2025-03-12_15h55.03.719,Vis-A-Scan_AC,2022.2.5,None,
6,Second_Order,1.0,viswhat,stimulus/viswhat_stim/land_vehicle-firetruck.png,stimulus/viswhat_stim/land_animal-dog.png,stimulus/viswhat_stim/water_animal-seaturtle.png,stimulus/viswhat_stim/water_vehicle-sailboat.png,stimulus/viswhat_stim/match_blank.png,stimulus/viswhat_stim/match_box.png,stimulus/viswhat_stim/match_yes.png,stimulus/viswhat_stim/match_no.png,1.0,Match,Location,Location,1,5.125,0,5.125,0,5.125,0,5.125,0,0.625,0.625,1,0.5,1,2.125,1,0.5,1,2.125,0,0,0,0,0,0,0,0,0,,,,,0,7,7,7,,,,,,,,,99.34093795798253,104.46029525005724,99.8135781660676,100.80128979100846,101.43646004097536,102.43443525000475,99.34093795798253,99.34093795798253,99.34172612505499,99.34093795798253,99.34093795798253,99.34093795798253,99.34172612505499,99.34093795798253,104.46029525005724,105.20488637499511,107.25507783296052,111.31854391598608,105.20488637499511,105.20488637499511,110.36238750000484,105.62765804096125,106.67654429096729,107.25507783296052,108.31423879100475,105.20488637499511,105.20488637499511,105.15666258331233,105.20488637499511,105.20488637499511,105.20488637499511,105.15666258331233,105.20488637499511,105.20488637499511,110.36238750000484,105.20488637499511,110.36238750000484,110.36238750000484,111.01965370797552,105.20488637499511,1,1,0.6311347079463303,reldom2_s032,001,2025-03-12_15h55.03.719,Vis-A-Scan_AC,2022.2.5,None,
0,0.0,None,fixation,stimulus/viswhat_stim/blank_white.png,stimulus/viswhat_stim/blank_white.png,stimulus/viswhere_stim/blank_white.png,stimulus/viswhere_stim/blank_white.png,stimulus/viswhat_stim/blank_white.png,stimulus/viswhat_stim/blank_white.png,stimulus/viswhat_stim/blank_white.png,stimulus/viswhat_stim/blank_white.png,0.0,0.0,0.0,0.0,0,0.0,0,0.0,0,0.0,0,0.0,0,0.0,0.0,0,0.0,0,0.0,0,0.0,0,0.0,0,0,0,0,0,0,0,0,9,,,,,0,8,8,8,,,,,,,,,111.31854391598608,111.31854391598608,111.31854391598608,111.31854391598608,111.31854391598608,111.31854391598608,111.31854391598608,111.31854391598608,111.21687983300072,111.31854391598608,111.31854391598608,111.31854391598608,111.21687983300072,111.31854391598608,111.31854391598608,111.31854391598608,111.31854391598608,111.31854391598608,111.31854391598608,111.31854391598608,111.31854391598608,111.31854391598608,111.31854391598608,111.31854391598608,111.31854391598608,111.31854391598608,111.31854391598608,111.26687983300071,111.31854391598608,111.31854391598608,111.31854391598608,111.26687983300071,111.31854391598608,111.31854391598608,111.31854391598608,111.31854391598608,111.31854391598608,116.52919229096733,116.52919229096733,120.57151629100554,None,0,,reldom2_s032,001,2025-03-12_15h55.03.719,Vis-A-Scan_AC,2022.2.5,None,
7,First_Order,2.0,viswhat,stimulus/viswhat_stim/blank_white.png,stimulus/viswhat_stim/blank_white.png,stimulus/viswhat_stim/water_vehicle-ship.png,stimulus/viswhat_stim/water_animal-stingray.png,stimulus/viswhat_stim/blank_white.png,stimulus/viswhat_stim/type_box.png,stimulus/viswhat_stim/type_yes.png,stimulus/viswhat_stim/type_no.png,None,Type,None,Location,2,0.0,0,5.125,0,5.125,0,5.125,0,0.0,0.625,0,0.0,0,0.0,1,0.5,1,2.125,0,0,0,0,0,0,0,0,0,,,,,0,9,9,9,,,,,,,,,120.57151629100554,120.57151629100554,120.57151629100554,120.57151629100554,120.57151629100554,120.57151629100554,120.57151629100554,120.57151629100554,120.47565337472285,120.57151629100554,120.57151629100554,120.57151629100554,120.47565337472285,120.57151629100554,120.57151629100554,120.57151629100554,122.67279170802794,,120.57151629100554,120.57151629100554,125.77207654097583,121.01285425003152,122.06610525003634,122.67279170802794,123.72538850002456,120.57151629100554,120.57151629100554,120.52565337472285,120.57151629100554,120.57151629100554,120.57151629100554,120.52565337472285,120.57151629100554,120.57151629100554,125.77207654097583,120.57151629100554,125.77207654097583,125.77207654097583,126.60167304100469,120.57151629100554,2,1,2.158119749976322,reldom2_s032,001,2025-03-12_15h55.03.719,Vis-A-Scan_AC,2022.2.5,None,
8,First_Order,2.0,viswhat,stimulus/viswhat_stim/blank_white.png,stimulus/viswhat_stim/blank_white.png,stimulus/viswhat_stim/land_vehicle-train.png,stimulus/viswhat_stim/land_animal-fox.png,stimulus/viswhat_stim/blank_white.png,stimulus/viswhat_stim/type_box.png,stimulus/viswhat_stim/type_yes.png,stimulus/viswhat_stim/type_no.png,None,Type,None,Location,2,0.0,0,5.125,0,5.125,0,5.125,0,0.0,0.625,0,0.0,0,0.0,1,0.5,1,2.125,0,0,0,0,0,0,0,0,0,,,,,0,10,10,10,,,,,,,,,126.60167304100469,126.60167304100469,126.60167304100469,126.60167304100469,126.60167304100469,126.60167304100469,126.60167304100469,126.60167304100469,126.56775008302648,126.60167304100469,126.60167304100469,126.60167304100469,126.56775008302648,126.60167304100469,126.60167304100469,126.60167304100469,128.7005501249805,132.70559529098682,126.60167304100469,126.60167304100469,131.73901416605804,127.07688595796935,128.09613333304878,128.7005501249805,129.72163699998055,126.60167304100469,126.60167304100469,126.58441674969315,126.60167304100469,126.60167304100469,126.60167304100469,126.58441674969315,126.60167304100469,126.60167304100469,131.73901416605804,126.60167304100469,131.73901416605804,131.82061204104684,132.45483395806514,126.60167304100469,2,1,1.1481816249433905,reldom2_s032,001,2025-03-12_15h55.03.719,Vis-A-Scan_AC,2022.2.5,None,
9,First_Order,2.0,viswhat,stimulus/viswhat_stim/blank_white.png,stimulus/viswhat_stim/blank_white.png,stimulus/viswhat_stim/land_animal-lion.png,stimulus/viswhat_stim/land_vehicle-bus.png,stimulus/viswhat_stim/blank_white.png,stimulus/viswhat_stim/location_box.png,stimulus/viswhat_stim/location_yes.png,stimulus/viswhat_stim/location_no.png,None,Location,None,Location,1,0.0,0,5.125,0,5.125,0,5.125,0,0.0,0.625,0,0.0,0,0.0,1,0.5,1,2.125,0,0,0,0,0,0,0,0,0,,,,,0,11,11,11,,,,,,,,,132.70559529098682,132.70559529098682,132.70559529098682,132.70559529098682,132.70559529098682,132.70559529098682,132.70559529098682,132.70559529098682,132.63976645838315,132.70559529098682,132.70559529098682,132.70559529098682,132.63976645838315,132.70559529098682,132.70559529098682,132.70559529098682,134.81755062507,138.87148683296982,132.70559529098682,132.70559529098682,137.85006362502463,133.16624416597188,134.20526320801582,134.81755062507,135.8591285829898,132.70559529098682,132.70559529098682,132.67309979171648,132.70559529098682,132.70559529098682,132.70559529098682,132.67309979171648,132.70559529098682,132.70559529098682,137.85006362502463,132.70559529098682,137.85006362502463,137.91557050007395,138.5665661660023,132.70559529098682,1,1,0.5343893329845741,reldom2_s032,001,2025-03-12_15h55.03.719,Vis-A-Scan_AC,2022.2.5,None,
10,First_Order,2.0,viswhat,stimulus/viswhat_stim/blank_white.png,stimulus/viswhat_stim/blank_white.png,stimulus/viswhat_stim/land_animal-elephant.png,stimulus/viswhat_stim/land_vehicle-motorcycle.png,stimulus/viswhat_stim/blank_white.png,stimulus/viswhat_stim/location_box.png,stimulus/viswhat_stim/location_yes.png,stimulus/viswhat_stim/location_no.png,None,Location,None,Location,1,0.0,0,5.125,0,5.125,0,5.125,0,0.0,0.625,0,0.0,0,0.0,1,0.5,1,2.125,0,0,0,0,0,0,0,0,0,,,,,0,12,12,12,,,,,,,,,138.87148683296982,138.87148683296982,138.87148683296982,138.87148683296982,138.87148683296982,138.87148683296982,138.87148683296982,138.87148683296982,138.74829558268345,138.87148683296982,138.87148683296982,138.87148683296982,138.74829558268345,138.87148683296982,138.87148683296982,138.87148683296982,140.95194183301646,,138.87148683296982,138.87148683296982,144.1030455,139.34087483305484,140.41545404097997,140.95194183301646,142.02931875002105,138.87148683296982,138.87148683296982,138.81496224935012,138.87148683296982,138.87148683296982,138.87148683296982,138.81496224935012,138.87148683296982,138.87148683296982,144.1030455,138.87148683296982,144.1030455,144.1030455,144.992912332993,138.87148683296982,1,1,0.5919309998862445,reldom2_s032,001,2025-03-12_15h55.03.719,Vis-A-Scan_AC,2022.2.5,None,
0,0.0,None,fixation,stimulus/viswhat_stim/blank_white.png,stimulus/viswhat_stim/blank_white.png,stimulus/viswhere_stim/blank_white.png,stimulus/viswhere_stim/blank_white.png,stimulus/viswhat_stim/blank_white.png,stimulus/viswhat_stim/blank_white.png,stimulus/viswhat_stim/blank_white.png,stimulus/viswhat_stim/blank_white.png,0.0,0.0,0.0,0.0,0,0.0,0,0.0,0,0.0,0,0.0,0,0.0,0.0,0,0.0,0,0.0,0,0.0,0,0.0,0,0,0,0,0,0,0,0,10,,,,,0,13,13,13,,,,,,,,,144.992912332993,144.992912332993,144.992912332993,144.992912332993,144.992912332993,144.992912332993,144.992912332993,144.992912332993,144.89929587439013,144.992912332993,144.992912332993,144.992912332993,144.89929587439013,144.992912332993,144.992912332993,144.992912332993,144.992912332993,144.992912332993,144.992912332993,144.992912332993,144.992912332993,144.992912332993,144.992912332993,144.992912332993,144.992912332993,144.992912332993,144.992912332993,144.94929587439015,144.992912332993,144.992912332993,144.992912332993,144.94929587439015,144.992912332993,144.992912332993,144.992912332993,144.992912332993,144.992912332993,150.20281529100612,150.20281529100612,155.11377091601025,None,0,,reldom2_s032,001,2025-03-12_15h55.03.719,Vis-A-Scan_AC,2022.2.5,None,
11,Second_Order,2.0,viswhat,stimulus/viswhat_stim/water_vehicle-cabincruiser.png,stimulus/viswhat_stim/land_vehicle-scooter.png,stimulus/viswhat_stim/land_animal-giraffe.png,stimulus/viswhat_stim/water_animal-squid.png,stimulus/viswhat_stim/match_blank.png,stimulus/viswhat_stim/match_box.png,stimulus/viswhat_stim/match_yes.png,stimulus/viswhat_stim/match_no.png,1.0,Match,Type,Type,1,5.125,0,5.125,0,5.125,0,5.125,0,0.75,0.75,1,0.5,1,2.125,1,0.5,1,2.125,0,0,0,0,0,0,0,0,0,,,,,0,14,14,14,,,,,,,,,155.11377091601025,160.2343912080396,155.5753955830587,156.5641131249722,157.19878633297049,158.1961321659619,155.11377091601025,155.11377091601025,155.11260691637486,155.11377091601025,155.11377091601025,155.11377091601025,155.11260691637486,155.11377091601025,160.2343912080396,161.10577233298682,163.14409070799593,,161.10577233298682,161.10577233298682,166.28788587497547,161.54632345796563,162.59092737501487,163.14409070799593,164.199259874993,161.10577233298682,161.10577233298682,161.05308608334357,161.10577233298682,161.10577233298682,161.10577233298682,161.05308608334357,161.10577233298682,161.10577233298682,166.28788587497547,161.10577233298682,166.28788587497547,166.28788587497547,,161.10577233298682,1,1,1.047441458911635,reldom2_s032,001,2025-03-12_15h55.03.719,Vis-A-Scan_AC,2022.2.5,None,
12,Second_Order,2.0,viswhat,stimulus/viswhat_stim/land_animal-bunny.png,stimulus/viswhat_stim/land_vehicle-shortbus.png,stimulus/viswhat_stim/water_vehicle-sailboat.png,stimulus/viswhat_stim/water_animal-whale.png,stimulus/viswhat_stim/match_blank.png,stimulus/viswhat_stim/match_box.png,stimulus/viswhat_stim/match_yes.png,stimulus/viswhat_stim/match_no.png,1.0,Match,Location,Location,1,5.125,0,5.125,0,5.125,0,5.125,0,0.625,0.625,1,0.5,1,2.125,1,0.5,1,2.125,0,0,0,0,0,0,0,0,0,,,,,0,15,15,15,,,,,,,,,167.07432045799214,172.19494891597424,167.52112241601571,168.50706795800943,169.14268420799635,170.14034333301242,167.07432045799214,167.07432045799214,167.07939787497745,167.07432045799214,167.07432045799214,167.07432045799214,167.07939787497745,167.07432045799214,172.19494891597424,172.9429678330198,174.97967429098208,179.0495309580583,172.9429678330198,172.9429678330198,178.1028072499903,173.36118204100057,174.40717633301392,174.97967429098208,176.02737062505912,172.9429678330198,172.9429678330198,172.89660195839437,172.9429678330198,172.9429678330198,172.9429678330198,172.89660195839437,172.9429678330198,172.9429678330198,178.1028072499903,172.9429678330198,178.1028072499903,178.1028072499903,178.7971778330393,172.9429678330198,1,1,0.5071476248558611,reldom2_s032,001,2025-03-12_15h55.03.719,Vis-A-Scan_AC,2022.2.5,None,
0,0.0,None,fixation,stimulus/viswhat_stim/blank_white.png,stimulus/viswhat_stim/blank_white.png,stimulus/viswhere_stim/blank_white.png,stimulus/viswhere_stim/blank_white.png,stimulus/viswhat_stim/blank_white.png,stimulus/viswhat_stim/blank_white.png,stimulus/viswhat_stim/blank_white.png,stimulus/viswhat_stim/blank_white.png,0.0,0.0,0.0,0.0,0,0.0,0,0.0,0,0.0,0,0.0,0,0.0,0.0,0,0.0,0,0.0,0,0.0,0,0.0,0,0,0,0,0,0,0,0,9,,,,,0,16,16,16,,,,,,,,,179.0495309580583,179.0495309580583,179.0495309580583,179.0495309580583,179.0495309580583,179.0495309580583,179.0495309580583,179.0495309580583,178.94717783303932,179.0495309580583,179.0495309580583,179.0495309580583,178.94717783303932,179.0495309580583,179.0495309580583,179.0495309580583,179.0495309580583,179.0495309580583,179.0495309580583,179.0495309580583,179.0495309580583,179.0495309580583,179.0495309580583,179.0495309580583,179.0495309580583,179.0495309580583,179.0495309580583,178.99717783303933,179.0495309580583,179.0495309580583,179.0495309580583,178.99717783303933,179.0495309580583,179.0495309580583,179.0495309580583,179.0495309580583,179.0495309580583,184.23266375006642,184.23266375006642,188.22060845803935,None,0,,reldom2_s032,001,2025-03-12_15h55.03.719,Vis-A-Scan_AC,2022.2.5,None,
13,First_Order,3.0,viswhere,stimulus/viswhere_stim/blank_white.png,stimulus/viswhere_stim/blank_white.png,stimulus/viswhere_stim/90-deg_dot-left_slateblue.png,stimulus/viswhere_stim/120-deg_dot-left_slateblue.png,stimulus/viswhere_stim/blank_white.png,stimulus/viswhere_stim/dot_box.png,stimulus/viswhere_stim/dot_yes.png,stimulus/viswhere_stim/dot_no.png,None,Dot,None,Dot,1,0.0,0,5.125,0,5.125,0,5.125,0,0.0,0.625,0,0.0,0,0.0,1,0.5,1,2.125,0,0,0,0,0,0,0,0,0,,,,,0,17,17,17,,,,,,,,,188.22060845803935,188.22060845803935,188.22060845803935,188.22060845803935,188.22060845803935,188.22060845803935,188.22060845803935,188.22060845803935,188.19878620763,188.22060845803935,188.22060845803935,188.22060845803935,188.19878620763,188.22060845803935,188.22060845803935,188.22060845803935,190.3183373750653,194.28293804102577,188.22060845803935,188.22060845803935,193.36002141598146,188.6984985000454,189.7098076660186,190.3183373750653,191.33649370796047,188.22060845803935,188.22060845803935,188.21545287429666,188.22060845803935,188.22060845803935,188.22060845803935,188.21545287429666,188.22060845803935,188.22060845803935,193.36002141598146,188.22060845803935,193.36002141598146,193.46020604099613,194.0948687499622,188.22060845803935,1,1,0.8133918748935685,reldom2_s032,001,2025-03-12_15h55.03.719,Vis-A-Scan_AC,2022.2.5,None,
14,First_Order,3.0,viswhere,stimulus/viswhere_stim/blank_white.png,stimulus/viswhere_stim/blank_white.png,stimulus/viswhere_stim/30-deg_dot-left_royalblue.png,stimulus/viswhere_stim/30-deg_dot-right_peru.png,stimulus/viswhere_stim/blank_white.png,stimulus/viswhere_stim/dot_box.png,stimulus/viswhere_stim/dot_yes.png,stimulus/viswhere_stim/dot_no.png,None,Dot,None,Line,2,0.0,0,5.125,0,5.125,0,5.125,0,0.0,0.625,0,0.0,0,0.0,1,0.5,1,2.125,0,0,0,0,0,0,0,0,0,,,,,0,18,18,18,,,,,,,,,194.28293804102577,194.28293804102577,194.28293804102577,194.28293804102577,194.28293804102577,194.28293804102577,194.28293804102577,194.28293804102577,194.26178124938937,194.28293804102577,194.28293804102577,194.28293804102577,194.26178124938937,194.28293804102577,194.28293804102577,194.28293804102577,196.39916195801925,200.34756283299066,194.28293804102577,194.28293804102577,199.41924770805053,194.75843154103495,195.77060250006616,196.39916195801925,197.41736629104707,194.28293804102577,194.28293804102577,194.27844791605605,194.28293804102577,194.28293804102577,194.28293804102577,194.27844791605605,194.28293804102577,194.28293804102577,199.41924770805053,194.28293804102577,199.41924770805053,199.5017243330367,200.12958016607445,194.28293804102577,2,1,0.49104379094205797,reldom2_s032,001,2025-03-12_15h55.03.719,Vis-A-Scan_AC,2022.2.5,None,
15,First_Order,3.0,viswhere,stimulus/viswhere_stim/blank_white.png,stimulus/viswhere_stim/blank_white.png,stimulus/viswhere_stim/150-deg_dot-right_turquoise.png,stimulus/viswhere_stim/150-deg_dot-left_cyan.png,stimulus/viswhere_stim/blank_white.png,stimulus/viswhere_stim/line_box.png,stimulus/viswhere_stim/line_yes.png,stimulus/viswhere_stim/line_no.png,None,Line,None,Line,1,0.0,0,5.125,0,5.125,0,5.125,0,0.0,0.625,0,0.0,0,0.0,1,0.5,1,2.125,0,0,0,0,0,0,0,0,0,,,,,0,19,19,19,,,,,,,,,200.34756283299066,200.34756283299066,200.34756283299066,200.34756283299066,200.34756283299066,200.34756283299066,200.34756283299066,200.34756283299066,200.32590004134303,200.34756283299066,200.34756283299066,200.34756283299066,200.32590004134303,200.34756283299066,200.34756283299066,200.34756283299066,202.456003875006,206.40637908305507,200.34756283299066,200.34756283299066,205.4796169999754,200.83161470806226,201.8384851659648,202.456003875006,203.46934525005054,200.34756283299066,200.34756283299066,200.3425667080097,200.34756283299066,200.34756283299066,200.34756283299066,200.3425667080097,200.34756283299066,200.34756283299066,205.4796169999754,200.34756283299066,205.4796169999754,205.576455582981,206.20338462502696,200.34756283299066,1,1,0.5923158329678699,reldom2_s032,001,2025-03-12_15h55.03.719,Vis-A-Scan_AC,2022.2.5,None,
16,First_Order,3.0,viswhere,stimulus/viswhere_stim/blank_white.png,stimulus/viswhere_stim/blank_white.png,stimulus/viswhere_stim/120-deg_dot-right_mediumslateblue.png,stimulus/viswhere_stim/150-deg_dot-right_royalblue.png,stimulus/viswhere_stim/blank_white.png,stimulus/viswhere_stim/line_box.png,stimulus/viswhere_stim/line_yes.png,stimulus/viswhere_stim/line_no.png,None,Line,None,Dot,2,0.0,0,5.125,0,5.125,0,5.125,0,0.0,0.625,0,0.0,0,0.0,1,0.5,1,2.125,0,0,0,0,0,0,0,0,0,,,,,0,20,20,20,,,,,,,,,206.40637908305507,206.40637908305507,206.40637908305507,206.40637908305507,206.40637908305507,206.40637908305507,206.40637908305507,206.40637908305507,206.38424037439594,206.40637908305507,206.40637908305507,206.40637908305507,206.38424037439594,206.40637908305507,206.40637908305507,206.40637908305507,208.52278075006325,212.55297049996443,206.40637908305507,206.40637908305507,211.53547083307058,206.88697579107247,207.88912475004327,208.52278075006325,209.53210262500215,206.40637908305507,206.40637908305507,206.40090704106262,206.40637908305507,206.40637908305507,206.40637908305507,206.40090704106262,206.40637908305507,206.40637908305507,211.53547083307058,206.40637908305507,211.53547083307058,211.63277699996252,212.25797366607003,206.40637908305507,2,1,0.533346249954775,reldom2_s032,001,2025-03-12_15h55.03.719,Vis-A-Scan_AC,2022.2.5,None,
0,0.0,None,fixation,stimulus/viswhat_stim/blank_white.png,stimulus/viswhat_stim/blank_white.png,stimulus/viswhere_stim/blank_white.png,stimulus/viswhere_stim/blank_white.png,stimulus/viswhat_stim/blank_white.png,stimulus/viswhat_stim/blank_white.png,stimulus/viswhat_stim/blank_white.png,stimulus/viswhat_stim/blank_white.png,0.0,0.0,0.0,0.0,0,0.0,0,0.0,0,0.0,0,0.0,0,0.0,0.0,0,0.0,0,0.0,0,0.0,0,0.0,0,0,0,0,0,0,0,0,8,,,,,0,21,21,21,,,,,,,,,212.55297049996443,212.55297049996443,212.55297049996443,212.55297049996443,212.55297049996443,212.55297049996443,212.55297049996443,212.55297049996443,212.4536954162953,212.55297049996443,212.55297049996443,212.55297049996443,212.4536954162953,212.55297049996443,212.55297049996443,212.55297049996443,212.55297049996443,212.55297049996443,212.55297049996443,212.55297049996443,212.55297049996443,212.55297049996443,212.55297049996443,212.55297049996443,212.55297049996443,212.55297049996443,212.55297049996443,212.5036954162953,212.55297049996443,212.55297049996443,212.55297049996443,212.5036954162953,212.55297049996443,212.55297049996443,212.55297049996443,212.55297049996443,212.55297049996443,217.75750095804688,217.75750095804688,220.6663445000304,None,0,,reldom2_s032,001,2025-03-12_15h55.03.719,Vis-A-Scan_AC,2022.2.5,None,
17,Second_Order,3.0,viswhere,stimulus/viswhere_stim/60-deg_dot-right_seagreen.png,stimulus/viswhere_stim/150-deg_dot-right_seagreen.png,stimulus/viswhere_stim/90-deg_dot-right_salmon.png,stimulus/viswhere_stim/90-deg_dot-left_seagreen.png,stimulus/viswhat_stim/match_blank.png,stimulus/viswhat_stim/match_box.png,stimulus/viswhat_stim/match_yes.png,stimulus/viswhat_stim/match_no.png,2.0,Match,Dot,Line,2,5.125,0,5.125,0,5.125,0,5.125,0,0.75,0.75,1,0.5,1,2.125,1,0.5,1,2.125,0,0,0,0,0,0,0,0,0,,,,,0,22,22,22,,,,,,,,,220.6663445000304,225.79042879096232,221.14551529102027,222.14384208305273,222.76722470798995,223.76408841600642,220.6663445000304,220.6663445000304,220.67975179132387,220.6663445000304,220.6663445000304,220.6663445000304,220.67975179132387,220.6663445000304,225.79042879096232,226.58306804101449,228.6653048750013,232.54796466603875,226.58306804101449,226.58306804101449,231.71783037506975,227.02891387499403,228.0321298330091,228.6653048750013,229.67498179106042,226.58306804101449,226.58306804101449,226.5576967083694,226.58306804101449,226.58306804101449,226.58306804101449,226.5576967083694,226.58306804101449,226.58306804101449,231.71783037506975,226.58306804101449,231.71783037506975,231.77280454104766,232.54796466603875,226.58306804101449,2,1,0.5504156670067459,reldom2_s032,001,2025-03-12_15h55.03.719,Vis-A-Scan_AC,2022.2.5,None,
18,Second_Order,3.0,viswhere,stimulus/viswhere_stim/150-deg_dot-right_goldenrod.png,stimulus/viswhere_stim/150-deg_dot-left_cyan.png,stimulus/viswhere_stim/120-deg_dot-left_royalblue.png,stimulus/viswhere_stim/60-deg_dot-left_royalblue.png,stimulus/viswhat_stim/match_blank.png,stimulus/viswhat_stim/match_box.png,stimulus/viswhat_stim/match_yes.png,stimulus/viswhat_stim/match_no.png,2.0,Match,Line,Dot,2,5.125,0,5.125,0,5.125,0,5.125,0,0.625,0.625,1,0.5,1,2.125,1,0.5,1,2.125,0,0,0,0,0,0,0,0,0,,,,,0,23,23,23,,,,,,,,,232.54796466603875,237.66582374996506,233.02188300003763,234.0084611660568,234.6561269579688,235.64502662501764,232.54796466603875,232.54796466603875,232.56102445798462,232.54796466603875,232.54796466603875,232.54796466603875,232.56102445798462,232.54796466603875,237.66582374996506,238.33885770803317,240.42728362500202,244.47941091598477,238.33885770803317,238.33885770803317,243.46825454104692,238.8009317080723,239.81681604101323,240.42728362500202,241.43565754103474,238.33885770803317,238.33885770803317,238.31497433340024,238.33885770803317,238.33885770803317,238.33885770803317,238.31497433340024,238.33885770803317,238.33885770803317,243.46825454104692,238.33885770803317,243.46825454104692,243.5362837080611,244.16376462497283,238.33885770803317,2,1,0.5281484170118347,reldom2_s032,001,2025-03-12_15h55.03.719,Vis-A-Scan_AC,2022.2.5,None,
0,0.0,None,fixation,stimulus/viswhat_stim/blank_white.png,stimulus/viswhat_stim/blank_white.png,stimulus/viswhere_stim/blank_white.png,stimulus/viswhere_stim/blank_white.png,stimulus/viswhat_stim/blank_white.png,stimulus/viswhat_stim/blank_white.png,stimulus/viswhat_stim/blank_white.png,stimulus/viswhat_stim/blank_white.png,0.0,0.0,0.0,0.0,0,0.0,0,0.0,0,0.0,0,0.0,0,0.0,0.0,0,0.0,0,0.0,0,0.0,0,0.0,0,0,0,0,0,0,0,0,10,,,,,0,24,24,24,,,,,,,,,244.47941091598477,244.47941091598477,244.47941091598477,244.47941091598477,244.47941091598477,244.47941091598477,244.47941091598477,244.47941091598477,244.37771299931532,244.47941091598477,244.47941091598477,244.47941091598477,244.37771299931532,244.47941091598477,244.47941091598477,244.47941091598477,244.47941091598477,244.47941091598477,244.47941091598477,244.47941091598477,244.47941091598477,244.47941091598477,244.47941091598477,244.47941091598477,244.47941091598477,244.47941091598477,244.47941091598477,244.42771299931533,244.47941091598477,244.47941091598477,244.47941091598477,244.42771299931533,244.47941091598477,244.47941091598477,244.47941091598477,244.47941091598477,244.47941091598477,249.6773416660726,249.6773416660726,254.69538191601168,None,0,,reldom2_s032,001,2025-03-12_15h55.03.719,Vis-A-Scan_AC,2022.2.5,None,
19,First_Order,4.0,viswhere,stimulus/viswhere_stim/blank_white.png,stimulus/viswhere_stim/blank_white.png,stimulus/viswhere_stim/90-deg_dot-right_royalblue.png,stimulus/viswhere_stim/120-deg_dot-right_goldenrod.png,stimulus/viswhere_stim/blank_white.png,stimulus/viswhere_stim/dot_box.png,stimulus/viswhere_stim/dot_yes.png,stimulus/viswhere_stim/dot_no.png,None,Dot,None,Dot,1,0.0,0,5.125,0,5.125,0,5.125,0,0.0,0.625,0,0.0,0,0.0,1,0.5,1,2.125,0,0,0,0,0,0,0,0,0,,,,,0,25,25,25,,,,,,,,,254.69538191601168,254.69538191601168,254.69538191601168,254.69538191601168,254.69538191601168,254.69538191601168,254.69538191601168,254.69538191601168,254.67506974962697,254.69538191601168,254.69538191601168,254.69538191601168,254.67506974962697,254.69538191601168,254.69538191601168,254.69538191601168,256.79753587499727,260.75289500004146,254.69538191601168,254.69538191601168,259.82287479098886,255.1729006250389,256.1873955409974,256.79753587499727,257.81561120797414,254.69538191601168,254.69538191601168,254.69173641629362,254.69538191601168,254.69538191601168,254.69538191601168,254.69173641629362,254.69538191601168,254.69538191601168,259.82287479098886,254.69538191601168,259.82287479098886,259.9112989580026,260.5359502909705,254.69538191601168,1,1,1.1057267499854788,reldom2_s032,001,2025-03-12_15h55.03.719,Vis-A-Scan_AC,2022.2.5,None,
20,First_Order,4.0,viswhere,stimulus/viswhere_stim/blank_white.png,stimulus/viswhere_stim/blank_white.png,stimulus/viswhere_stim/90-deg_dot-left_peru.png,stimulus/viswhere_stim/90-deg_dot-right_royalblue.png,stimulus/viswhere_stim/blank_white.png,stimulus/viswhere_stim/dot_box.png,stimulus/viswhere_stim/dot_yes.png,stimulus/viswhere_stim/dot_no.png,None,Dot,None,Line,2,0.0,0,5.125,0,5.125,0,5.125,0,0.0,0.625,0,0.0,0,0.0,1,0.5,1,2.125,0,0,0,0,0,0,0,0,0,,,,,0,26,26,26,,,,,,,,,260.75289500004146,260.75289500004146,260.75289500004146,260.75289500004146,260.75289500004146,260.75289500004146,260.75289500004146,260.75289500004146,260.73200529134675,260.75289500004146,260.75289500004146,260.75289500004146,260.73200529134675,260.75289500004146,260.75289500004146,260.75289500004146,262.8684272080427,266.82533500005957,260.75289500004146,260.75289500004146,265.89001225004904,261.2306581250159,262.2371035000542,262.8684272080427,263.87405066599604,260.75289500004146,260.75289500004146,260.7486719580134,260.75289500004146,260.75289500004146,260.75289500004146,260.7486719580134,260.75289500004146,260.75289500004146,265.89001225004904,260.75289500004146,265.89001225004904,265.9777615830535,266.60971016599797,260.75289500004146,2,1,0.47762249992229044,reldom2_s032,001,2025-03-12_15h55.03.719,Vis-A-Scan_AC,2022.2.5,None,
21,First_Order,4.0,viswhere,stimulus/viswhere_stim/blank_white.png,stimulus/viswhere_stim/blank_white.png,stimulus/viswhere_stim/120-deg_dot-left_cyan.png,stimulus/viswhere_stim/150-deg_dot-left_seagreen.png,stimulus/viswhere_stim/blank_white.png,stimulus/viswhere_stim/line_box.png,stimulus/viswhere_stim/line_yes.png,stimulus/viswhere_stim/line_no.png,None,Line,None,Dot,2,0.0,0,5.125,0,5.125,0,5.125,0,0.0,0.625,0,0.0,0,0.0,1,0.5,1,2.125,0,0,0,0,0,0,0,0,0,,,,,0,27,27,27,,,,,,,,,266.82533500005957,266.82533500005957,266.82533500005957,266.82533500005957,266.82533500005957,266.82533500005957,266.82533500005957,266.82533500005957,266.80334008329856,266.82533500005957,266.82533500005957,266.82533500005957,266.80334008329856,266.82533500005957,266.82533500005957,266.82533500005957,268.92330758296885,272.8924223750364,266.82533500005957,266.82533500005957,271.9586232909933,267.30615437496454,268.3095659579849,268.92330758296885,269.93139416596387,266.82533500005957,266.82533500005957,266.8200067499652,266.82533500005957,266.82533500005957,266.82533500005957,266.8200067499652,266.82533500005957,266.82533500005957,271.9586232909933,266.82533500005957,271.9586232909933,272.04385300003923,272.67640050000045,266.82533500005957,2,1,1.3131167499814183,reldom2_s032,001,2025-03-12_15h55.03.719,Vis-A-Scan_AC,2022.2.5,None,
22,First_Order,4.0,viswhere,stimulus/viswhere_stim/blank_white.png,stimulus/viswhere_stim/blank_white.png,stimulus/viswhere_stim/150-deg_dot-right_seagreen.png,stimulus/viswhere_stim/150-deg_dot-left_slateblue.png,stimulus/viswhere_stim/blank_white.png,stimulus/viswhere_stim/line_box.png,stimulus/viswhere_stim/line_yes.png,stimulus/viswhere_stim/line_no.png,None,Line,None,Line,1,0.0,0,5.125,0,5.125,0,5.125,0,0.0,0.625,0,0.0,0,0.0,1,0.5,1,2.125,0,0,0,0,0,0,0,0,0,,,,,0,28,28,28,,,,,,,,,272.8924223750364,272.8924223750364,272.8924223750364,272.8924223750364,272.8924223750364,272.8924223750364,272.8924223750364,272.8924223750364,272.87065995829954,272.8924223750364,272.8924223750364,272.8924223750364,272.87065995829954,272.8924223750364,272.8924223750364,272.8924223750364,275.0067457499681,279.0393603750272,272.8924223750364,272.8924223750364,278.0223615000723,273.3770423330134,274.3875434580259,275.0067457499681,276.0241875000065,272.8924223750364,272.8924223750364,272.8873266249662,272.8924223750364,272.8924223750364,272.8924223750364,272.8873266249662,272.8924223750364,272.8924223750364,278.0223615000723,272.8924223750364,278.0223615000723,278.1195135830203,278.7456787499832,272.8924223750364,1,1,0.4786481249611825,reldom2_s032,001,2025-03-12_15h55.03.719,Vis-A-Scan_AC,2022.2.5,None,
0,0.0,None,fixation,stimulus/viswhat_stim/blank_white.png,stimulus/viswhat_stim/blank_white.png,stimulus/viswhere_stim/blank_white.png,stimulus/viswhere_stim/blank_white.png,stimulus/viswhat_stim/blank_white.png,stimulus/viswhat_stim/blank_white.png,stimulus/viswhat_stim/blank_white.png,stimulus/viswhat_stim/blank_white.png,0.0,0.0,0.0,0.0,0,0.0,0,0.0,0,0.0,0,0.0,0,0.0,0.0,0,0.0,0,0.0,0,0.0,0,0.0,0,0,0,0,0,0,0,0,9,,,,,0,29,29,29,,,,,,,,,279.0393603750272,279.0393603750272,279.0393603750272,279.0393603750272,279.0393603750272,279.0393603750272,279.0393603750272,279.0393603750272,278.9406930413873,279.0393603750272,279.0393603750272,279.0393603750272,278.9406930413873,279.0393603750272,279.0393603750272,279.0393603750272,279.0393603750272,279.0393603750272,279.0393603750272,279.0393603750272,279.0393603750272,279.0393603750272,279.0393603750272,279.0393603750272,279.0393603750272,279.0393603750272,279.0393603750272,278.9906930413873,279.0393603750272,279.0393603750272,279.0393603750272,278.9906930413873,279.0393603750272,279.0393603750272,279.0393603750272,279.0393603750272,279.0393603750272,284.2469803750282,284.2469803750282,288.1768463329645,None,0,,reldom2_s032,001,2025-03-12_15h55.03.719,Vis-A-Scan_AC,2022.2.5,None,
23,Second_Order,4.0,viswhere,stimulus/viswhere_stim/90-deg_dot-right_salmon.png,stimulus/viswhere_stim/150-deg_dot-right_seagreen.png,stimulus/viswhere_stim/150-deg_dot-right_mediumslateblue.png,stimulus/viswhere_stim/150-deg_dot-left_lightsseagreen.png,stimulus/viswhat_stim/match_blank.png,stimulus/viswhat_stim/match_box.png,stimulus/viswhat_stim/match_yes.png,stimulus/viswhat_stim/match_no.png,2.0,Match,Dot,Line,2,5.125,0,5.125,0,5.125,0,5.125,0,0.75,0.75,1,0.5,1,2.125,1,0.5,1,2.125,0,0,0,0,0,0,0,0,0,,,,,0,30,30,30,,,,,,,,,288.1768463329645,293.2977132910164,288.64974258304574,289.63667929102667,290.284788458026,291.27383329102304,288.1768463329645,288.1768463329645,288.1915159583169,288.1768463329645,288.1768463329645,288.1768463329645,288.1915159583169,288.1768463329645,293.2977132910164,294.09219574998133,296.175662582973,300.0633985410677,294.09219574998133,294.09219574998133,299.2172547499649,294.5427143330453,295.55442570801824,296.175662582973,297.1929642079631,294.09219574998133,294.09219574998133,294.08069045802114,294.09219574998133,294.09219574998133,294.09219574998133,294.08069045802114,294.09219574998133,294.09219574998133,299.2172547499649,294.09219574998133,299.2172547499649,299.3047441659728,,294.09219574998133,2,1,0.610509374877438,reldom2_s032,001,2025-03-12_15h55.03.719,Vis-A-Scan_AC,2022.2.5,None,
24,Second_Order,4.0,viswhere,stimulus/viswhere_stim/90-deg_dot-left_cyan.png,stimulus/viswhere_stim/60-deg_dot-left_slateblue.png,stimulus/viswhere_stim/120-deg_dot-right_goldenrod.png,stimulus/viswhere_stim/90-deg_dot-right_seagreen.png,stimulus/viswhat_stim/match_blank.png,stimulus/viswhat_stim/match_box.png,stimulus/viswhat_stim/match_yes.png,stimulus/viswhat_stim/match_no.png,1.0,Match,Dot,Dot,1,5.125,0,5.125,0,5.125,0,5.125,0,0.625,0.625,1,0.5,1,2.125,1,0.5,1,2.125,0,0,0,0,0,0,0,0,0,,,,,0,31,31,31,,,,,,,,,300.0633985410677,305.18583408300765,300.54597883298993,301.5440251659602,302.1671008330304,303.1643962080125,300.0633985410677,300.0633985410677,300.0756980409613,300.0633985410677,300.0633985410677,300.0633985410677,300.0756980409613,300.0633985410677,305.18583408300765,305.8599669999676,307.9402166659711,311.9780346660409,305.8599669999676,305.8599669999676,310.9817137910286,306.32440799998585,307.3443546249764,307.9402166659711,308.94491887500044,305.8599669999676,305.8599669999676,305.8372984993116,305.8599669999676,305.8599669999676,305.8599669999676,305.8372984993116,305.8599669999676,305.8599669999676,310.9817137910286,305.8599669999676,310.9817137910286,311.0652461249847,311.697007416049,305.8599669999676,1,1,0.45858958398457617,reldom2_s032,001,2025-03-12_15h55.03.719,Vis-A-Scan_AC,2022.2.5,None,
0,0.0,None,fixation,stimulus/viswhat_stim/blank_white.png,stimulus/viswhat_stim/blank_white.png,stimulus/viswhere_stim/blank_white.png,stimulus/viswhere_stim/blank_white.png,stimulus/viswhat_stim/blank_white.png,stimulus/viswhat_stim/blank_white.png,stimulus/viswhat_stim/blank_white.png,stimulus/viswhat_stim/blank_white.png,0.0,0.0,0.0,0.0,0,0.0,0,0.0,0,0.0,0,0.0,0,0.0,0.0,0,0.0,0,0.0,0,0.0,0,0.0,0,0,0,0,0,0,0,0,10,,,,,0,32,32,32,,,,,,,,,311.9780346660409,311.9780346660409,311.9780346660409,311.9780346660409,311.9780346660409,311.9780346660409,311.9780346660409,311.9780346660409,311.877001249309,311.9780346660409,311.9780346660409,311.9780346660409,311.877001249309,311.9780346660409,311.9780346660409,311.9780346660409,311.9780346660409,311.9780346660409,311.9780346660409,311.9780346660409,311.9780346660409,311.9780346660409,311.9780346660409,311.9780346660409,311.9780346660409,311.9780346660409,311.9780346660409,311.927001249309,311.9780346660409,311.9780346660409,311.9780346660409,311.927001249309,311.9780346660409,311.9780346660409,311.9780346660409,311.9780346660409,311.9780346660409,317.17929708305746,317.17929708305746,322.2093991250731,None,0,,reldom2_s032,001,2025-03-12_15h55.03.719,Vis-A-Scan_AC,2022.2.5,None,
25,First_Order,5.0,viswhat,stimulus/viswhat_stim/blank_white.png,stimulus/viswhat_stim/blank_white.png,stimulus/viswhat_stim/land_vehicle-shortbus.png,stimulus/viswhat_stim/land_animal-pig.png,stimulus/viswhat_stim/blank_white.png,stimulus/viswhat_stim/location_box.png,stimulus/viswhat_stim/location_yes.png,stimulus/viswhat_stim/location_no.png,None,Location,None,Location,1,0.0,0,5.125,0,5.125,0,5.125,0,0.0,0.625,0,0.0,0,0.0,1,0.5,1,2.125,0,0,0,0,0,0,0,0,0,,,,,0,33,33,33,,,,,,,,,322.2093991250731,322.2093991250731,322.2093991250731,322.2093991250731,322.2093991250731,322.2093991250731,322.2093991250731,322.2093991250731,322.1702490416743,322.2093991250731,322.2093991250731,322.2093991250731,322.1702490416743,322.2093991250731,322.2093991250731,322.2093991250731,324.3130282079801,,322.2093991250731,322.2093991250731,327.3586472909665,322.67602712498046,323.69961045798846,324.3130282079801,325.33972608298063,322.2093991250731,322.2093991250731,322.186915708341,322.2093991250731,322.2093991250731,322.2093991250731,322.186915708341,322.2093991250731,322.2093991250731,327.3586472909665,322.2093991250731,327.3586472909665,327.4305451250402,328.06554391596,322.2093991250731,1,1,1.1810195839498192,reldom2_s032,001,2025-03-12_15h55.03.719,Vis-A-Scan_AC,2022.2.5,None,
26,First_Order,5.0,viswhat,stimulus/viswhat_stim/blank_white.png,stimulus/viswhat_stim/blank_white.png,stimulus/viswhat_stim/land_vehicle-rv.png,stimulus/viswhat_stim/land_animal-bunny.png,stimulus/viswhat_stim/blank_white.png,stimulus/viswhat_stim/type_box.png,stimulus/viswhat_stim/type_yes.png,stimulus/viswhat_stim/type_no.png,None,Type,None,Location,2,0.0,0,5.125,0,5.125,0,5.125,0,0.0,0.625,0,0.0,0,0.0,1,0.5,1,2.125,0,0,0,0,0,0,0,0,0,,,,,0,34,34,34,,,,,,,,,328.31918175006285,328.31918175006285,328.31918175006285,328.31918175006285,328.31918175006285,328.31918175006285,328.31918175006285,328.31918175006285,328.23597220799417,328.31918175006285,328.31918175006285,328.31918175006285,328.23597220799417,328.31918175006285,328.31918175006285,328.31918175006285,330.4139725409914,334.4375167910475,328.31918175006285,328.31918175006285,333.5135575410677,328.7948238750687,329.84328287502285,330.4139725409914,331.4675939580193,328.31918175006285,328.31918175006285,328.2859722079942,328.31918175006285,328.31918175006285,328.31918175006285,328.2859722079942,328.31918175006285,328.31918175006285,333.5135575410677,328.31918175006285,333.5135575410677,333.5135575410677,334.1844534999691,328.31918175006285,2,1,1.931109166936949,reldom2_s032,001,2025-03-12_15h55.03.719,Vis-A-Scan_AC,2022.2.5,None,
27,First_Order,5.0,viswhat,stimulus/viswhat_stim/blank_white.png,stimulus/viswhat_stim/blank_white.png,stimulus/viswhat_stim/land_animal-zebra.png,stimulus/viswhat_stim/land_vehicle-oldcar.png,stimulus/viswhat_stim/blank_white.png,stimulus/viswhat_stim/location_box.png,stimulus/viswhat_stim/location_yes.png,stimulus/viswhat_stim/location_no.png,None,Location,None,Location,1,0.0,0,5.125,0,5.125,0,5.125,0,0.0,0.625,0,0.0,0,0.0,1,0.5,1,2.125,0,0,0,0,0,0,0,0,0,,,,,0,35,35,35,,,,,,,,,334.4375167910475,334.4375167910475,334.4375167910475,334.4375167910475,334.4375167910475,334.4375167910475,334.4375167910475,334.4375167910475,334.3599395413495,334.4375167910475,334.4375167910475,334.4375167910475,334.3599395413495,334.4375167910475,334.4375167910475,334.4375167910475,336.551352999988,,334.4375167910475,334.4375167910475,339.5946194160497,334.9219534159638,335.9796182910213,336.551352999988,337.6153042910155,334.4375167910475,334.4375167910475,334.3932728746828,334.4375167910475,334.4375167910475,334.4375167910475,334.3932728746828,334.4375167910475,334.4375167910475,339.5946194160497,334.4375167910475,339.5946194160497,339.6332415830111,340.2859325830359,334.4375167910475,1,1,0.5105493749724701,reldom2_s032,001,2025-03-12_15h55.03.719,Vis-A-Scan_AC,2022.2.5,None,
28,First_Order,5.0,viswhat,stimulus/viswhat_stim/blank_white.png,stimulus/viswhat_stim/blank_white.png,stimulus/viswhat_stim/water_vehicle-canoe.png,stimulus/viswhat_stim/land_vehicle-trolley.png,stimulus/viswhat_stim/blank_white.png,stimulus/viswhat_stim/type_box.png,stimulus/viswhat_stim/type_yes.png,stimulus/viswhat_stim/type_no.png,None,Type,None,Type,1,0.0,0,5.125,0,5.125,0,5.125,0,0.0,0.625,0,0.0,0,0.0,1,0.5,1,2.125,0,0,0,0,0,0,0,0,0,,,,,0,36,36,36,,,,,,,,,340.49293175002094,340.49293175002094,340.49293175002094,340.49293175002094,340.49293175002094,340.49293175002094,340.49293175002094,340.49293175002094,340.4575811242995,340.49293175002094,340.49293175002094,340.49293175002094,340.4575811242995,340.49293175002094,340.49293175002094,340.49293175002094,342.6082613329636,346.6308079579612,340.49293175002094,340.49293175002094,345.6306001660414,340.98263025004417,341.99190687504597,342.6082613329636,343.62055679096375,340.49293175002094,340.49293175002094,340.47424779096616,340.49293175002094,340.49293175002094,340.49293175002094,340.47424779096616,340.49293175002094,340.49293175002094,345.6306001660414,340.49293175002094,345.6306001660414,345.71137224999256,346.3561647910392,340.49293175002094,1,1,0.4263219579588622,reldom2_s032,001,2025-03-12_15h55.03.719,Vis-A-Scan_AC,2022.2.5,None,
0,0.0,None,fixation,stimulus/viswhat_stim/blank_white.png,stimulus/viswhat_stim/blank_white.png,stimulus/viswhere_stim/blank_white.png,stimulus/viswhere_stim/blank_white.png,stimulus/viswhat_stim/blank_white.png,stimulus/viswhat_stim/blank_white.png,stimulus/viswhat_stim/blank_white.png,stimulus/viswhat_stim/blank_white.png,0.0,0.0,0.0,0.0,0,0.0,0,0.0,0,0.0,0,0.0,0,0.0,0.0,0,0.0,0,0.0,0,0.0,0,0.0,0,0,0,0,0,0,0,0,9,,,,,0,37,37,37,,,,,,,,,346.6308079579612,346.6308079579612,346.6308079579612,346.6308079579612,346.6308079579612,346.6308079579612,346.6308079579612,346.6308079579612,346.5363333750516,346.6308079579612,346.6308079579612,346.6308079579612,346.5363333750516,346.6308079579612,346.6308079579612,346.6308079579612,346.6308079579612,346.6308079579612,346.6308079579612,346.6308079579612,346.6308079579612,346.6308079579612,346.6308079579612,346.6308079579612,346.6308079579612,346.6308079579612,346.6308079579612,346.5863333750516,346.6308079579612,346.6308079579612,346.6308079579612,346.5863333750516,346.6308079579612,346.6308079579612,346.6308079579612,346.6308079579612,346.6308079579612,351.8322433750145,351.8322433750145,355.76522733306047,None,0,,reldom2_s032,001,2025-03-12_15h55.03.719,Vis-A-Scan_AC,2022.2.5,None,
29,Second_Order,5.0,viswhat,stimulus/viswhat_stim/land_vehicle-schoolbus.png,stimulus/viswhat_stim/land_animal-snake.png,stimulus/viswhat_stim/water_vehicle-cruiser.png,stimulus/viswhat_stim/water_animal-whale.png,stimulus/viswhat_stim/match_blank.png,stimulus/viswhat_stim/match_box.png,stimulus/viswhat_stim/match_yes.png,stimulus/viswhat_stim/match_no.png,1.0,Match,Location,Location,1,5.125,0,5.125,0,5.125,0,5.125,0,0.75,0.75,1,0.5,1,2.125,1,0.5,1,2.125,0,0,0,0,0,0,0,0,0,,,,,0,38,38,38,,,,,,,,,355.76522733306047,360.8860093749827,356.24095700006,357.23934795800596,357.86137033300474,358.8598628749605,355.76522733306047,355.76522733306047,355.7732637083701,355.76522733306047,355.76522733306047,355.76522733306047,355.7732637083701,355.76522733306047,360.8860093749827,361.7858600830659,363.85614054102916,,361.7858600830659,361.7858600830659,366.9592993330443,362.1995602910174,363.30345400003716,363.85614054102916,364.96318700001575,361.7858600830659,361.7858600830659,361.71979937506836,361.7858600830659,361.7858600830659,361.7858600830659,361.71979937506836,361.7858600830659,361.7858600830659,366.9592993330443,361.7858600830659,366.9592993330443,366.9592993330443,,361.7858600830659,1,1,0.47295408393256366,reldom2_s032,001,2025-03-12_15h55.03.719,Vis-A-Scan_AC,2022.2.5,None,
30,Second_Order,5.0,viswhat,stimulus/viswhat_stim/land_vehicle-tank.png,stimulus/viswhat_stim/water_vehicle-cabincruiser.png,stimulus/viswhat_stim/land_animal-pig.png,stimulus/viswhat_stim/water_animal-stingray.png,stimulus/viswhat_stim/match_blank.png,stimulus/viswhat_stim/match_box.png,stimulus/viswhat_stim/match_yes.png,stimulus/viswhat_stim/match_no.png,1.0,Match,Type,Type,1,5.125,0,5.125,0,5.125,0,5.125,0,0.625,0.625,1,0.5,1,2.125,1,0.5,1,2.125,0,0,0,0,0,0,0,0,0,,,,,0,39,39,39,,,,,,,,,367.74484787497204,372.8638425830286,368.2170290830545,369.2046243749792,369.8397008749889,370.8375740830088,367.74484787497204,367.74484787497204,367.74395966597365,367.74484787497204,367.74484787497204,367.74484787497204,367.74395966597365,367.74484787497204,372.8638425830286,373.5416232079733,375.6281647080323,379.66570108302403,373.5416232079733,373.5416232079733,378.68357933301013,374.0025315830717,375.0131117500132,375.6281647080323,376.6407786250347,373.5416232079733,373.5416232079733,373.5268744580215,373.5416232079733,373.5416232079733,373.5416232079733,373.5268744580215,373.5416232079733,373.5416232079733,378.68357933301013,373.5416232079733,378.68357933301013,378.73238016606774,379.35863654105924,373.5416232079733,1,1,1.536185541888699,reldom2_s032,001,2025-03-12_15h55.03.719,Vis-A-Scan_AC,2022.2.5,None,
0,0.0,None,fixation,stimulus/viswhat_stim/blank_white.png,stimulus/viswhat_stim/blank_white.png,stimulus/viswhere_stim/blank_white.png,stimulus/viswhere_stim/blank_white.png,stimulus/viswhat_stim/blank_white.png,stimulus/viswhat_stim/blank_white.png,stimulus/viswhat_stim/blank_white.png,stimulus/viswhat_stim/blank_white.png,0.0,0.0,0.0,0.0,0,0.0,0,0.0,0,0.0,0,0.0,0,0.0,0.0,0,0.0,0,0.0,0,0.0,0,0.0,0,0,0,0,0,0,0,0,10,,,,,0,40,40,40,,,,,,,,,379.66570108302403,379.66570108302403,379.66570108302403,379.66570108302403,379.66570108302403,379.66570108302403,379.66570108302403,379.66570108302403,379.5756184580037,379.66570108302403,379.66570108302403,379.66570108302403,379.5756184580037,379.66570108302403,379.66570108302403,379.66570108302403,379.66570108302403,379.66570108302403,379.66570108302403,379.66570108302403,379.66570108302403,379.66570108302403,379.66570108302403,379.66570108302403,379.66570108302403,379.66570108302403,379.66570108302403,379.6256184580037,379.66570108302403,379.66570108302403,379.66570108302403,379.6256184580037,379.66570108302403,379.66570108302403,379.66570108302403,379.66570108302403,379.66570108302403,384.8723414159613,384.8723414159613,389.844184583053,None,0,,reldom2_s032,001,2025-03-12_15h55.03.719,Vis-A-Scan_AC,2022.2.5,None,
31,First_Order,6.0,viswhat,stimulus/viswhat_stim/blank_white.png,stimulus/viswhat_stim/blank_white.png,stimulus/viswhat_stim/land_vehicle-rv.png,stimulus/viswhat_stim/land_animal-ostrich.png,stimulus/viswhat_stim/blank_white.png,stimulus/viswhat_stim/type_box.png,stimulus/viswhat_stim/type_yes.png,stimulus/viswhat_stim/type_no.png,None,Type,None,Location,2,0.0,0,5.125,0,5.125,0,5.125,0,0.0,0.625,0,0.0,0,0.0,1,0.5,1,2.125,0,0,0,0,0,0,0,0,0,,,,,0,41,41,41,,,,,,,,,389.844184583053,389.844184583053,389.844184583053,389.844184583053,389.844184583053,389.844184583053,389.844184583053,389.844184583053,389.81485220770503,389.844184583053,389.844184583053,389.844184583053,389.81485220770503,389.844184583053,389.844184583053,389.844184583053,391.94011933298316,395.9858113749651,389.844184583053,389.844184583053,394.97363725001924,390.32660437503364,391.3382487499621,391.94011933298316,392.94913891598117,389.844184583053,389.844184583053,389.83151887437174,389.844184583053,389.844184583053,389.844184583053,389.83151887437174,389.844184583053,389.844184583053,394.97363725001924,389.844184583053,394.97363725001924,395.06736195797566,395.6990801249631,389.844184583053,2,1,3.464524249895476,reldom2_s032,001,2025-03-12_15h55.03.719,Vis-A-Scan_AC,2022.2.5,None,
32,First_Order,6.0,viswhat,stimulus/viswhat_stim/blank_white.png,stimulus/viswhat_stim/blank_white.png,stimulus/viswhat_stim/land_animal-moose.png,stimulus/viswhat_stim/water_animal-dolphin.png,stimulus/viswhat_stim/blank_white.png,stimulus/viswhat_stim/type_box.png,stimulus/viswhat_stim/type_yes.png,stimulus/viswhat_stim/type_no.png,None,Type,None,Type,1,0.0,0,5.125,0,5.125,0,5.125,0,0.0,0.625,0,0.0,0,0.0,1,0.5,1,2.125,0,0,0,0,0,0,0,0,0,,,,,0,42,42,42,,,,,,,,,395.9858113749651,395.9858113749651,395.9858113749651,395.9858113749651,395.9858113749651,395.9858113749651,395.9858113749651,395.9858113749651,395.8918145830044,395.9858113749651,395.9858113749651,395.9858113749651,395.8918145830044,395.9858113749651,395.9858113749651,395.9858113749651,398.0969662499847,,395.9858113749651,395.9858113749651,401.2038190830499,396.45532108296175,397.5111862500198,398.0969662499847,399.1562995830318,395.9858113749651,395.9858113749651,395.94181458300443,395.9858113749651,395.9858113749651,395.9858113749651,395.94181458300443,395.9858113749651,395.9858113749651,401.2038190830499,395.9858113749651,401.2038190830499,401.2038190830499,402.0587840829976,395.9858113749651,1,1,0.6463305839570239,reldom2_s032,001,2025-03-12_15h55.03.719,Vis-A-Scan_AC,2022.2.5,None,
33,First_Order,6.0,viswhat,stimulus/viswhat_stim/blank_white.png,stimulus/viswhat_stim/blank_white.png,stimulus/viswhat_stim/land_vehicle-buldozer.png,stimulus/viswhat_stim/water_vehicle-canoe.png,stimulus/viswhat_stim/blank_white.png,stimulus/viswhat_stim/location_box.png,stimulus/viswhat_stim/location_yes.png,stimulus/viswhat_stim/location_no.png,None,Location,None,Type,2,0.0,0,5.125,0,5.125,0,5.125,0,0.0,0.625,0,0.0,0,0.0,1,0.5,1,2.125,0,0,0,0,0,0,0,0,0,,,,,0,43,43,43,,,,,,,,,402.0587840829976,402.0587840829976,402.0587840829976,402.0587840829976,402.0587840829976,402.0587840829976,402.0587840829976,402.0587840829976,402.0078763326552,402.0587840829976,402.0587840829976,402.0587840829976,402.0078763326552,402.0587840829976,402.0587840829976,402.0587840829976,404.1634112079628,408.12544416601304,402.0587840829976,402.0587840829976,407.21649012505077,402.53075004101265,403.58453008299693,404.1634112079628,405.1858059579972,402.0587840829976,402.0587840829976,402.0245429993219,402.0587840829976,402.0587840829976,402.0587840829976,402.0245429993219,402.0587840829976,402.0587840829976,407.21649012505077,402.0587840829976,407.21649012505077,407.2775152500253,407.92233170801774,402.0587840829976,2,1,0.7620687909657136,reldom2_s032,001,2025-03-12_15h55.03.719,Vis-A-Scan_AC,2022.2.5,None,
34,First_Order,6.0,viswhat,stimulus/viswhat_stim/blank_white.png,stimulus/viswhat_stim/blank_white.png,stimulus/viswhat_stim/land_vehicle-scooter.png,stimulus/viswhat_stim/water_vehicle-motorboatraft.png,stimulus/viswhat_stim/blank_white.png,stimulus/viswhat_stim/location_box.png,stimulus/viswhat_stim/location_yes.png,stimulus/viswhat_stim/location_no.png,None,Location,None,Type,2,0.0,0,5.125,0,5.125,0,5.125,0,0.0,0.625,0,0.0,0,0.0,1,0.5,1,2.125,0,0,0,0,0,0,0,0,0,,,,,0,44,44,44,,,,,,,,,408.12544416601304,408.12544416601304,408.12544416601304,408.12544416601304,408.12544416601304,408.12544416601304,408.12544416601304,408.12544416601304,408.09996833264984,408.12544416601304,408.12544416601304,408.12544416601304,408.09996833264984,408.12544416601304,408.12544416601304,408.12544416601304,410.2279407910537,414.2636917500058,408.12544416601304,408.12544416601304,413.2559287500335,408.60462262504734,409.6256682500243,410.2279407910537,411.2359728750307,408.12544416601304,408.12544416601304,408.1166349993165,408.12544416601304,408.12544416601304,408.12544416601304,408.1166349993165,408.12544416601304,408.12544416601304,413.2559287500335,408.12544416601304,413.2559287500335,413.35417291603517,414.0031233750051,408.12544416601304,2,1,0.676970790955238,reldom2_s032,001,2025-03-12_15h55.03.719,Vis-A-Scan_AC,2022.2.5,None,
0,0.0,None,fixation,stimulus/viswhat_stim/blank_white.png,stimulus/viswhat_stim/blank_white.png,stimulus/viswhere_stim/blank_white.png,stimulus/viswhere_stim/blank_white.png,stimulus/viswhat_stim/blank_white.png,stimulus/viswhat_stim/blank_white.png,stimulus/viswhat_stim/blank_white.png,stimulus/viswhat_stim/blank_white.png,0.0,0.0,0.0,0.0,0,0.0,0,0.0,0,0.0,0,0.0,0,0.0,0.0,0,0.0,0,0.0,0,0.0,0,0.0,0,0,0,0,0,0,0,0,8,,,,,0,45,45,45,,,,,,,,,414.2636917500058,414.2636917500058,414.2636917500058,414.2636917500058,414.2636917500058,414.2636917500058,414.2636917500058,414.2636917500058,414.16158612429473,414.2636917500058,414.2636917500058,414.2636917500058,414.16158612429473,414.2636917500058,414.2636917500058,414.2636917500058,414.2636917500058,414.2636917500058,414.2636917500058,414.2636917500058,414.2636917500058,414.2636917500058,414.2636917500058,414.2636917500058,414.2636917500058,414.2636917500058,414.2636917500058,414.21158612429474,414.2636917500058,414.2636917500058,414.2636917500058,414.21158612429474,414.2636917500058,414.2636917500058,414.2636917500058,414.2636917500058,414.2636917500058,419.47951845801435,419.47951845801435,422.4309270000085,None,0,,reldom2_s032,001,2025-03-12_15h55.03.719,Vis-A-Scan_AC,2022.2.5,None,
35,Second_Order,6.0,viswhat,stimulus/viswhat_stim/land_vehicle-train.png,stimulus/viswhat_stim/land_animal-moose.png,stimulus/viswhat_stim/land_vehicle-schoolbus.png,stimulus/viswhat_stim/water_vehicle-sailboat.png,stimulus/viswhat_stim/match_blank.png,stimulus/viswhat_stim/match_box.png,stimulus/viswhat_stim/match_yes.png,stimulus/viswhat_stim/match_no.png,2.0,Match,Location,Type,2,5.125,0,5.125,0,5.125,0,5.125,0,0.75,0.75,1,0.5,1,2.125,1,0.5,1,2.125,0,0,0,0,0,0,0,0,0,,,,,0,46,46,46,,,,,,,,,422.4309270000085,427.55170358298346,422.8769420000026,423.8633042500587,424.4989785409998,425.4968922500266,422.4309270000085,422.4309270000085,422.4431259576619,422.4309270000085,422.4309270000085,422.4309270000085,422.4431259576619,422.4309270000085,427.55170358298346,428.4192572500324,430.48128820804413,434.41103066597134,428.4192572500324,428.4192572500324,433.58049404097255,428.83159658301156,429.91475916607305,430.48128820804413,431.5163503329968,428.4192572500324,428.4192572500324,428.37010345836944,428.4192572500324,428.4192572500324,428.4192572500324,428.37010345836944,428.4192572500324,428.4192572500324,433.58049404097255,428.4192572500324,433.58049404097255,433.58049404097255,,428.4192572500324,2,1,1.531600582995452,reldom2_s032,001,2025-03-12_15h55.03.719,Vis-A-Scan_AC,2022.2.5,None,
36,Second_Order,6.0,viswhat,stimulus/viswhat_stim/land_animal-moose.png,stimulus/viswhat_stim/land_vehicle-schoolbus.png,stimulus/viswhat_stim/land_vehicle-pickuptruck.png,stimulus/viswhat_stim/water_vehicle-canoe(1).png,stimulus/viswhat_stim/match_blank.png,stimulus/viswhat_stim/match_box.png,stimulus/viswhat_stim/match_yes.png,stimulus/viswhat_stim/match_no.png,2.0,Match,Location,Type,2,5.125,0,5.125,0,5.125,0,5.125,0,0.625,0.625,1,0.5,1,2.125,1,0.5,1,2.125,0,0,0,0,0,0,0,0,0,,,,,0,47,47,47,,,,,,,,,434.41103066597134,439.5344945000252,434.85415958298836,435.8423290409846,436.4789105830714,437.47587433306035,434.41103066597134,434.41103066597134,434.41994324999393,434.41103066597134,434.41103066597134,434.41103066597134,434.41994324999393,434.41103066597134,439.5344945000252,440.214177457965,442.28817000007257,446.33723608299624,440.214177457965,440.214177457965,445.35885104106274,440.67176658299286,441.6871193330735,442.28817000007257,443.30536166601814,440.214177457965,440.214177457965,440.19805908303243,440.214177457965,440.214177457965,440.214177457965,440.19805908303243,440.214177457965,440.214177457965,445.35885104106274,440.214177457965,445.35885104106274,445.40796054096427,446.0463016660651,440.214177457965,2,1,1.0403438329230994,reldom2_s032,001,2025-03-12_15h55.03.719,Vis-A-Scan_AC,2022.2.5,None,
0,0.0,None,fixation,stimulus/viswhat_stim/blank_white.png,stimulus/viswhat_stim/blank_white.png,stimulus/viswhere_stim/blank_white.png,stimulus/viswhere_stim/blank_white.png,stimulus/viswhat_stim/blank_white.png,stimulus/viswhat_stim/blank_white.png,stimulus/viswhat_stim/blank_white.png,stimulus/viswhat_stim/blank_white.png,0.0,0.0,0.0,0.0,0,0.0,0,0.0,0,0.0,0,0.0,0,0.0,0.0,0,0.0,0,0.0,0,0.0,0,0.0,0,0,0,0,0,0,0,0,8,,,,,0,48,48,48,,,,,,,,,446.33723608299624,446.33723608299624,446.33723608299624,446.33723608299624,446.33723608299624,446.33723608299624,446.33723608299624,446.33723608299624,446.24647129096553,446.33723608299624,446.33723608299624,446.33723608299624,446.24647129096553,446.33723608299624,446.33723608299624,446.33723608299624,446.33723608299624,446.33723608299624,446.33723608299624,446.33723608299624,446.33723608299624,446.33723608299624,446.33723608299624,446.33723608299624,446.33723608299624,446.33723608299624,446.33723608299624,446.29647129096554,446.33723608299624,446.33723608299624,446.33723608299624,446.29647129096554,446.33723608299624,446.33723608299624,446.33723608299624,446.33723608299624,446.33723608299624,451.542343875044,451.542343875044,454.5180990410736,None,0,,reldom2_s032,001,2025-03-12_15h55.03.719,Vis-A-Scan_AC,2022.2.5,None,
37,First_Order,7.0,viswhere,stimulus/viswhere_stim/blank_white.png,stimulus/viswhere_stim/blank_white.png,stimulus/viswhere_stim/120-deg_dot-right_turquoise.png,stimulus/viswhere_stim/120-deg_dot-left_slateblue.png,stimulus/viswhere_stim/blank_white.png,stimulus/viswhere_stim/line_box.png,stimulus/viswhere_stim/line_yes.png,stimulus/viswhere_stim/line_no.png,None,Line,None,Line,1,0.0,0,5.125,0,5.125,0,5.125,0,0.0,0.625,0,0.0,0,0.0,1,0.5,1,2.125,0,0,0,0,0,0,0,0,0,,,,,0,49,49,49,,,,,,,,,454.5180990410736,454.5180990410736,454.5180990410736,454.5180990410736,454.5180990410736,454.5180990410736,454.5180990410736,454.5180990410736,454.49815699974226,454.5180990410736,454.5180990410736,454.5180990410736,454.49815699974226,454.5180990410736,454.5180990410736,454.5180990410736,456.6223699999973,460.581953875022,454.5180990410736,454.5180990410736,459.6526931250701,454.9958841250045,456.0113407080062,456.6223699999973,457.6256412080256,454.5180990410736,454.5180990410736,454.514823666409,454.5180990410736,454.5180990410736,454.5180990410736,454.514823666409,454.5180990410736,454.5180990410736,459.6526931250701,454.5180990410736,459.6526931250701,459.73601212503854,460.3640861660242,454.5180990410736,1,1,0.6147026249673218,reldom2_s032,001,2025-03-12_15h55.03.719,Vis-A-Scan_AC,2022.2.5,None,
38,First_Order,7.0,viswhere,stimulus/viswhere_stim/blank_white.png,stimulus/viswhere_stim/blank_white.png,stimulus/viswhere_stim/30-deg_dot-right_royalblue.png,stimulus/viswhere_stim/30-deg_dot-left_royalblue.png,stimulus/viswhere_stim/blank_white.png,stimulus/viswhere_stim/dot_box.png,stimulus/viswhere_stim/dot_yes.png,stimulus/viswhere_stim/dot_no.png,None,Dot,None,Line,2,0.0,0,5.125,0,5.125,0,5.125,0,0.0,0.625,0,0.0,0,0.0,1,0.5,1,2.125,0,0,0,0,0,0,0,0,0,,,,,0,50,50,50,,,,,,,,,460.581953875022,460.581953875022,460.581953875022,460.581953875022,460.581953875022,460.581953875022,460.581953875022,460.581953875022,460.560258874398,460.581953875022,460.581953875022,460.581953875022,460.560258874398,460.581953875022,460.581953875022,460.581953875022,462.6873116659699,466.64914237498306,460.581953875022,460.581953875022,465.7180987079628,461.0595797080314,462.07391945796553,462.6873116659699,463.7080746249994,460.581953875022,460.581953875022,460.57692554106467,460.581953875022,460.581953875022,460.581953875022,460.57692554106467,460.581953875022,460.581953875022,465.7180987079628,460.581953875022,465.7180987079628,465.806079333066,466.43123712507077,460.581953875022,2,1,1.237376582925208,reldom2_s032,001,2025-03-12_15h55.03.719,Vis-A-Scan_AC,2022.2.5,None,
39,First_Order,7.0,viswhere,stimulus/viswhere_stim/blank_white.png,stimulus/viswhere_stim/blank_white.png,stimulus/viswhere_stim/150-deg_dot-left_peru.png,stimulus/viswhere_stim/30-deg_dot-left_goldenrod.png,stimulus/viswhere_stim/blank_white.png,stimulus/viswhere_stim/line_box.png,stimulus/viswhere_stim/line_yes.png,stimulus/viswhere_stim/line_no.png,None,Line,None,Dot,2,0.0,0,5.125,0,5.125,0,5.125,0,0.0,0.625,0,0.0,0,0.0,1,0.5,1,2.125,0,0,0,0,0,0,0,0,0,,,,,0,51,51,51,,,,,,,,,466.64914237498306,466.64914237498306,466.64914237498306,466.64914237498306,466.64914237498306,466.64914237498306,466.64914237498306,466.64914237498306,466.6272880833906,466.64914237498306,466.64914237498306,466.64914237498306,466.6272880833906,466.64914237498306,466.64914237498306,466.64914237498306,468.7513765830081,472.7118710830109,466.64914237498306,466.64914237498306,471.7726012080675,467.1312472909922,468.1357309999876,468.7513765830081,469.7622989580268,466.64914237498306,466.64914237498306,466.6439547500573,466.64914237498306,466.64914237498306,466.64914237498306,466.6439547500573,466.64914237498306,466.64914237498306,471.7726012080675,466.64914237498306,471.7726012080675,471.87025133299176,472.4959501250414,466.64914237498306,2,1,0.6054615839384496,reldom2_s032,001,2025-03-12_15h55.03.719,Vis-A-Scan_AC,2022.2.5,None,
40,First_Order,7.0,viswhere,stimulus/viswhere_stim/blank_white.png,stimulus/viswhere_stim/blank_white.png,stimulus/viswhere_stim/120-deg_dot-left_royalblue.png,stimulus/viswhere_stim/120-deg_dot-right_slateblue.png,stimulus/viswhere_stim/blank_white.png,stimulus/viswhere_stim/dot_box.png,stimulus/viswhere_stim/dot_yes.png,stimulus/viswhere_stim/dot_no.png,None,Dot,None,Line,2,0.0,0,5.125,0,5.125,0,5.125,0,0.0,0.625,0,0.0,0,0.0,1,0.5,1,2.125,0,0,0,0,0,0,0,0,0,,,,,0,52,52,52,,,,,,,,,472.7118710830109,472.7118710830109,472.7118710830109,472.7118710830109,472.7118710830109,472.7118710830109,472.7118710830109,472.7118710830109,472.6911072913402,472.7118710830109,472.7118710830109,472.7118710830109,472.6911072913402,472.7118710830109,472.7118710830109,472.7118710830109,474.81616845796816,478.85328012506943,472.7118710830109,472.7118710830109,477.8437328330474,473.1901013329625,474.20576483302284,474.81616845796816,475.8364161250647,472.7118710830109,472.7118710830109,472.70777395800684,472.7118710830109,472.7118710830109,472.7118710830109,472.70777395800684,472.7118710830109,472.7118710830109,477.8437328330474,472.7118710830109,477.8437328330474,477.93141512502916,478.55930691596586,472.7118710830109,2,1,0.5477407090365887,reldom2_s032,001,2025-03-12_15h55.03.719,Vis-A-Scan_AC,2022.2.5,None,
0,0.0,None,fixation,stimulus/viswhat_stim/blank_white.png,stimulus/viswhat_stim/blank_white.png,stimulus/viswhere_stim/blank_white.png,stimulus/viswhere_stim/blank_white.png,stimulus/viswhat_stim/blank_white.png,stimulus/viswhat_stim/blank_white.png,stimulus/viswhat_stim/blank_white.png,stimulus/viswhat_stim/blank_white.png,0.0,0.0,0.0,0.0,0,0.0,0,0.0,0,0.0,0,0.0,0,0.0,0.0,0,0.0,0,0.0,0,0.0,0,0.0,0,0,0,0,0,0,0,0,9,,,,,0,53,53,53,,,,,,,,,478.85328012506943,478.85328012506943,478.85328012506943,478.85328012506943,478.85328012506943,478.85328012506943,478.85328012506943,478.85328012506943,478.75483766636654,478.85328012506943,478.85328012506943,478.85328012506943,478.75483766636654,478.85328012506943,478.85328012506943,478.85328012506943,478.85328012506943,478.85328012506943,478.85328012506943,478.85328012506943,478.85328012506943,478.85328012506943,478.85328012506943,478.85328012506943,478.85328012506943,478.85328012506943,478.85328012506943,478.80483766636655,478.85328012506943,478.85328012506943,478.85328012506943,478.80483766636655,478.85328012506943,478.85328012506943,478.85328012506943,478.85328012506943,478.85328012506943,484.0591415830422,484.0591415830422,487.9834625410149,None,0,,reldom2_s032,001,2025-03-12_15h55.03.719,Vis-A-Scan_AC,2022.2.5,None,
41,Second_Order,7.0,viswhere,stimulus/viswhere_stim/90-deg_dot-right_seagreen.png,stimulus/viswhere_stim/90-deg_dot-left_salmon.png,stimulus/viswhere_stim/60-deg_dot-left_slateblue.png,stimulus/viswhere_stim/60-deg_dot-right_lightsseagreen.png,stimulus/viswhat_stim/match_blank.png,stimulus/viswhat_stim/match_box.png,stimulus/viswhat_stim/match_yes.png,stimulus/viswhat_stim/match_no.png,1.0,Match,Line,Line,1,5.125,0,5.125,0,5.125,0,5.125,0,0.75,0.75,1,0.5,1,2.125,1,0.5,1,2.125,0,0,0,0,0,0,0,0,0,,,,,0,54,54,54,,,,,,,,,487.9834625410149,493.10879254096653,488.4630521250656,489.4612470000284,490.0838167499751,491.081976333051,487.9834625410149,487.9834625410149,487.9974291243435,487.9834625410149,487.9834625410149,487.9834625410149,487.9974291243435,487.9834625410149,493.10879254096653,493.90120433305856,495.97596383304335,499.8735277079977,493.90120433305856,493.90120433305856,499.0351444580592,494.3456250410527,495.36202983302064,495.97596383304335,496.9800610410748,493.90120433305856,493.90120433305856,493.8754197083258,493.90120433305856,493.90120433305856,493.90120433305856,493.8754197083258,493.90120433305856,493.90120433305856,499.0351444580592,493.90120433305856,499.0351444580592,499.09062145801727,499.8735277079977,493.90120433305856,1,1,0.5449687498621643,reldom2_s032,001,2025-03-12_15h55.03.719,Vis-A-Scan_AC,2022.2.5,None,
42,Second_Order,7.0,viswhere,stimulus/viswhere_stim/150-deg_dot-left_cyan.png,stimulus/viswhere_stim/60-deg_dot-left_royalblue.png,stimulus/viswhere_stim/30-deg_dot-right_mediumslateblue.png,stimulus/viswhere_stim/90-deg_dot-right_peru.png,stimulus/viswhat_stim/match_blank.png,stimulus/viswhat_stim/match_box.png,stimulus/viswhat_stim/match_yes.png,stimulus/viswhat_stim/match_no.png,1.0,Match,Dot,Dot,1,5.125,0,5.125,0,5.125,0,5.125,0,0.625,0.625,1,0.5,1,2.125,1,0.5,1,2.125,0,0,0,0,0,0,0,0,0,,,,,0,55,55,55,,,,,,,,,499.8735277079977,504.99725041596685,500.3575169160031,501.35547950002365,501.97800983302295,502.9760409160517,499.8735277079977,499.8735277079977,499.8873280829983,499.8735277079977,499.8735277079977,499.8735277079977,499.8873280829983,499.8735277079977,504.99725041596685,505.6720424160594,507.75201225001365,511.78410291601904,505.6720424160594,505.6720424160594,510.7984946250217,506.11805287504103,507.13685145799536,507.75201225001365,508.75851566600613,505.6720424160594,505.6720424160594,505.6486571664068,505.6720424160594,505.6720424160594,505.6720424160594,505.6486571664068,505.6720424160594,505.6720424160594,510.7984946250217,505.6720424160594,510.7984946250217,510.86792670807336,511.5023611660581,505.6720424160594,1,1,0.6055578328669071,reldom2_s032,001,2025-03-12_15h55.03.719,Vis-A-Scan_AC,2022.2.5,None,
0,0.0,None,fixation,stimulus/viswhat_stim/blank_white.png,stimulus/viswhat_stim/blank_white.png,stimulus/viswhere_stim/blank_white.png,stimulus/viswhere_stim/blank_white.png,stimulus/viswhat_stim/blank_white.png,stimulus/viswhat_stim/blank_white.png,stimulus/viswhat_stim/blank_white.png,stimulus/viswhat_stim/blank_white.png,0.0,0.0,0.0,0.0,0,0.0,0,0.0,0,0.0,0,0.0,0,0.0,0.0,0,0.0,0,0.0,0,0.0,0,0.0,0,0,0,0,0,0,0,0,8,,,,,0,56,56,56,,,,,,,,,511.78410291601904,511.78410291601904,511.78410291601904,511.78410291601904,511.78410291601904,511.78410291601904,511.78410291601904,511.78410291601904,511.6828669583968,511.78410291601904,511.78410291601904,511.78410291601904,511.6828669583968,511.78410291601904,511.78410291601904,511.78410291601904,511.78410291601904,511.78410291601904,511.78410291601904,511.78410291601904,511.78410291601904,511.78410291601904,511.78410291601904,511.78410291601904,511.78410291601904,511.78410291601904,511.78410291601904,511.7328669583968,511.78410291601904,511.78410291601904,511.78410291601904,511.7328669583968,511.78410291601904,511.78410291601904,511.78410291601904,511.78410291601904,511.78410291601904,516.9813828750048,516.9813828750048,519.9576676660217,None,0,,reldom2_s032,001,2025-03-12_15h55.03.719,Vis-A-Scan_AC,2022.2.5,None,
43,First_Order,8.0,viswhere,stimulus/viswhere_stim/blank_white.png,stimulus/viswhere_stim/blank_white.png,stimulus/viswhere_stim/150-deg_dot-left_lightsseagreen.png,stimulus/viswhere_stim/30-deg_dot-left_salmon.png,stimulus/viswhere_stim/blank_white.png,stimulus/viswhere_stim/dot_box.png,stimulus/viswhere_stim/dot_yes.png,stimulus/viswhere_stim/dot_no.png,None,Dot,None,Dot,1,0.0,0,5.125,0,5.125,0,5.125,0,0.0,0.625,0,0.0,0,0.0,1,0.5,1,2.125,0,0,0,0,0,0,0,0,0,,,,,0,57,57,57,,,,,,,,,519.9576676660217,519.9576676660217,519.9576676660217,519.9576676660217,519.9576676660217,519.9576676660217,519.9576676660217,519.9576676660217,519.9380176667279,519.9576676660217,519.9576676660217,519.9576676660217,519.9380176667279,519.9576676660217,519.9576676660217,519.9576676660217,522.069861624972,526.0191425409866,519.9576676660217,519.9576676660217,525.0952912080102,520.4375302910339,521.4562718330417,522.069861624972,523.0724038750632,519.9576676660217,519.9576676660217,519.9380176667279,519.9576676660217,519.9576676660217,519.9576676660217,519.9380176667279,519.9576676660217,519.9576676660217,525.0952912080102,519.9576676660217,525.0952912080102,525.1790882910136,525.802186875022,519.9576676660217,1,1,2.158892541890964,reldom2_s032,001,2025-03-12_15h55.03.719,Vis-A-Scan_AC,2022.2.5,None,
44,First_Order,8.0,viswhere,stimulus/viswhere_stim/blank_white.png,stimulus/viswhere_stim/blank_white.png,stimulus/viswhere_stim/150-deg_dot-right_seagreen.png,stimulus/viswhere_stim/150-deg_dot-left_goldenrod.png,stimulus/viswhere_stim/blank_white.png,stimulus/viswhere_stim/line_box.png,stimulus/viswhere_stim/line_yes.png,stimulus/viswhere_stim/line_no.png,None,Line,None,Line,1,0.0,0,5.125,0,5.125,0,5.125,0,0.0,0.625,0,0.0,0,0.0,1,0.5,1,2.125,0,0,0,0,0,0,0,0,0,,,,,0,58,58,58,,,,,,,,,526.0191425409866,526.0191425409866,526.0191425409866,526.0191425409866,526.0191425409866,526.0191425409866,526.0191425409866,526.0191425409866,525.9976699163284,526.0191425409866,526.0191425409866,526.0191425409866,525.9976699163284,526.0191425409866,526.0191425409866,526.0191425409866,528.1300237909891,532.0852410410298,526.0191425409866,526.0191425409866,531.1428905000212,526.5033415000653,527.5109987909673,528.1300237909891,529.1437523330096,526.0191425409866,526.0191425409866,526.014336582995,526.0191425409866,526.0191425409866,526.0191425409866,526.014336582995,526.0191425409866,526.0191425409866,531.1428905000212,526.0191425409866,531.1428905000212,531.2404478749959,531.8694030829938,526.0191425409866,1,1,0.5730583749245852,reldom2_s032,001,2025-03-12_15h55.03.719,Vis-A-Scan_AC,2022.2.5,None,
45,First_Order,8.0,viswhere,stimulus/viswhere_stim/blank_white.png,stimulus/viswhere_stim/blank_white.png,stimulus/viswhere_stim/150-deg_dot-left_seagreen.png,stimulus/viswhere_stim/60-deg_dot-left_turquoise.png,stimulus/viswhere_stim/blank_white.png,stimulus/viswhere_stim/dot_box.png,stimulus/viswhere_stim/dot_yes.png,stimulus/viswhere_stim/dot_no.png,None,Dot,None,Dot,1,0.0,0,5.125,0,5.125,0,5.125,0,0.0,0.625,0,0.0,0,0.0,1,0.5,1,2.125,0,0,0,0,0,0,0,0,0,,,,,0,59,59,59,,,,,,,,,532.0852410410298,532.0852410410298,532.0852410410298,532.0852410410298,532.0852410410298,532.0852410410298,532.0852410410298,532.0852410410298,532.0638296663141,532.0852410410298,532.0852410410298,532.0852410410298,532.0638296663141,532.0852410410298,532.0852410410298,532.0852410410298,534.1838934159605,538.1434527500533,532.0852410410298,532.0852410410298,537.2113604160259,532.5670549579663,533.5690572500462,534.1838934159605,535.1904826660175,532.0852410410298,532.0852410410298,532.0804963329807,532.0852410410298,532.0852410410298,532.0852410410298,532.0804963329807,532.0852410410298,532.0852410410298,537.2113604160259,532.0852410410298,537.2113604160259,537.3095526660327,537.9417144580511,532.0852410410298,1,1,0.8632141669513658,reldom2_s032,001,2025-03-12_15h55.03.719,Vis-A-Scan_AC,2022.2.5,None,
46,First_Order,8.0,viswhere,stimulus/viswhere_stim/blank_white.png,stimulus/viswhere_stim/blank_white.png,stimulus/viswhere_stim/150-deg_dot-left_lightsseagreen.png,stimulus/viswhere_stim/60-deg_dot-left_royalblue.png,stimulus/viswhere_stim/blank_white.png,stimulus/viswhere_stim/line_box.png,stimulus/viswhere_stim/line_yes.png,stimulus/viswhere_stim/line_no.png,None,Line,None,Dot,2,0.0,0,5.125,0,5.125,0,5.125,0,0.0,0.625,0,0.0,0,0.0,1,0.5,1,2.125,0,0,0,0,0,0,0,0,0,,,,,0,60,60,60,,,,,,,,,538.1434527500533,538.1434527500533,538.1434527500533,538.1434527500533,538.1434527500533,538.1434527500533,538.1434527500533,538.1434527500533,538.1227791664036,538.1434527500533,538.1434527500533,538.1434527500533,538.1227791664036,538.1434527500533,538.1434527500533,538.1434527500533,540.2459840830415,544.2905602080282,538.1434527500533,538.1434527500533,543.2796582080191,538.6257575830678,539.6298150829971,540.2459840830415,541.2551755000604,538.1434527500533,538.1434527500533,538.1394458330702,538.1434527500533,538.1434527500533,538.1434527500533,538.1394458330702,538.1434527500533,538.1434527500533,543.2796582080191,538.1434527500533,543.2796582080191,543.3627250830177,543.9914882910671,538.1434527500533,2,1,0.9532909999834374,reldom2_s032,001,2025-03-12_15h55.03.719,Vis-A-Scan_AC,2022.2.5,None,
0,0.0,None,fixation,stimulus/viswhat_stim/blank_white.png,stimulus/viswhat_stim/blank_white.png,stimulus/viswhere_stim/blank_white.png,stimulus/viswhere_stim/blank_white.png,stimulus/viswhat_stim/blank_white.png,stimulus/viswhat_stim/blank_white.png,stimulus/viswhat_stim/blank_white.png,stimulus/viswhat_stim/blank_white.png,0.0,0.0,0.0,0.0,0,0.0,0,0.0,0,0.0,0,0.0,0,0.0,0.0,0,0.0,0,0.0,0,0.0,0,0.0,0,0,0,0,0,0,0,0,9,,,,,0,61,61,61,,,,,,,,,544.2905602080282,544.2905602080282,544.2905602080282,544.2905602080282,544.2905602080282,544.2905602080282,544.2905602080282,544.2905602080282,544.1914967083916,544.2905602080282,544.2905602080282,544.2905602080282,544.1914967083916,544.2905602080282,544.2905602080282,544.2905602080282,544.2905602080282,544.2905602080282,544.2905602080282,544.2905602080282,544.2905602080282,544.2905602080282,544.2905602080282,544.2905602080282,544.2905602080282,544.2905602080282,544.2905602080282,544.2414967083915,544.2905602080282,544.2905602080282,544.2905602080282,544.2414967083915,544.2905602080282,544.2905602080282,544.2905602080282,544.2905602080282,544.2905602080282,549.4942831660155,549.4942831660155,553.421478040982,None,0,,reldom2_s032,001,2025-03-12_15h55.03.719,Vis-A-Scan_AC,2022.2.5,None,
47,Second_Order,8.0,viswhere,stimulus/viswhere_stim/120-deg_dot-left_goldenrod.png,stimulus/viswhere_stim/120-deg_dot-right_seagreen.png,stimulus/viswhere_stim/90-deg_dot-left_peru.png,stimulus/viswhere_stim/90-deg_dot-right_turquoise.png,stimulus/viswhat_stim/match_blank.png,stimulus/viswhat_stim/match_box.png,stimulus/viswhat_stim/match_yes.png,stimulus/viswhat_stim/match_no.png,1.0,Match,Line,Line,1,5.125,0,5.125,0,5.125,0,5.125,0,0.75,0.75,1,0.5,1,2.125,1,0.5,1,2.125,0,0,0,0,0,0,0,0,0,,,,,0,62,62,62,,,,,,,,,553.421478040982,558.5433837500168,553.8969982080162,554.8831245830515,555.5180329580326,556.5164355000015,553.421478040982,553.421478040982,553.4348395413564,553.421478040982,553.421478040982,553.421478040982,553.4348395413564,553.421478040982,558.5433837500168,559.3364895409904,561.4063760000281,565.305029915995,559.3364895409904,559.3364895409904,564.4618109579897,559.7850400409661,560.7890872079879,561.4063760000281,562.4165669160429,559.3364895409904,559.3364895409904,559.3093505833608,559.3364895409904,559.3364895409904,559.3364895409904,559.3093505833608,559.3364895409904,559.3364895409904,564.4618109579897,559.3364895409904,564.4618109579897,564.5312733330065,565.305029915995,559.3364895409904,1,1,0.4877667499240488,reldom2_s032,001,2025-03-12_15h55.03.719,Vis-A-Scan_AC,2022.2.5,None,
48,Second_Order,8.0,viswhere,stimulus/viswhere_stim/150-deg_dot-right_salmon.png,stimulus/viswhere_stim/90-deg_dot-right_cyan.png,stimulus/viswhere_stim/60-deg_dot-left_mediumslateblue.png,stimulus/viswhere_stim/30-deg_dot-left_turquoise.png,stimulus/viswhat_stim/match_blank.png,stimulus/viswhat_stim/match_box.png,stimulus/viswhat_stim/match_yes.png,stimulus/viswhat_stim/match_no.png,1.0,Match,Dot,Dot,1,5.125,0,5.125,0,5.125,0,5.125,0,0.625,0.625,1,0.5,1,2.125,1,0.5,1,2.125,0,0,0,0,0,0,0,0,0,,,,,0,63,63,63,,,,,,,,,565.305029915995,570.4202587910695,565.7901225410169,566.7767481249757,567.4162613750668,568.4146147080464,565.305029915995,565.305029915995,565.3189902080455,565.305029915995,565.305029915995,565.305029915995,565.3189902080455,565.305029915995,570.4202587910695,571.091128500062,573.1664152080193,577.213979040971,571.091128500062,571.091128500062,576.2301067910157,571.5390565830749,572.5546867910307,573.1664152080193,574.1738162500551,571.091128500062,571.091128500062,571.066714083318,571.091128500062,571.091128500062,571.091128500062,571.066714083318,571.091128500062,571.091128500062,576.2301067910157,571.091128500062,576.2301067910157,576.2857107080054,576.9170547079993,571.091128500062,1,1,0.6961925838841125,reldom2_s032,001,2025-03-12_15h55.03.719,Vis-A-Scan_AC,2022.2.5,None,
0,0.0,None,fixation,stimulus/viswhat_stim/blank_white.png,stimulus/viswhat_stim/blank_white.png,stimulus/viswhere_stim/blank_white.png,stimulus/viswhere_stim/blank_white.png,stimulus/viswhat_stim/blank_white.png,stimulus/viswhat_stim/blank_white.png,stimulus/viswhat_stim/blank_white.png,stimulus/viswhat_stim/blank_white.png,0.0,0.0,0.0,0.0,0,0.0,0,0.0,0,0.0,0,0.0,0,0.0,0.0,0,0.0,0,0.0,0,0.0,0,0.0,0,0,0,0,0,0,0,0,16,,,,,0,64,64,64,,,,,,,,,577.213979040971,577.213979040971,577.213979040971,577.213979040971,577.213979040971,577.213979040971,577.213979040971,577.213979040971,577.113126124333,577.213979040971,577.213979040971,577.213979040971,577.113126124333,577.213979040971,577.213979040971,577.213979040971,577.213979040971,577.213979040971,577.213979040971,577.213979040971,577.213979040971,577.213979040971,577.213979040971,577.213979040971,577.213979040971,577.213979040971,577.213979040971,577.163126124333,577.213979040971,577.213979040971,577.213979040971,577.163126124333,577.213979040971,577.213979040971,577.213979040971,577.213979040971,577.213979040971,582.4202269159723,582.4202269159723,593.3390653750394,None,0,,reldom2_s032,001,2025-03-12_15h55.03.719,Vis-A-Scan_AC,2022.2.5,None,
